time,seconds_elapsed,acc_z,acc_y,acc_x,gyro_z,gyro_y,gyro_x
1772903219047760000,0.136759765625,-0.5821237564086914,-0.1456539630889892,0.0403237342834472,1.0512982606887815,-0.9566142559051514,0.7232639193534851
1772903219066746400,0.155746337890625,-0.6782984733581543,-0.6988495588302612,0.1525001525878906,1.0042617321014404,-1.5760310888290403,0.7061597108840942
1772903219085732900,0.17473291015625,-0.3914532661437988,-0.8125196695327759,-0.325629711151123,1.0409135818481443,-2.252258539199829,0.6750055551528931
1772903219104719400,0.19371923828125,-0.4671411514282226,-0.4885689616203308,-0.6282920837402344,1.120326042175293,-2.6694791316986084,0.5968148708343506
1772903219123705900,0.212705810546875,-0.7899656295776367,-0.1233011484146118,-0.3643860816955566,1.2131774425506592,-2.844797372817993,0.4276053309440613
1772903219142692400,0.2316923828125,-1.0807957649230957,0.0175395607948303,-0.1202645301818847,1.323133111000061,-2.9749114513397217,0.1985310465097427
1772903219161678800,0.250678955078125,-0.6314358711242676,0.1576542854309082,0.3741769790649414,1.4685189723968506,-2.917490243911743,-0.0006108647794462
1772903219180665300,0.269665283203125,0.0087213516235351,-0.0180593729019165,0.8629889488220215,1.6236785650253296,-2.5778493881225586,-0.131946787238121
1772903219199651800,0.28865185546875,0.2652087211608886,-0.3148793280124664,1.4481797218322754,1.7806708812713623,-2.3090689182281494,-0.2828303873538971
1772903219218638300,0.307638427734375,0.6431999206542969,-0.5407763123512268,1.8624720573425293,2.0152428150177,-2.1172573566436768,-0.481361448764801
1772903219237624600,0.32662451171875,1.2290959358215332,-0.556911826133728,2.093663215637207,2.3182318210601807,-1.9364413022994995,-0.6322450637817383
1772903219256611300,0.345611328125,2.600616931915283,-0.1308368444442749,2.467570781707764,2.6285512447357178,-2.0213515758514404,-0.5516108870506287
1772903219275597800,0.364597900390625,3.9830496311187744,0.4748217463493347,2.614659309387207,2.902218580245972,-2.357938051223755,-0.1808159798383712
1772903219294584000,0.383583984375,5.016755104064941,1.1009840965270996,2.523214817047119,3.1581709384918213,-2.8961098194122314,0.4288270771503448
1772903219313570600,0.402570556640625,5.761538028717041,1.7496140003204346,2.1698532104492188,3.378693103790283,-3.3964080810546875,1.1643083095550537
1772903219332557000,0.42155712890625,6.75339412689209,2.390596389770508,4.141452789306641,3.2754569053649902,-3.627315044403076,1.8955134153366089
1772903219351543600,0.44054345703125,6.189118385314941,2.334357738494873,6.230174064636231,2.714072227478028,-3.078758478164673,2.413526773452759
1772903219370530000,0.459530029296875,4.188079833984375,2.452824831008911,6.537984848022461,1.9462151527404783,-2.3341143131256104,2.484387159347534
1772903219389516500,0.4785166015625,2.2900023460388184,2.7317564487457275,4.605798721313477,1.2974767684936523,-1.8539745807647705,2.313344955444336
1772903219408503000,0.4975029296875,1.169372320175171,2.704146146774292,1.7438602447509766,0.9572250843048096,-1.739132046699524,2.073275089263916
1772903219427489500,0.516489501953125,1.4006969928741455,2.577963352203369,-0.5395431518554688,0.851545512676239,-1.7721186876296997,1.925445795059204
1772903219446476000,0.53547607421875,2.615938663482666,2.391874313354492,-1.2008743286132812,0.9144645929336548,-1.7122539281845093,1.997527837753296
1772903219465462500,0.554462646484375,3.963597536087036,2.2186381816864014,-0.2811164855957031,0.9004147052764893,-1.5112794637680054,2.341444730758667
1772903219484449000,0.573448974609375,3.874098062515259,1.986998438835144,0.3531551361083984,0.7874047160148621,-1.431867003440857,2.7446155548095703
1772903219503435500,0.592435546875,3.266918897628784,2.255797863006592,0.7324800491333008,0.5070177912712097,-1.4459168910980225,3.126405954360962
1772903219522421800,0.611421875,2.329221725463867,2.4916648864746094,1.4607934951782229,0.0323758348822593,-1.311526656150818,3.3072218894958496
1772903219541408300,0.630408203125,1.1443192958831787,2.621666431427002,1.4828529357910156,-0.3866774141788482,-0.8442151546478271,3.1453428268432617
1772903219560395000,0.64939501953125,0.2173399925231933,2.6014404296875,1.8640928268432615,-0.656679630279541,-0.1624900251626968,2.7953171730041504
1772903219579381200,0.66838134765625,-0.2623257637023926,2.487075090408325,2.515918731689453,-0.980437994003296,0.4202749729156494,2.378096580505371
1772903219598367700,0.68736767578125,0.1249346733093261,2.203754425048828,2.464583396911621,-1.2608249187469482,1.1239912509918213,1.9889757633209229
1772903219617354200,0.706354248046875,0.3298089504241943,1.6940157413482666,2.1874895095825195,-1.2870920896530151,2.221715211868286,1.737910270690918
1772903219636340700,0.7253408203125,0.3409101963043213,0.5182435512542725,2.084056854248047,-1.1184934377670288,3.065319538116455,1.4208714962005615
1772903219655327200,0.7443271484375,0.9606122970581056,-0.3490533232688904,2.891360282897949,-1.0848958492279053,3.4636032581329346,1.018311619758606
1772903219674313700,0.763313720703125,2.195433616638184,-0.9677392244338988,3.632317543029785,-1.258992314338684,3.726275205612183,0.8772017955780029
1772903219693300200,0.78230029296875,3.456723690032959,-2.0300304889678955,3.487826347351074,-1.461799383163452,3.305389404296875,0.991433560848236
1772903219712286700,0.80128662109375,3.3195600509643555,-3.256474733352661,2.723377227783203,-1.5308271646499634,3.0585999488830566,1.1887428760528564
1772903219731273200,0.820273193359375,2.8536109924316406,-4.55076789855957,1.8977317810058596,-1.4385865926742554,3.2143704891204834,1.2675443887710571
1772903219750259700,0.839259765625,2.551731586456299,-5.712765693664551,1.4322376251220703,-1.1148282289505005,3.4684901237487797,1.3182462453842163
1772903219769246200,0.85824609375,2.166715621948242,-6.406730651855469,1.585350513458252,-0.8161153197288513,3.517359495162964,1.395825982093811
1772903219788232700,0.877232666015625,1.2522764205932615,-6.89133882522583,1.201953411102295,-0.6023126840591431,3.431227445602417,1.4923427104949951
1772903219807219000,0.896218994140625,-0.0517730712890625,-7.213907718658447,0.780766487121582,-0.3591884970664978,3.1832163333892822,1.556483507156372
1772903219826205400,0.915205322265625,-1.118305206298828,-7.585307121276855,0.2371277809143066,-0.0604756139218807,2.5754058361053467,1.508836030960083
1772903219845192000,0.93419189453125,-1.8269872665405276,-7.482431411743164,-0.2549357414245605,0.2486219704151153,1.925445795059204,1.4086542129516602
1772903219864178400,0.953178466796875,-2.401336669921875,-6.5859785079956055,0.0420784950256347,0.3756818473339081,1.5485422611236572,1.255937933921814
1772903219883165000,0.9721650390625,-2.690560817718506,-5.712602615356445,0.2836875915527344,0.3726275265216827,1.4043781757354736,1.0671807527542114
1772903219902151400,0.9911513671875,-2.666562557220459,-5.3924407958984375,0.1978654861450195,0.4263836145401001,1.524107575416565,1.0482439994812012
1772903219921138000,1.010137939453125,-2.4028449058532715,-5.439691066741943,0.1680383682250976,0.5088503360748291,1.6523892879486084,1.2834268808364868
1772903219940124400,1.02912451171875,-2.720458030700684,-5.634636878967285,-0.1277437210083007,0.6059778332710266,1.535714030265808,1.617569923400879
1772903219959111000,1.04811083984375,-3.2109432220458984,-5.339537620544434,-0.3069403171539306,0.7195987105369568,1.1948515176773071,1.9132285118103027
1772903219978097400,1.067097412109375,-3.755446434020996,-4.798005104064941,-0.0484170913696289,0.7727439403533936,0.8405499458312988,2.0573925971984863
1772903219997084000,1.086083984375,-4.282939434051514,-4.505410671234131,0.2678751945495605,0.7733548283576965,0.6487383842468262,1.9578216075897217
1772903220016070400,1.1050703125,-4.599858283996582,-4.138668537139893,0.4386227130889892,0.7776308655738831,0.5949822664260864,1.6004657745361328
1772903224155119600,5.24411962890625,1.2576215267181396,-0.385991096496582,5.521090507507324,-1.5741984844207764,0.6059778332710266,0.8032872080802917
1772903224174105900,5.26310595703125,-0.0256880521774292,-0.4092295169830322,5.477203369140625,-1.777005672454834,0.711046576499939,0.5381718873977661
1772903224193092400,5.28209228515625,-0.604088544845581,-1.084333896636963,4.630438804626465,-1.977980136871338,1.138651967048645,0.1563813835382461
1772903224212078800,5.301078857421875,-0.3639783859252929,-1.922252893447876,3.0757970809936523,-2.0549490451812744,1.5845832824707031,-0.1178968995809555
1772903224231065300,5.3200654296875,0.3031740188598633,-2.5209977626800537,1.456462860107422,-1.993862628936768,1.7678426504135132,-0.1606574356555938
1772903224250051800,5.3390517578125,0.6547403335571289,-3.077204465866089,0.4188241958618164,-1.8613049983978271,1.7653992176055908,-0.0390953458845615
1772903224269038300,5.358038330078125,0.4613895416259765,-3.7538576126098633,0.0241308212280273,-1.740964651107788,1.75929057598114,0.1203403621912002
1772903224288024600,5.377024658203125,0.0787353515625,-4.4159135818481445,-0.0818452835083007,-1.6536109447479248,1.7458515167236328,0.2809978127479553
1772903224307011000,5.396010986328125,-0.395416259765625,-4.898941040039063,-0.3791732788085937,-1.5387684106826782,1.6407828330993652,0.3933969140052795
1772903224325997600,5.41499755859375,-1.1685476303100586,-5.02781343460083,-0.6203451156616211,-1.3878847360610962,1.5308271646499634,0.3940077722072601
1772903224344984000,5.433984130859375,-1.5404226779937744,-5.306784152984619,-0.8641319274902344,-1.204014539718628,1.4385865926742554,0.3408625423908233
1772903224363970300,5.45297021484375,-1.5083296298980713,-5.609997749328613,-1.1689772605895996,-0.9853248596191406,1.2467750310897827,0.3255909383296966
1772903224382956800,5.471956787109375,-1.7056119441986084,-5.904397010803223,-1.3991999626159668,-0.7428115606307983,1.109330415725708,0.2999345958232879
1772903224401943300,5.490943359375,-2.060368061065674,-6.061244010925293,-1.7295913696289062,-0.4679224193096161,0.9926552772521972,0.2461785078048706
1772903224420929800,5.5099296875,-2.265268325805664,-6.103014945983887,-1.9797186851501465,-0.1808159798383712,0.8790343999862671,0.1869246214628219
1772903224439916000,5.528916015625,-2.537059783935547,-5.943217277526856,-1.9704551696777344,0.0445931293070316,0.6823359727859497,0.1142317131161689
1772903224458902500,5.547902587890625,-2.6568708419799805,-5.821327209472656,-1.9945054054260252,0.1905898153781891,0.3805687427520752,0.0531452372670173
1772903224477889000,5.566888916015625,-2.6015000343322754,-5.764299392700195,-1.9168081283569336,0.2993237376213074,0.0849102064967155,0.0219911318272352
1772903224496875500,5.58587548828125,-2.505338430404663,-5.805799961090088,-1.864961624145508,0.3878991305828094,-0.0519235059618949,0.006719512399286
1772903224515862000,5.604862060546875,-2.701441526412964,-5.707889556884766,-2.300490379333496,0.5473348498344421,-0.0897971242666244,-0.0507017783820629
1772903224534848300,5.62384814453125,-2.6426868438720703,-5.389769077301025,-2.81950044631958,0.8032872080802917,-0.1771507859230041,-0.1343902498483657
1772903224553834800,5.642834716796875,-2.330020904541016,-5.143888473510742,-2.606804370880127,1.0677915811538696,-0.370184063911438,-0.192422404885292
1772903224572821200,5.6618212890625,-1.8946919441223145,-4.8664631843566895,-1.99961519241333,1.311526656150818,-0.5564978122711182,-0.2180787324905395
1772903224591807700,5.680807861328125,-1.712052583694458,-4.22834062576294,-1.43613862991333,1.546098709106445,-0.6725621223449707,-0.296269416809082
1772903224610794200,5.699794189453125,-1.094153642654419,-3.55666732788086,-0.1211199760437011,1.6682716608047483,-0.7648026943206787,-0.3628536760807037
1772903224629780700,5.71878076171875,-0.3288507461547851,-2.8508589267730717,0.9447031021118164,1.6493349075317385,-0.8002328872680664,-0.4086685478687286
1772903224648767000,5.73776708984375,0.2017915248870849,-1.7738220691680908,0.991816520690918,1.712864875793457,-0.5815432667732239,-0.5717694163322449
1772903224667753500,5.75675341796875,0.8428082466125488,-0.5836582183837891,1.512831687927246,1.813657522201538,-0.2596175372600555,-0.749531090259552
1772903224686740000,5.775739990234375,2.0926289558410645,0.9823460578918456,3.008843421936035,1.6829324960708618,-0.1398880332708358,-0.7599157691001892
1772903224705726500,5.7947265625,2.6797149181365967,2.5549237728118896,4.180267333984375,1.3915499448776243,-0.0061086476780474,-0.7452550530433655
1772903224724712700,5.813712646484375,2.466163396835327,4.059477806091309,4.458812713623047,1.0567960739135742,0.3872882723808288,-0.8527672290802002
1772903224743699200,5.83269921875,2.117910385131836,5.233602523803711,4.156495094299316,0.8069523572921753,0.8808670043945312,-1.046411395072937
1772903224762685700,5.851685791015625,1.9549651145935056,5.143496513366699,4.2090559005737305,0.6652317643165588,1.284037709236145,-1.3060288429260254
1772903224781672200,5.870672119140625,2.3970770835876465,5.4759135246276855,3.985506057739258,0.5729911923408508,1.5503748655319214,-1.555261731147766
1772903224800658400,5.889658447265625,2.8935747146606445,6.293117046356201,3.7843246459960938,0.4361574649810791,1.7140865325927734,-1.8142683506011963
1772903224819645000,5.90864501953125,3.686079978942871,6.602787017822266,3.828081130981445,0.130114197731018,2.000582218170166,-1.9663736820220947
1772903224838631400,5.92763134765625,4.963816165924072,6.040227890014648,3.742630958557129,-0.3353647589683532,2.3878703117370605,-1.7715078592300415
1772903224857618000,5.946617919921875,5.096694946289063,4.5926008224487305,3.1346874237060547,-0.8545998334884644,2.6957461833953857,-1.2186752557754517
1772903224876604200,5.965604248046875,3.4703116416931152,3.17275333404541,1.2478270530700684,-1.2156208753585815,2.7067418098449707,-0.6438514590263367
1772903224895590700,5.984590576171875,1.4850893020629885,2.4251904487609863,-1.198838233947754,-1.2412772178649902,2.3451099395751958,-0.2474002391099929
1772903224914577200,6.0035771484375,0.4223651885986328,2.135521411895752,-2.887347221374512,-1.0164790153503418,1.7189735174179075,0.0048869182355701
1772903224933563600,6.022563720703125,0.115236759185791,1.6790997982025146,-3.205760955810547,-0.7330377101898193,1.2107340097427368,0.1893680840730667
1772903224952550000,6.0415498046875,0.1466503143310547,1.2016961574554443,-2.534322023391724,-0.5393936038017273,0.9645555019378662,0.3390299379825592
1772903224971536400,6.060536376953125,-0.1616835594177246,0.7702596187591553,-1.8439264297485352,-0.4196641147136688,0.9505056142807008,0.4367683231830597
1772903224990523000,6.07952294921875,-0.3699278831481933,0.402416467666626,-1.4620404243469238,-0.2895499169826507,0.9737184643745422,0.5100721120834351
1772903225009509400,6.09850927734375,-0.3447694778442383,0.2033507823944091,-1.0555872917175293,-0.2156352698802948,0.8674280047416687,0.6071996092796326
1772903225028495600,6.11749560546875,-0.3693375587463379,0.174159288406372,-0.4991655349731445,-0.2419024556875229,0.6780598759651184,0.6963858604431152
1772903225047482000,6.136482177734375,-0.704770565032959,-0.0130679607391357,-0.3048248291015625,-0.2895499169826507,0.5607738494873047,0.7049379348754883
1772903225066468600,6.155468505859375,-0.9186677932739258,-0.1661736965179443,-0.2117147445678711,-0.2840521335601806,0.5613847374916077,0.6212494969367981
1772903225085455000,6.174455078125,-0.6540966033935547,-0.3207557201385498,0.0985631942749023,-0.2596175372600555,0.7220421433448792,0.5485565662384033
1772903225104441300,6.19344140625,-0.4696369171142578,-0.5627837181091309,0.3111591339111328,-0.2174678593873977,0.91751891374588,0.5473348498344421
1772903225123427800,6.212427734375,-0.5549778938293457,-0.5760517120361328,0.4375829696655273,-0.2119700759649276,0.908355951309204,0.5913171172142029
1772903225142414300,6.231414306640625,-0.919930934906006,-0.5791220664978027,0.4648137092590332,-0.2351829409599304,0.7519745230674744,0.6114756464958191
1772903225161400800,6.25040087890625,-1.2691497802734375,-0.5722520351409912,0.4390525817871094,-0.2406807243824005,0.6108647584915161,0.573602020740509
1772903225180387000,6.269386962890625,-1.4124984741210938,-0.5144178867340088,0.6172442436218262,-0.2522871494293213,0.5797106623649597,0.4935787320137024
1772903225199373600,6.28837353515625,-1.3182601928710938,-0.5422725677490234,0.8249497413635254,-0.2712239623069763,0.6725621223449707,0.407446801662445
1772903225218360000,6.307360107421875,-1.0476665496826172,-0.7549533843994141,0.96942138671875,-0.2541197538375854,0.7666352987289429,0.3988946974277496
1772903225237346600,6.3263466796875,-0.985687255859375,-0.978130340576172,1.000643253326416,-0.2247982323169708,0.7715222239494324,0.4593703150749206
1772903225256332800,6.345332763671875,-1.2892470359802246,-1.085019588470459,1.009835720062256,-0.1948658674955368,0.6120865345001221,0.5119046568870544
1772903225275319300,6.3643193359375,-1.7292728424072266,-0.94269061088562,1.3171396255493164,-0.2296851575374603,0.430659681558609,0.4734202027320862
1772903225294305800,6.383305908203125,-2.13809585571289,-1.0331666469573977,1.6787571907043457,-0.2785543501377105,0.3231474757194519,0.3231474757194519
1772903225313292300,6.402292236328125,-2.0333967208862305,-1.2250990867614746,1.9973058700561523,-0.3316995799541473,0.2834412455558777,0.164322629570961
1772903225332278500,6.421278564453125,-1.6463308334350586,-1.5356056690216064,2.221055030822754,-0.3652971386909485,0.3500255048274994,0.0757472291588783
1772903225351265000,6.44026513671875,-1.5253620147705078,-1.7891759872436523,2.476142644882202,-0.407446801662445,0.471587598323822,0.0372627526521682
1772903225370251500,6.45925146484375,-2.173295021057129,-2.0884127616882324,2.6484646797180176,-0.4691441655158996,0.4227184355258941,-0.1081230640411377
1772903225389238000,6.478238037109375,-2.262853145599365,-1.9162884950637815,2.527006149291992,-0.4550942480564117,0.1875354945659637,-0.3426951467990875
1772903225408224300,6.497224365234375,-1.639604568481445,-2.100254535675049,3.245664596557617,-0.5186241865158081,-0.1240055486559867,-0.5436696410179138
1772903225427210800,6.516210693359375,-0.7516136169433594,-2.541879653930664,3.988609790802002,-0.6218603253364563,-0.3371973633766174,-0.6811142563819885
1772903225446197200,6.535197265625,-0.2036094665527343,-3.248451232910156,4.802512168884277,-0.794124186038971,-0.2974911332130432,-0.7739656567573547
1772903225465183700,6.554183837890625,-0.1174583435058593,-3.7232706546783447,4.870115280151367,-1.0238093137741089,-0.0745255053043365,-0.8680388331413269
1772903225484170000,6.573169921875,-0.6865243911743164,-3.56756854057312,4.144351005554199,-1.2156208753585815,0.2657261788845062,-1.0195332765579224
1772903225503156500,6.592156494140625,-1.4404215812683103,-3.518707513809204,3.126077175140381,-1.3353503942489624,0.5809323787689209,-1.2101231813430786
1772903225522143000,6.61114306640625,-1.8347558975219729,-3.5819807052612305,2.1099307537078857,-1.3548980951309204,0.6304124593734741,-1.304807186126709
1772903225541129200,6.630129150390625,-1.7979841232299805,-3.535936117172241,1.386352300643921,-1.2980875968933103,0.3976729810237884,-1.2498292922973633
1772903225560115700,6.64911572265625,-1.7230157852172852,-3.374922752380371,1.4180734157562256,-1.265711784362793,-0.0519235059618949,-1.1117738485336304
1772903225579102200,6.668102294921875,-1.981238842010498,-3.1009745597839355,1.7513535022735596,-1.334128737449646,-0.5949822664260864,-1.061682939529419
1772903225598088700,6.687088623046875,-1.9069185256958008,-2.807294607162476,2.305018186569214,-1.4874557256698608,-1.117882490158081,-1.1698060035705566
1772903225617075000,6.706074951171875,-1.0053644180297852,-2.9135398864746094,3.008490800857544,-1.6707152128219604,-1.3799434900283811,-1.3213005065917969
1772903225636061400,6.7250615234375,-0.2046146392822265,-3.194406747817993,3.591308832168579,-1.8808526992797847,-1.3836086988449097,-1.4966187477111816
1772903225655048000,6.7440478515625,-0.2026081085205078,-3.1719062328338623,4.004362106323242,-2.1386375427246094,-0.5876519083976746,-1.9260566234588623
1772903225674034200,6.7630341796875,0.3657541275024414,-2.965853214263916,4.693346977233887,-2.497826099395752,0.7953459620475769,-2.800204038619995
1772903225693020700,6.782020751953125,3.451814651489258,-3.736471176147461,3.529715776443481,-2.679252862930298,0.1423314958810806,-2.29318642616272
1772903225712007200,6.801007080078125,3.0513858795166016,-4.519566059112549,3.389528751373291,-3.139234066009521,-0.7544180154800415,-1.496007800102234
1772903225730993700,6.81999365234375,2.614706039428711,-5.041109085083008,2.999933958053589,-3.459327220916748,-1.255937933921814,-1.0018181800842283
1772903225749980000,6.83897998046875,1.3701629638671875,-5.446757793426514,2.163100242614746,-3.5198028087615967,-1.3280199766159058,-0.9028581380844116
1772903225768966400,6.85796630859375,-0.2655372619628906,-5.702834606170654,1.7742369174957275,-3.622428178787232,-1.2986985445022583,-1.1368193626403809
1772903225787953000,6.876952880859375,-0.9211015701293944,-5.921848297119141,1.440221071243286,-3.7403249740600586,-1.352454662322998,-1.461188554763794
1772903225806939400,6.895939453125,-0.6338005065917969,-6.297893047332764,1.1877775192260742,-3.866774082183838,-1.5485422611236572,-1.7037018537521362
1772903225825925600,6.914925537109375,-0.0500392913818359,-6.879788398742676,1.1921663284301758,-4.018268585205078,-1.7525711059570312,-1.846033334732056
1772903225844912000,6.933912109375,0.3097476959228515,-7.5372633934021,0.8396854400634766,-4.148993492126465,-1.877798318862915,-1.9535455703735352
1772903225863898600,6.952898681640625,0.6688299179077148,-7.911322593688965,0.1892461776733398,-4.2137451171875,-1.9339978694915767,-2.0360124111175537
1772903225882884900,6.971884765625,0.9043731689453124,-8.266744613647461,-0.6303906440734863,-4.192975997924805,-1.978590965270996,-2.070831537246704
1772903225901871400,6.990871337890625,1.2680253982543943,-8.64771842956543,-1.6391844749450684,-4.075078964233398,-2.0977096557617188,-1.9767584800720213
1772903225920857600,7.009857666015625,1.360142707824707,-8.727621078491211,-2.43373966217041,-3.9070911407470703,-2.355494499206543,-1.8252639770507808
1772903225939844000,7.028843994140625,0.493809700012207,-8.60918140411377,-3.379965305328369,-3.671297311782837,-2.6309945583343506,-1.8759657144546509
1772903225958830600,7.04783056640625,-0.3060884475708008,-8.484725952148438,-4.15946626663208,-3.3151631355285645,-2.720791816711426,-2.2033891677856445
1772903225977817000,7.066817138671875,-0.3230752944946289,-8.152586936950684,-4.368578433990479,-2.9193227291107178,-2.484387159347534,-2.733009099960327
1772903225996803300,7.08580322265625,1.0931239128112793,-8.078290939331055,-3.3687422275543213,-2.6841397285461426,-1.988364815711975,-3.194211959838867
1772903226015789800,7.104789794921875,3.4537086486816406,-8.248065948486328,-1.9683799743652344,-2.723845958709717,-1.4746276140213013,-3.353036880493164
1772903226034776300,7.1237763671875,4.956002712249756,-8.911785125732422,-1.8877906799316408,-2.80814528465271,-1.0720677375793457,-3.238805055618286
1772903226053762800,7.1427626953125,4.517427444458008,-8.86413860321045,-3.392554521560669,-2.604727506637573,-0.8374956250190735,-3.1673338413238525
1772903226072749000,7.1617490234375,3.407310485839844,-7.659416675567627,-4.556947231292725,-2.164294004440308,-0.7568614482879639,-3.2992806434631348
1772903226091735600,7.180735595703125,3.9386277198791504,-6.060649394989014,-3.843469619750977,-1.8161009550094604,-0.8881973624229431,-3.3567018508911133
1772903226110722000,7.19972216796875,5.298150062561035,-4.999302387237549,-2.693970203399658,-1.6517783403396606,-0.915686309337616,-3.112967014312744
1772903226129708300,7.218708251953125,5.8568115234375,-3.899446725845337,-2.965528011322021,-1.4343105554580688,-0.8503237962722778,-2.596175193786621
1772903226148694800,7.23769482421875,5.13444709777832,-2.569953680038452,-3.864342451095581,-1.0458004474639893,-0.8692606091499329,-2.009134292602539
1772903226167681300,7.256681396484375,3.435797691345215,-1.3816988468170166,-3.559467315673828,-0.6597339510917664,-1.1068869829177856,-1.6365067958831787
1772903226186667500,7.27566748046875,1.722341537475586,-0.5485643148422241,-2.515990257263184,-0.3866774141788482,-1.389106512069702,-1.5906919240951538
1772903226205654000,7.294654052734375,0.8436446189880371,-0.0415037870407104,-1.2168431282043457,-0.2877173125743866,-1.4953969717025757,-1.7647883892059326
1772903226224640500,7.313640625,0.9056768417358398,0.1222810745239257,-0.5781850814819336,-0.2596175372600555,-1.4049890041351318,-1.997527837753296
1772903226243626800,7.332626708984375,1.5253324508666992,0.1377348899841308,-0.6101245880126953,-0.1857028901576995,-1.268766164779663,-2.1606287956237797
1772903226262613200,7.35161328125,2.449892520904541,0.2280589342117309,-0.477090835571289,-0.0928514450788497,-1.2260055541992188,-2.1704025268554688
1772903226281599700,7.370599853515625,4.297396659851074,0.6452236175537109,-0.7600317001342773,-0.0238237269222736,-1.2235621213912964,-1.9425499439239504
1772903226300586200,7.389586181640625,4.565975189208984,0.5007048845291138,-0.2666177749633789,-0.0195476729422807,-1.4972295761108398,-1.6511675119400024
1772903226319572500,7.408572509765625,7.536248207092285,1.4603521823883057,-1.8340835571289065,0.1075121983885765,-1.9846997261047363,-0.9456186890602112
1772903226338559000,7.42755908203125,6.993093967437744,1.31140398979187,-1.6978425979614258,0.3029889166355133,-2.159406900405884,-0.4263836145401001
1772903226357545500,7.44654541015625,7.051668167114258,2.026084899902344,-1.5225248336791992,0.4856374859809875,-1.894291639328003,-0.0604756139218807
1772903226376531700,7.46553173828125,5.091443061828613,2.6241989135742188,-1.7020931243896484,0.6774490475654602,-1.0586286783218384,-0.0836884751915931
1772903226395518200,7.484518310546875,3.712969303131104,3.955875396728516,-1.456502914428711,0.9523382186889648,-0.1765399277210235,-0.3591884970664978
1772903226414504700,7.503504638671875,5.015119552612305,4.24806022644043,0.2673711776733398,0.9376774430274964,0.0342084281146526,-0.1802051067352295
1772903226433491000,7.522490966796875,5.204620838165283,4.313863754272461,1.4382953643798828,0.6841685771942139,-0.2241873741149902,0.2370155304670334
1772903226452477400,7.5414775390625,4.241635799407959,4.807574272155762,1.6450042724609375,0.3824013471603393,-0.4844157695770263,0.5577195286750793
1772903226471464000,7.5604638671875,2.767927646636963,5.137775897979736,1.6679000854492188,0.1056796088814735,-0.2809978127479553,0.5497782826423645
1772903226490450200,7.5794501953125,1.7887601852416992,5.170830249786377,1.6888551712036133,-0.0794124230742454,0.2156352698802948,0.328645259141922
1772903226509436700,7.598436767578125,1.5948877334594729,5.404026985168457,1.734379768371582,-0.2510654330253601,0.5797106623649597,0.1765399277210235
1772903226528423000,7.6174228515625,1.852217197418213,5.261956214904785,1.851640701293945,-0.4355465769767761,0.5980366468429565,0.1692095398902893
1772903226547409400,7.636409423828125,1.9420223236083984,4.86232328414917,2.2314281463623047,-0.6652317643165588,0.544891357421875,0.2437350451946258
1772903226566396000,7.65539599609375,1.7402520179748535,4.242725849151611,2.284088134765625,-0.8564324378967285,0.6114756464958191,0.3207040131092071
1772903226585382400,7.67438232421875,1.229021072387695,3.682178020477295,2.121744155883789,-1.0042617321014404,0.759304940700531,0.3518581092357635
1772903226604368600,7.69336865234375,0.8922762870788574,3.351580142974853,1.543940544128418,-1.1111630201339722,0.8399390578269958,0.3970620930194855
1772903226623355100,7.712355224609375,0.5530433654785156,2.452587604522705,1.1836671829223633,-1.1050543785095217,0.7238747477531433,0.4037816226482391
1772903226642341600,7.731341552734375,0.5611763000488281,1.3221803903579712,1.189687728881836,-0.9682206511497498,0.618806004524231,0.4043924808502197
1772903226661328000,7.750327880859375,0.9547057151794434,1.1557753086090088,1.8027591705322263,-0.9309579133987428,0.5442805290222168,0.4801397025585174
1772903226680314400,7.769314453125,0.9770946502685548,1.4737303256988523,2.372838020324707,-1.1148282289505005,0.5864301919937134,0.5668824911117554
1772903226699300600,7.788300537109375,0.142801284790039,0.8291074633598328,2.13284683227539,-1.3158026933670044,0.7067705392837524,0.5186241865158081
1772903226718287000,7.807287109375,-0.2541618347167969,0.0084291845560073,1.3207855224609375,-1.361006736755371,0.8313869833946228,0.4367683231830597
1772903226737273600,7.826273681640625,0.022493839263916,-0.5996230244636536,0.9975690841674804,-1.36772620677948,0.7764091491699219,0.4746419191360473
1772903226756260000,7.845260009765625,-0.0301780700683593,-1.2269654273986816,0.9259424209594728,-1.3683371543884275,0.6768381595611572,0.5571087002754211
1772903226775246300,7.864246337890625,-0.4444203376770019,-2.018638849258423,1.0371694564819336,-1.339626431465149,0.5711585879325867,0.5479456782341003
1772903226794232800,7.88323291015625,-0.9024043083190918,-2.828796863555908,1.340738296508789,-1.29503333568573,0.5766563415527344,0.3775144219398498
1772903226813219000,7.902218994140625,-0.8000507354736328,-3.282680034637451,1.5048813819885254,-1.2638791799545288,0.759304940700531,0.1795942485332489
1772903226832205600,7.92120556640625,-0.4780564308166504,-3.210329055786133,1.0999670028686523,-1.2461642026901243,0.962722897529602,0.0671951249241828
1772903226851192000,7.940192138671875,-0.4512319564819336,-3.051230430603028,0.5277323722839355,-1.2107340097427368,1.0390809774398804,0.0335975624620914
1772903226870178600,7.959178466796875,-0.8460502624511719,-3.4309582710266118,0.0164484977722167,-1.1136064529418943,1.0421353578567505,0.0122172953560948
1772903226889164800,7.978164794921875,-1.0626230239868164,-3.3607187271118164,-0.793889045715332,-0.9291253089904784,1.028085470199585,0.0268780495971441
1772903226908151300,7.9971513671875,-1.2625436782836914,-2.999985218048096,-1.193807601928711,-0.7391464114189148,0.9462295174598694,0.0733037739992141
1772903226927137500,8.016137451171875,-1.9069457054138184,-2.827221632003784,-1.1303458213806152,-0.6243038177490234,0.7929024696350098,0.0635299384593963
1772903226946124000,8.0351240234375,-2.4951014518737797,-2.717490196228028,-1.1606049537658691,-0.5467239618301392,0.637742817401886,-0.0250454563647508
1772903226965110500,8.054110595703126,-2.698641300201416,-2.6685402393341064,-1.4452810287475586,-0.4416552484035492,0.5009090900421143,-0.1350011229515075
1772903226984096800,8.0730966796875,-2.696738243103028,-2.757476806640625,-1.5821905136108398,-0.3158170878887176,0.3139844834804535,-0.2284634262323379
1772903227003083300,8.092083251953126,-2.5477852821350098,-2.9062905311584477,-1.556509017944336,-0.1600465774536132,0.2174678593873977,-0.3097084462642669
1772903227022069800,8.11106982421875,-2.207967758178711,-2.931821823120117,-1.4587888717651367,-0.0250454563647508,0.1728747338056564,-0.3390299379825592
1772903227041056000,8.130055908203126,-2.0677928924560547,-2.6666464805603027,-1.3972301483154297,0.0897971242666244,0.0549778304994106,-0.306043267250061
1772903227060042500,8.14904248046875,-2.113887310028076,-2.435292482376098,-1.254049301147461,0.1747073233127594,-0.0720820426940918,-0.2907716333866119
1772903227079028700,8.16802880859375,-2.015003204345703,-2.277241468429565,-1.1322565078735352,0.2724456787109375,-0.2046397030353546,-0.3139844834804535
1772903227098015200,8.18701513671875,-1.863444805145264,-2.0169460773468018,-1.0535945892333984,0.3988946974277496,-0.2993237376213074,-0.3811796307563782
1772903227117001700,8.206001708984376,-1.5347967147827148,-1.735142946243286,-0.7413511276245117,0.526565432548523,-0.3066541254520416,-0.4605920314788818
1772903227135988000,8.224988037109375,-1.1345067024230957,-1.3236156702041626,-0.3626189231872558,0.5974257588386536,-0.3341430425643921,-0.5119046568870544
1772903227154974500,8.243974365234376,-0.886512279510498,-0.9145167469978333,0.0612721443176269,0.5980366468429565,-0.3610210716724396,-0.5681042671203613
1772903227173961000,8.2629609375,-0.7645044326782227,-0.6493454575538635,0.2977919578552246,0.5766563415527344,-0.3194822669029236,-0.6786707639694214
1772903227192947200,8.281947265625,-0.358713150024414,-0.4284827709197998,0.5445842742919922,0.5436696410179138,-0.2272416949272155,-0.7935133576393127
1772903227211933700,8.30093359375,0.201207160949707,-0.2393039464950561,0.5185842514038086,0.5119046568870544,-0.1612683087587356,-0.8674280047416687
1772903227230920200,8.319920166015624,0.933049201965332,-0.0587388277053833,0.3039984703063965,0.5057960152626038,-0.1392771750688552,-0.8289434909820557
1772903227249906400,8.338906494140625,1.0856685638427734,-0.4118168354034424,0.418734073638916,0.500298261642456,-0.2755000293254852,-0.7788525819778442
1772903227268893000,8.357892822265624,0.8160576820373535,-1.0271520614624023,0.329409122467041,0.5564978122711182,-0.3280344009399414,-0.794124186038971
1772903227287879200,8.376879150390625,0.6493463516235352,-1.141667127609253,0.0030264854431152,0.6860011219978333,-0.3573558926582336,-0.8503237962722778
1772903227306865700,8.39586572265625,0.6334724426269531,-1.2563633918762207,-0.4050254821777344,0.908355951309204,-0.4233292937278747,-0.915686309337616
1772903227325852200,8.41485205078125,1.1143040657043457,-1.2067911624908447,-0.1496682167053222,1.1490366458892822,-0.5076286196708679,-0.896138608455658
1772903227344838400,8.43383837890625,1.6059794425964355,-0.7724335789680481,0.504094123840332,1.2064579725265503,-0.6823359727859497,-0.7635809779167175
1772903227363825000,8.452824951171875,1.7127666473388672,0.479147732257843,0.675074577331543,1.138651967048645,-0.758694052696228,-0.5876519083976746
1772903227382811100,8.47181103515625,1.3503727912902832,1.8557472229003904,0.5736165046691895,0.9847140312194824,-0.6078104376792908,-0.5021308660507202
1772903227401797600,8.490797607421875,0.7966456413269043,2.9736008644104004,0.3982353210449219,0.8301652073860168,-0.328645259141922,-0.5393936038017273
1772903227420784000,8.5097841796875,0.7190589904785156,3.327575922012329,0.1756057739257812,0.7177661061286926,-0.1282816082239151,-0.6139190793037415
1772903227439770400,8.528770263671875,1.380296230316162,3.2294578552246094,0.3551373481750488,0.6860011219978333,-0.119729496538639,-0.6029235124588013
1772903227458756900,8.5477568359375,2.2786359786987305,3.138108968734741,1.3888483047485352,0.5564978122711182,-0.2412915825843811,-0.4612029194831848
1772903227477743000,8.5667431640625,2.6233434677124023,3.1381676197052,2.538538932800293,0.287106454372406,-0.2693913578987121,-0.3396408259868622
1772903227496729600,8.5857294921875,2.673346519470215,3.0666608810424805,3.155907154083252,-0.0733037739992141,-0.0482583157718181,-0.3097084462642669
1772903227515716000,8.604716064453125,2.757188320159912,2.9665443897247314,2.999208927154541,-0.3903425931930542,0.2968802750110626,-0.3103193044662475
1772903227534702300,8.623702392578124,2.8210391998291016,2.820098400115967,2.458457946777344,-0.6316341757774353,0.5760455131530762,-0.2626718580722809
1772903227553688800,8.642688720703125,2.653111934661865,2.6241610050201416,1.7532172203063965,-0.8002328872680664,0.813671886920929,-0.1466075479984283
1772903227572675300,8.66167529296875,2.2817931175231934,2.2923152446746826,1.0612788200378418,-0.8698714375495911,1.0097594261169434,0.006719512399286
1772903227591661600,8.68066162109375,1.592139720916748,1.907632827758789,0.5703716278076172,-0.8655954003334045,1.0879502296447754,0.152716189622879
1772903227610648000,8.69964794921875,0.9194827079772948,1.5975384712219238,0.2485194206237793,-0.8344413042068481,1.0677915811538696,0.2675587832927704
1772903227629634300,8.71863427734375,0.4152960777282715,1.290675401687622,-0.1311454772949218,-0.7574723362922668,0.9682206511497498,0.3561341762542724
1772903227648620800,8.737620849609375,0.3267278671264648,1.1103620529174805,-0.04417085647583,-0.6707295179367065,0.8167262077331543,0.4459312856197357
1772903227667607300,8.756607177734375,0.3157973289489746,0.8975637555122375,0.0393309593200683,-0.62857985496521,0.7098248600959778,0.5277871489524841
1772903227686593500,8.775593505859375,0.3904948234558105,0.6585580110549927,0.1622934341430664,-0.5809323787689209,0.758694052696228,0.5687150955200195
1772903227705580000,8.794580078125,0.4409236907958984,0.5426005125045776,0.2751288414001465,-0.5290089249610901,1.0158681869506836,0.5907062292098999
1772903227724566300,8.813566162109375,0.2181892395019531,0.5816298127174377,0.0802888870239257,-0.4642572402954101,1.2217295169830322,0.6175842881202698
1772903227743552800,8.832552734375,-0.2572569847106933,0.7195820808410645,-0.2976655960083008,-0.407446801662445,1.2565488815307615,0.6554579138755798
1772903227762539300,8.851539306640625,-0.680997371673584,0.6745062470436096,-0.4035902023315429,-0.3512472510337829,1.1948515176773071,0.6633991599082947
1772903227781525500,8.870525390625,-0.8855280876159668,0.5279628038406372,-0.5367403030395508,-0.2510654330253601,1.0855066776275637,0.657290518283844
1772903227800512000,8.889511962890625,-0.9395785331726074,0.398603618144989,-0.4464764595031738,-0.152716189622879,0.9028581380844116,0.6536253094673157
1772903227819498200,8.908498291015626,-0.60430908203125,0.2443824708461761,-0.0563273429870605,-0.130114197731018,0.7599157691001892,0.6896663308143616
1772903227838484700,8.927484619140625,-0.1434278488159179,-0.1421751081943512,0.3220047950744629,-0.1441640853881836,0.6811142563819885,0.7959567904472351
1772903227857471200,8.94647119140625,-0.3507661819458008,-0.5106922388076782,0.6397781372070312,-0.1838703006505966,0.4740310609340668,0.8643736839294434
1772903227876457500,8.96545751953125,-1.114457130432129,-1.35595965385437,0.9559330940246582,-0.2406807243824005,0.0329866968095302,0.7831286191940308
1772903227895444000,8.98444384765625,-1.049635887145996,-1.7493946552276611,0.950453281402588,-0.2211330533027649,-0.2981020212173462,0.647516667842865
1772903227914430200,9.00343017578125,-0.4172878265380859,-1.813335657119751,1.1939411163330078,-0.2419024556875229,-0.4196641147136688,0.5027416944503784
1772903227933416700,9.022416748046876,-0.2083816528320312,-2.2445805072784424,1.179189682006836,-0.2712239623069763,-0.3182605504989624,0.3347539007663727
1772903227952403200,9.0414033203125,-0.3817605972290039,-2.726621627807617,0.8362574577331543,-0.2064722925424575,-0.0073303775861859,0.088575392961502
1772903227971389400,9.060389404296876,-0.0427942276000976,-2.5305771827697754,0.0094175338745117,-0.0403170771896839,0.4331031143665313,-0.0788015574216842
1772903227990376000,9.0793759765625,0.6182918548583984,-1.645871877670288,-0.9029092788696288,0.1453858166933059,0.6407971382141113,0.0244345907121896
1772903228009362200,9.098362060546876,0.5557222366333008,-1.0744284391403198,-1.2845172882080078,0.2522871494293213,0.4893026947975158,0.3536907136440277
1772903228028348700,9.1173486328125,-0.6024055480957031,-1.1060229539871216,-1.1830472946166992,0.2669478952884674,0.1154534444212913,0.647516667842865
1772903228047335000,9.1363349609375,-2.10701847076416,-1.5640006065368652,-0.951052188873291,0.2247982323169708,-0.2669478952884674,0.6914989352226257
1772903228066321400,9.1553212890625,-3.049983024597168,-1.8601858615875244,-0.8220362663269043,0.2040288299322128,-0.4935787320137024,0.4691441655158996
1772903228085308000,9.174307861328124,-3.0183725357055664,-1.973023056983948,-0.8409609794616699,0.2431241869926452,-0.5467239618301392,0.152716189622879
1772903228104294100,9.193294189453123,-2.241342544555664,-1.926791787147522,-0.6509809494018555,0.2669478952884674,-0.5907062292098999,-0.1411097645759582
1772903228123280600,9.21228076171875,-1.2153501510620115,-1.74986469745636,-0.0672731399536132,0.192422404885292,-0.5907062292098999,-0.3249800503253937
1772903228142267000,9.231266845703123,-0.3021812438964844,-1.5887048244476318,0.187171459197998,0.0299323741346597,-0.5082395076751709,-0.3573558926582336
1772903228161253400,9.25025341796875,0.3563494682312011,-1.5714035034179688,0.1069111824035644,-0.1209512278437614,-0.4214966893196106,-0.2712239623069763
1772903228180239600,9.269239501953123,0.5169191360473633,-1.6226907968521118,-0.2700324058532715,-0.1557705253362655,-0.3121519088745117,-0.1313359290361404
1772903228199226000,9.28822607421875,0.0970244407653808,-1.583881139755249,-0.8140072822570801,-0.0537560991942882,-0.2278525680303573,-0.0439822636544704
1772903228218212600,9.307212646484375,-0.5138907432556152,-1.3675241470336914,-1.2890000343322754,0.1136208474636077,-0.1918115466833114,-0.0390953458845615
1772903228237198800,9.32619873046875,-1.1310720443725586,-1.0229735374450684,-1.409238338470459,0.2626718580722809,-0.2474002391099929,-0.1172860413789749
1772903228256185300,9.345185302734375,-1.2383813858032229,-0.7769595980644226,-1.2694354057312012,0.3616319596767425,-0.3463603258132934,-0.1948658674955368
1772903228275171600,9.364171630859374,-1.1215763092041016,-0.6802350282669067,-1.1600213050842283,0.4379900395870209,-0.5332849621772766,-0.2309068888425827
1772903228294158000,9.383157958984375,-0.779259204864502,-0.6211823225021362,-1.0722193717956543,0.5149590373039246,-0.7409789562225342,-0.2083048969507217
1772903228313144600,9.40214453125,-0.3628067970275879,-0.7356160879135132,-0.7717471122741699,0.5839866995811462,-0.8197805285453796,-0.1417206227779388
1772903228332130800,9.421130859375,-0.2324628829956054,-0.901942491531372,-0.3843145370483398,0.6114756464958191,-0.7929024696350098,-0.0928514450788497
1772903228351117300,9.440117431640624,-0.5184216499328613,-1.0886446237564087,-0.2808752059936523,0.6359102129936218,-0.7226530313491821,-0.098960094153881
1772903228370103600,9.459103515625,-0.8235650062561035,-1.166256308555603,-0.2290172576904297,0.6511818766593933,-0.6646208763122559,-0.1337793916463852
1772903228389090000,9.478090087890624,-0.8600139617919922,-1.0272202491760254,-0.3828568458557129,0.6524035930633545,-0.6224712133407593,-0.1221729591488838
1772903228408076300,9.497076171875,-0.7102627754211426,-0.9180437922477722,-0.6304564476013184,0.6701186895370483,-0.6786707639694214,-0.0733037739992141
1772903228427062800,9.516062744140624,-0.4105758666992187,-0.6881717443466187,-0.7905149459838867,0.7055488228797913,-0.9266818761825562,0.0054977829568088
1772903228446049300,9.53504931640625,-0.4863710403442383,-0.7100012898445129,-0.7078337669372559,0.7739656567573547,-1.2345577478408811,0.10934479534626
1772903228465035500,9.554035400390624,-0.7271699905395508,-0.7714070677757263,-0.6954345703125,0.8747583627700806,-1.4605777263641355,0.1899789422750473
1772903228484021800,9.573021728515624,-0.6775131225585938,-0.5512085556983948,-0.8310685157775879,1.053741693496704,-1.6035200357437134,0.2345720827579498
1772903228503008300,9.59200830078125,-0.3924856185913086,-0.0061123371124267,-0.7939310073852539,1.3188570737838743,-1.630398154258728,0.1795942485332489
1772903228521994800,9.610994873046875,0.0893330574035644,0.76670241355896,-0.3675594329833984,1.554650902748108,-1.4355322122573853,0.0317649692296981
1772903228540981000,9.62998095703125,0.7655415534973145,1.4669218063354492,0.6911435127258301,1.693317174911499,-1.046411395072937,-0.0855210721492767
1772903228559967500,9.648967529296876,1.220914363861084,2.032858371734619,2.044506549835205,1.674991250038147,-0.7226530313491821,-0.131946787238121
1772903228578953700,9.66795361328125,1.4514045715332031,1.9184355735778809,2.9581689834594727,1.5992439985275269,-0.971885859966278,-0.235793799161911
1772903228597940200,9.686940185546876,2.4171032905578613,2.2015624046325684,3.8513879776000977,1.4813470840454102,-1.0696241855621338,-0.3005454838275909
1772903228616926500,9.705926513671876,3.3480467796325684,2.538760185241699,4.778141975402832,1.1924080848693848,-0.7965676784515381,-0.3084867000579834
1772903228635913000,9.724912841796876,4.016794204711914,3.1582260131835938,4.562679290771484,0.8857539296150208,-0.4190532267093658,-0.2376264035701751
1772903228654899500,9.7438994140625,4.305698871612549,3.936182975769043,3.552288055419922,0.6780598759651184,-0.0684168562293052,-0.0244345907121896
1772903228673885700,9.7628857421875,4.01773738861084,4.711015701293945,3.109734535217285,0.3646862804889679,0.0103847011923789,0.2822195291519165
1772903228692872200,9.7818720703125,3.313109874725342,5.159348011016846,2.670212745666504,-0.0910188555717468,-0.0482583157718181,0.5619956254959106
1772903228711858400,9.8008583984375,2.264162063598633,4.535096645355225,1.912571907043457,-0.4728093445301056,-0.0836884751915931,0.6719512343406677
1772903228730845000,9.819844970703125,1.5073766708374023,3.1441650390625,1.2297124862670898,-0.6212494969367981,-0.0561995580792427,0.5803215503692627
1772903228749831200,9.8388310546875,1.7483234405517578,2.0716443061828613,1.029026985168457,-0.6236929297447205,0.1692095398902893,0.4495964646339416
1772903228768817700,9.857817626953125,2.2942981719970703,1.4731266498565674,1.2157354354858398,-0.6597339510917664,0.5064069032669067,0.4001164436340332
1772903228787804000,9.876803955078126,2.733993530273437,1.0530521869659424,1.235219955444336,-0.7629700899124146,0.7819069027900696,0.4520399272441864
1772903228806790400,9.895790283203125,2.6755857467651367,0.685073971748352,0.8110265731811523,-0.8381064534187317,0.988990068435669,0.5528326034545898
1772903228825777000,9.91477685546875,2.506864547729492,0.245137870311737,0.3581371307373047,-0.8387173414230347,1.0885610580444336,0.685390293598175
1772903228844763100,9.93376318359375,2.1341891288757324,-0.0330453515052795,-0.0304665565490722,-0.8289434909820557,0.9841031432151794,0.8484911918640137
1772903228863749400,9.952749267578126,1.6188139915466309,-0.3464607298374176,-0.1277041435241699,-0.8093958497047424,0.9120211005210876,1.0012073516845703
1772903228882735900,9.97173583984375,0.7769780158996582,-0.7105347514152527,-0.2075281143188476,-0.7819069027900696,0.9474512934684752,1.053741693496704
1772903228901722400,9.990722412109376,0.2789487838745117,-1.018337607383728,-0.3481087684631347,-0.7244856357574463,1.0274745225906372,1.0341941118240356
1772903228920708600,10.00970849609375,0.2507390975952148,-1.3430896997451782,-0.1906571388244629,-0.6713404059410095,1.0989457368850708,1.0439679622650146
1772903228939695000,10.028695068359376,0.1231365203857421,-1.643484354019165,-0.0190658569335937,-0.665842592716217,1.0702351331710815,1.0885610580444336
1772903228958681300,10.047681396484377,-0.2992730140686035,-1.8471671342849727,0.0516161918640136,-0.6988292932510376,0.9541707634925842,1.1209368705749512
1772903228977667800,10.066667724609376,-0.7254042625427246,-1.969203233718872,-0.3003797531127929,-0.6957749724388123,0.8717040419578552,1.08978271484375
1772903228996654000,10.085654052734377,-1.033214092254639,-2.0511693954467773,-0.6580185890197754,-0.618806004524231,0.8368847370147705,1.003650784492493
1772903229015640600,10.104640625,-1.1830096244812012,-2.150092840194702,-0.7388339042663574,-0.5283980369567871,0.8454368710517883,0.8998038172721863
1772903229034626800,10.123626708984377,-1.1082773208618164,-2.2728464603424072,-0.6381955146789551,-0.4471530318260193,0.905912458896637,0.8405499458312988
1772903229053613300,10.14261328125,-1.077479362487793,-2.333238124847412,-0.4853696823120117,-0.4092794060707092,0.998763918876648,0.8271108865737915
1772903229072599800,10.161599853515623,-1.3837742805480957,-2.3813955783843994,-0.7329349517822266,-0.3860665261745453,0.9560033679008484,0.831997811794281
1772903229091586000,10.1805859375,-1.7411704063415527,-2.397156238555908,-1.2376222610473633,-0.3035998046398163,0.8558215498924255,0.842382550239563
1772903229110572300,10.199572265625,-1.9890546798706052,-2.5558226108551025,-1.5447182655334473,-0.1557705253362655,0.740368127822876,0.8277217745780945
1772903229129558800,10.218558837890624,-2.18845272064209,-2.5046932697296143,-1.4919829368591309,-0.0006108647794462,0.6438514590263367,0.7800742983818054
1772903229148545000,10.237544921875,-2.207317352294922,-2.4752588272094727,-1.246321201324463,0.1453858166933059,0.5784889459609985,0.7104357481002808
1772903229167531500,10.256531494140624,-1.8994407653808596,-2.4799156188964844,-1.0350098609924316,0.2663370370864868,0.4630354940891266,0.6688969135284424
1772903229186518000,10.27551806640625,-1.9576048851013184,-3.240574598312378,-0.0460004806518554,0.3433060050010681,0.1136208474636077,0.5558869242668152
1772903229205504300,10.294504150390624,-1.800644874572754,-4.070148468017578,0.8228440284729004,0.4654789566993713,-0.2168570011854171,0.3341430425643921
1772903229224490800,10.31349072265625,-0.6293721199035645,-3.699486494064331,0.7809834480285645,0.6426297426223755,-0.2003636509180069,0.1930332630872726
1772903229243477000,10.33247705078125,0.264650821685791,-2.964954376220703,1.089278221130371,0.6884446144104004,-0.1728747338056564,0.1368337124586105
1772903229262463200,10.351463134765623,0.1496691703796386,-3.0716195106506348,1.3535828590393066,0.5674933791160583,-0.1710421442985534,0.0042760535143315
1772903229281449700,10.37044970703125,0.1430692672729492,-2.829187631607056,0.456519603729248,0.5351175665855408,-0.0543669648468494,-0.1172860413789749
1772903229300436200,10.389436279296875,0.4285397529602051,-2.1572396755218506,-0.6123433113098145,0.5766563415527344,0.0335975624620914,-0.1203403621912002
1772903229319422500,10.40842236328125,0.3157882690429687,-1.7255332469940186,-1.1246700286865234,0.646905779838562,0.0128281600773334,-0.0348192937672138
1772903229338409000,10.427408935546875,-0.3747482299804687,-2.28588342666626,-0.882784366607666,0.7269290685653687,-0.1466075479984283,0.0085521070286631
1772903229357395200,10.446395263671874,-0.7252182960510254,-2.415724754333496,-0.8244867324829102,0.7605266571044922,-0.4178315103054046,0.0280997790396213
1772903229376381400,10.46538134765625,-0.8106379508972168,-2.210669994354248,-0.8353915214538574,0.7935133576393127,-0.648127555847168,0.0555886961519718
1772903229395368000,10.484367919921874,-1.0611076354980469,-2.3586790561676025,-0.4730982780456543,0.8020654320716858,-0.7238747477531433,0.0036651887930929
1772903229414354400,10.5033544921875,-1.070314884185791,-2.476139545440674,-0.4006514549255371,0.8008437156677246,-0.6963858604431152,-0.0812450125813484
1772903229433340700,10.522340576171874,-1.2209725379943848,-2.4146523475646973,-0.8600983619689941,0.8839213252067566,-0.6933315396308899,-0.1496618688106537
1772903229452327200,10.5413271484375,-1.1790976524353027,-2.2049241065979004,-1.4151558876037598,1.0653481483459473,-0.8185588121414185,-0.1728747338056564
1772903229471313400,10.5603134765625,-0.8989706039428711,-1.8793833255767824,-1.324791431427002,1.2675443887710571,-1.0317505598068235,-0.1160643100738525
1772903229490300000,10.5792998046875,-0.9481830596923828,-1.6739637851715088,-0.3700475692749023,1.3261874914169312,-1.2058470249176023,-0.0794124230742454
1772903229509286100,10.5982861328125,-1.2436537742614746,-1.4284684658050537,0.1908564567565918,1.293811559677124,-1.237612009048462,-0.1667660921812057
1772903229528272400,10.6172724609375,-1.4752378463745115,-1.1302777528762815,0.1543478965759277,1.2858703136444092,-1.1380411386489868,-0.3933969140052795
1772903229547259000,10.6362587890625,-1.1391472816467283,-0.7954617142677307,-0.0980725288391113,1.313359260559082,-0.9572250843048096,-0.648127555847168
1772903229566245400,10.655245361328124,-0.1894688606262207,-0.3957321643829345,-0.2302851676940918,1.3762784004211426,-0.8808670043945312,-0.7990111112594604
1772903229585231600,10.674231689453125,0.8799800872802734,-0.0179134607315063,-0.1453619003295898,1.4104868173599243,-1.0213658809661863,-0.7904590368270874
1772903229604218000,10.693218017578126,1.6524834632873535,0.4573636054992676,0.1278347969055175,1.3768892288208008,-1.1630865335464478,-0.6774490475654602
1772903229623204400,10.712204345703125,2.1492652893066406,0.9743855595588684,0.0611672401428222,1.3377938270568848,-1.2803726196289062,-0.5400044918060303
1772903229642190800,10.73119091796875,2.791700839996338,1.5459368228912354,0.0031652450561523,1.323133111000061,-1.3909391164779663,-0.3665188550949096
1772903229661177000,10.750177001953125,3.155302047729492,2.022688865661621,0.4982557296752929,1.2608249187469482,-1.4172062873840332,-0.2076940238475799
1772903229680163300,10.769163330078126,3.2396059036254883,2.450756072998047,0.9662075042724608,1.1252129077911377,-1.4269801378250122,-0.1172860413789749
1772903229699149800,10.78814990234375,3.465207099914551,2.901564121246338,1.260310173034668,0.9285144805908204,-1.3842196464538574,-0.0690277218818664
1772903229718136300,10.80713623046875,3.843757152557373,3.128146171569824,1.534621238708496,0.7092140316963196,-1.163697361946106,-0.0091629717499017
1772903229737122600,10.82612255859375,4.022478103637695,3.208049774169922,1.6575136184692385,0.5161807537078857,-0.7910698652267456,0.036651886999607
1772903229756109000,10.845109130859376,3.822926998138428,3.186940193176269,1.3791561126708984,0.3622428178787231,-0.4153880476951599,0.0397062115371227
1772903229775095300,10.86409521484375,3.629927635192871,3.2759270668029785,0.8191461563110352,0.2095266133546829,-0.1441640853881836,0.0641408041119575
1772903229794081800,10.883081787109376,3.4758005142211914,3.2511391639709477,0.4775276184082031,0.0757472291588783,0.0268780495971441,0.1313359290361404
1772903229813068000,10.902068115234377,3.293125629425049,3.1258668899536133,0.5491790771484375,-0.0824667438864708,0.1166751757264137,0.2205221801996231
1772903229832054300,10.92105419921875,3.0318827629089355,2.7286691665649414,0.5605621337890625,-0.2467893660068512,0.0360410213470459,0.2907716333866119
1772903229851040800,10.940040771484377,3.114355087280273,2.135539531707764,0.4565687179565429,-0.3463603258132934,-0.0238237269222736,0.3414734005928039
1772903229870027000,10.959027099609376,3.239363193511963,1.7028148174285889,0.4167518615722656,-0.4080576598644256,0.0616973415017128,0.370184063911438
1772903229889013500,10.978013427734377,3.1835293769836426,1.4529531002044678,0.4585161209106445,-0.4318813979625702,0.407446801662445,0.4153880476951599
1772903229907999700,10.996999755859376,3.07656478881836,1.006511926651001,0.1679306030273437,-0.4062250852584839,0.6304124593734741,0.5082395076751709
1772903229926986200,11.015986328125,3.080739021301269,0.8905336856842041,-0.2489442825317382,-0.3347539007663727,0.3714057803153991,0.685390293598175
1772903229945972500,11.034972412109376,3.1304211616516118,0.6480754613876343,0.3739433288574219,-0.2797760665416717,-0.0232128612697124,0.8747583627700806
1772903229964959000,11.053958984375,2.996145725250244,0.2748825550079345,1.507732391357422,-0.3878991305828094,-0.2144135385751724,0.9743293523788452
1772903229983945200,11.0729453125,2.881781578063965,0.3794175982475281,1.8255014419555664,-0.6071996092796326,-0.0189368072897195,1.003650784492493
1772903230002931500,11.091931396484377,2.311851024627685,0.5223543047904968,1.3339223861694336,-0.8093958497047424,0.5558869242668152,0.9743293523788452
1772903230021918000,11.11091796875,1.2949981689453125,0.1833782196044922,0.6205615997314453,-0.9217949509620668,1.062904715538025,0.9132428169250488
1772903230040904400,11.129904541015623,0.4494390487670898,-0.4726633429527282,-0.2058057785034179,-0.8637627959251404,1.211344838142395,0.9004147052764893
1772903230059890700,11.148890625,0.4921798706054687,-0.869010329246521,-0.8034687042236328,-0.6548470258712769,1.0604612827301023,1.0574069023132324
1772903230078877200,11.167877197265623,0.4506521224975586,-0.8577588200569153,-0.7087116241455078,-0.4886918365955353,0.831997811794281,1.303585410118103
1772903230097863400,11.186863525390624,-0.1096725463867187,-0.8937098383903503,-0.21024751663208,-0.4440986812114715,0.6731730103492737,1.4556907415390017
1772903230116849700,11.205849609375,-0.6587038040161133,-1.1150797605514526,-0.2162866592407226,-0.4001164436340332,0.5326740741729736,1.4819579124450684
1772903230135836200,11.224836181640624,-0.812408447265625,-1.4236379861831665,-0.2690682411193847,-0.2999345958232879,0.4373791813850403,1.452636480331421
1772903230154822400,11.243822509765623,-0.6039233207702637,-1.6403367519378662,-0.2464523315429687,-0.1692095398902893,0.3744601011276245,1.4343105554580688
1772903230173809000,11.262808837890624,-0.4244861602783203,-1.5833625793457031,0.0767793655395507,-0.0690277218818664,0.3274235129356384,1.453247308731079
1772903230192795100,11.281795166015623,-0.441162109375,-1.6965577602386477,0.5058045387268066,-0.0464257225394248,0.2083048969507217,1.4605777263641355
1772903230211781600,11.30078173828125,-0.3747849464416504,-1.5857279300689695,0.4142169952392578,-0.0256563201546669,0.0250454563647508,1.4459168910980225
1772903230230767900,11.319767822265623,-0.6047878265380859,-1.383397936820984,0.6662082672119141,-0.0293215103447437,-0.0421496704220771,1.3671153783798218
1772903230249754400,11.33875439453125,-1.1046061515808103,-1.323702335357666,1.195110321044922,-0.1258381456136703,0.0824667438864708,1.1520910263061523
1772903230268740600,11.35774072265625,-1.3551254272460938,-1.5390018224716189,1.230766773223877,-0.2553414702415466,0.3573558926582336,0.9028581380844116
1772903230287727000,11.37672705078125,-1.2487282752990725,-1.7265183925628662,0.3987059593200683,-0.2944368124008178,0.6053670048713684,0.7226530313491821
1772903230306713300,11.39571337890625,-0.9809813499450684,-1.8920016288757324,-0.4853534698486328,-0.1991419196128845,0.6896663308143616,0.6707295179367065
1772903230325699600,11.414699462890624,-0.9173650741577148,-2.210800170898437,-0.6131687164306641,-0.0879645273089408,0.6298015713691711,0.7238747477531433
1772903230344686000,11.43368603515625,-1.1687707901000977,-2.416693687438965,-0.536224365234375,-0.0183259434998035,0.4886918365955353,0.8069523572921753
1772903230363672300,11.45267236328125,-1.5912604331970217,-2.412837028503418,-0.5506391525268555,0.0287106446921825,0.3384190797805786,0.8356630206108093
1772903230382658800,11.471658935546875,-2.178955554962158,-2.339282512664795,-0.7512454986572266,0.0855210721492767,0.2180787324905395,0.7385355234146118
1772903230401645000,11.49064501953125,-2.307746410369873,-2.3848910331726074,-0.8156394958496094,0.1753181964159011,0.1398880332708358,0.5772672295570374
1772903230420631600,11.509631591796875,-1.8787593841552732,-2.6134562492370605,-0.557551383972168,0.2852738499641418,0.1728747338056564,0.4520399272441864
1772903230439617800,11.52861767578125,-1.5050897598266602,-2.62873649597168,-0.2418975830078125,0.3903425931930542,0.1973093301057815,0.4239401519298553
1772903230458604300,11.547604248046875,-1.486095905303955,-2.41602635383606,0.0951085090637207,0.4202749729156494,0.1270598769187927,0.4386008977890014
1772903230477590500,11.566590576171874,-1.629103183746338,-2.1023616790771484,0.0289583206176757,0.4092794060707092,0.0311541035771369,0.3964512348175049
1772903230496576800,11.58557666015625,-1.6064352989196775,-1.6450430154800415,-0.3927164077758789,0.439822643995285,-0.0189368072897195,0.3109301626682281
1772903230515563300,11.604563232421874,-1.4878296852111816,-1.304370403289795,-0.7158985137939453,0.5119046568870544,0.0128281600773334,0.1960875988006591
1772903230534549500,11.623549560546875,-1.143167495727539,-0.9033511877059937,-0.6226034164428711,0.5815432667732239,0.1783725172281265,0.0806341543793678
1772903230553536000,11.642535888671874,-0.6148886680603027,-0.5121688842773438,-0.1575708389282226,0.5974257588386536,0.3268126547336578,0.0745255053043365
1772903230572522200,11.661522216796875,-0.4275074005126953,-0.1862921714782714,0.1955828666687011,0.5583304166793823,0.3225366175174713,0.1136208474636077
1772903230591508700,11.6805087890625,-0.6684951782226562,0.0426006317138671,0.2889666557312011,0.5320632457733154,0.2932150959968567,0.1001818254590034
1772903230610495000,11.699494873046875,-0.6420803070068359,0.1437091827392578,0.4720120429992676,0.4886918365955353,0.3084867000579834,-0.013439024798572
1772903230629481500,11.7184814453125,-0.6101393699645996,-0.1923996210098266,0.7892732620239258,0.5051851868629456,0.2168570011854171,-0.2351829409599304
1772903230648467700,11.7374677734375,-0.2890686988830566,-0.8489888310432434,1.350748062133789,0.6249146461486816,0.2535088956356048,-0.5320632457733154
1772903230667454000,11.756453857421874,1.380889892578125,0.1083635091781616,1.465862274169922,0.6994401812553406,0.7965676784515381,-0.5790998339653015
1772903230686440400,11.7754404296875,2.009485244750977,1.0051424503326416,1.7046213150024414,0.5338957905769348,1.1728603839874268,-0.4263836145401001
1772903230705426700,11.7944267578125,2.3633008003234863,1.444753885269165,1.1930570602416992,0.2987128794193268,0.7629700899124146,-0.1954767256975174
1772903230724413200,11.8134130859375,2.16426944732666,1.1629899740219116,0.6969285011291504,0.2138026654720306,0.2761108875274658,0.0342084281146526
1772903230743399400,11.8323994140625,1.4082717895507812,1.1042109727859497,0.5541009902954102,0.1875354945659637,-0.0555886961519718,0.098960094153881
1772903230762386000,11.851385986328124,0.4964456558227539,1.2547545433044434,0.9536786079406738,0.1099556609988212,-0.0867427960038185,-0.150883600115776
1772903230781372200,11.8703720703125,0.036201000213623,0.9072109460830688,1.456913948059082,-0.0592538826167583,0.4404335021972656,-0.4752528071403503
1772903230800358700,11.889358642578124,0.319066047668457,0.5216362476348877,1.0283927917480469,-0.171653002500534,1.0458004474639893,-0.5754346251487732
