time,seconds_elapsed,acc_z,acc_y,acc_x,gyro_z,gyro_y,gyro_x
1772903272209217500,0.133217529296875,0.3257813453674316,-0.2008273601531982,0.0108728408813476,0.1227838173508644,-1.0751219987869265,0.3903425931930542
1772903272228203500,0.15220361328125,0.7041125297546387,-0.1257789134979248,-0.4586977958679199,0.2315177470445633,-1.6517783403396606,0.5656607747077942
1772903272247189500,0.171189453125,0.5642070770263672,-0.0050420761108398,-0.3733649253845215,0.3066541254520416,-1.9987496137619016,0.8087849617004395
1772903272266175500,0.190175537109375,-0.387671947479248,0.0938978195190429,0.0048961639404296,0.2021962404251098,-2.070220708847046,0.8845322132110596
1772903272285161500,0.209161376953125,-1.3304939270019531,0.0265161991119384,-0.0249476432800292,0.1185077652335167,-2.182008981704712,0.7049379348754883
1772903272304147500,0.2281474609375,-1.0994338989257812,-0.1151425838470459,-0.4838943481445312,0.1814268380403518,-2.406196355819702,0.5039634704589844
1772903272323133400,0.247133544921875,-0.3672404289245605,-0.2700464725494385,-1.3772330284118652,0.4312705397605896,-2.6529858112335205,0.4214966893196106
1772903272342119400,0.266119384765625,0.5571894645690918,-0.4879782199859619,-1.7055597305297852,0.8014546036720276,-2.992015600204468,0.5051851868629456
1772903272361105200,0.285105224609375,0.94484281539917,-0.9665849208831788,-0.4261631965637207,1.061682939529419,-3.3573129177093506,0.6139190793037415
1772903272380091400,0.30409130859375,0.7144961357116699,-1.4335418939590454,0.5297727584838867,1.2400555610656738,-3.358534574508667,0.5913171172142029
1772903272399077000,0.3230771484375,0.4788262844085693,-1.3839309215545654,0.4969105720520019,1.4666863679885864,-3.112967014312744,0.4214966893196106
1772903272418063000,0.34206298828125,0.426166296005249,-0.8003894090652466,0.7696957588195801,1.6627739667892456,-3.0585999488830566,0.2095266133546829
1772903272437049000,0.361049072265625,1.1689338684082031,-0.476614236831665,1.8437252044677732,1.7525711059570312,-2.604116439819336,-0.0623082071542739
1772903272456035000,0.38003515625,0.1702699661254882,-0.244333267211914,2.822821617126465,1.750738501548767,-1.7342450618743896,-0.6273581385612488
1772903272475021000,0.39902099609375,-0.4410433769226074,0.3792017698287964,2.927156925201416,1.746462345123291,-0.8668171167373657,-1.3976585865020752
1772903272494007000,0.418007080078125,0.4682695865631103,0.9387906789779664,2.9586081504821777,1.7495167255401611,-0.3573558926582336,-1.981034517288208
1772903272512993000,0.436992919921875,2.5723350048065186,1.1699998378753662,3.06814193725586,1.654221773147583,-0.3817904889583587,-2.072664260864258
1772903272531979000,0.45597900390625,3.848230361938477,1.4093655347824097,2.4392733573913574,1.6499457359313965,-0.6401863098144531,-1.846033334732056
1772903272550965000,0.474965087890625,4.0048041343688965,1.6681807041168213,2.579090118408203,1.5650355815887451,-0.637742817401886,-1.4886775016784668
1772903272569951000,0.493950927734375,2.910301685333252,1.7547574043273926,2.17202091217041,1.4538581371307373,-0.5241219997406006,-1.3249657154083252
1772903272588936700,0.512936767578125,1.8310680389404297,2.759062528610229,1.2854795455932615,1.4862339496612549,-0.516791582107544,-1.515555500984192
1772903272607922700,0.531922607421875,1.4769814014434814,3.960041761398315,0.9292335510253906,1.563202977180481,-0.2119700759649276,-1.941939115524292
1772903272626908700,0.55090869140625,2.192915201187134,4.490581512451172,1.9999170303344729,1.5045599937438965,0.462424635887146,-2.2980732917785645
1772903272645894700,0.569894775390625,3.2772912979125977,4.353306770324707,3.2720890045166016,1.314581036567688,1.045189619064331,-2.34999680519104
1772903272664880600,0.588880615234375,3.860093116760254,4.180400848388672,3.309520721435547,1.1423171758651731,0.8478803038597107,-2.2956297397613525
1772903272683866600,0.60786669921875,4.435674667358398,4.26602029800415,3.1590633392333984,0.8521563410758972,-0.0195476729422807,-2.2082762718200684
1772903272702852600,0.6268525390625,4.069207191467285,4.525635719299316,2.2569618225097656,0.5369501113891602,-0.1233946830034256,-1.977980136871338
1772903272721838600,0.645838623046875,3.2535624504089355,4.555098056793213,1.4885797500610352,0.2553414702415466,0.3420842885971069,-1.824653148651123
1772903272740824300,0.66482421875,3.0731921195983887,4.597475051879883,0.948573112487793,0.1771507859230041,0.6163625717163086,-1.7776165008544922
1772903272759810600,0.683810546875,4.482567310333252,4.78620195388794,1.5475196838378906,0.1502727419137954,0.6976075768470764,-1.386052131652832
1772903272778796300,0.70279638671875,5.396515369415283,4.144787311553955,1.556269645690918,0.0317649692296981,0.5406153202056885,-0.7153226733207703
1772903272797782300,0.7217822265625,5.062365531921387,3.4935314655303955,1.5297555923461914,-0.1600465774536132,0.5656607747077942,0.0207694023847579
1772903272816768300,0.740768310546875,4.264659881591797,2.574836254119873,1.4210901260375977,-0.2932150959968567,0.3530798554420471,0.5784889459609985
1772903272835754200,0.759754150390625,3.133994579315185,2.036995649337769,1.382472038269043,-0.360410213470459,0.1991419196128845,0.8765909671783447
1772903272854740200,0.778740234375,2.237966060638428,1.7594261169433594,1.308450698852539,-0.3872882723808288,0.2278525680303573,0.9199623465538024
1772903272873726200,0.797726318359375,1.5902366638183594,1.890273094177246,1.200221061706543,-0.4245510101318359,0.4086685478687286,0.8112284541130066
1772903272892712200,0.816712158203125,1.0789871215820312,1.3548994064331057,1.114893913269043,-0.5082395076751709,0.6145299673080444,0.6774490475654602
1772903272911698200,0.8356982421875,0.7789087295532227,0.259377509355545,0.7022628784179688,-0.545502245426178,0.6194168925285339,0.5754346251487732
1772903272930684000,0.854683837890625,1.1148195266723633,-0.478190153837204,0.1818733215332031,-0.4612029194831848,0.4899135529994964,0.5955931544303894
1772903272949670000,0.873669921875,1.6633844375610352,-0.6278935074806213,0.2934675216674804,-0.3799578845500946,0.5204567909240723,0.729983389377594
1772903272968656000,0.89265576171875,1.7348670959472656,-0.6165778636932373,0.7595281600952148,-0.3995055556297302,0.8057306408882141,0.8539889454841614
1772903272987641900,0.911641845703125,1.394819259643555,-0.7967793941497803,0.7787342071533203,-0.4495964646339416,1.1013891696929932,0.9095776677131652
1772903273006627800,0.9306279296875,0.8943839073181152,-1.1489009857177734,0.4565000534057617,-0.4440986812114715,1.3158026933670044,0.9816597104072572
1772903273025613800,0.94961376953125,0.3482780456542969,-1.5495986938476562,0.0938329696655273,-0.3952295184135437,1.4385865926742554,1.0806198120117188
1772903273044599800,0.968599853515625,-0.1937065124511718,-1.918864727020264,-0.1008563041687011,-0.337808221578598,1.2980875968933103,1.1685843467712402
1772903273063585500,0.98758544921875,-0.7674703598022461,-2.1128478050231934,-0.0944585800170898,-0.3659079968929291,1.081230640411377,1.239444613456726
1772903273082571500,1.006571533203125,-1.1064586639404297,-2.371039867401123,-0.0373940467834472,-0.4239401519298553,0.905912458896637,1.2663227319717407
1772903273101557500,1.0255576171875,-1.508345603942871,-2.6603384017944336,-0.1219983100891113,-0.3976729810237884,0.794124186038971,1.232114315032959
1772903273120543500,1.04454345703125,-1.68768310546875,-2.8602466583251958,-0.088510513305664,-0.3213148713111877,0.7348703145980835,1.1349867582321167
1772903273139529500,1.063529541015625,-1.7586379051208496,-2.9592204093933105,-0.0563015937805175,-0.2651153206825256,0.6725621223449707,1.0122029781341553
1772903273158515500,1.082515380859375,-1.612645149230957,-2.97205114364624,-0.1426587104797363,-0.2437350451946258,0.6579013466835022,0.9095776677131652
1772903280506053400,8.430053466796876,1.8313407897949217,-1.503382921218872,1.3062477111816406,-1.288313865661621,0.1814268380403518,0.720820426940918
1772903280525039000,8.4490390625,2.322932243347168,-1.0997300148010254,1.7807106971740725,-1.3555089235305786,0.1081230640411377,0.758083164691925
1772903280544024800,8.46802490234375,1.637714385986328,-1.3237382173538208,1.8505492210388184,-1.5015056133270264,0.398283839225769,0.6432406306266785
1772903280563010600,8.487010498046875,1.041484832763672,-1.8863006830215452,1.1062273979187012,-1.5143338441848757,0.84177166223526,0.4996874034404754
1772903280581996500,8.50599658203125,0.692814826965332,-1.8816664218902588,-0.1023707389831543,-1.380554437637329,1.0684025287628174,0.535728394985199
1772903280600982300,8.524982177734374,-0.0697402954101562,-1.6605963706970217,-0.8160643577575684,-1.18446683883667,1.0775654315948486,0.6902772188186646
1772903280619968300,8.54396826171875,-0.9529109001159668,-1.4094302654266355,-1.123525619506836,-1.0048725605010986,0.9816597104072572,0.8772017955780029
1772903280638954000,8.5629541015625,-2.1614527702331543,-1.5911444425582886,-1.3194656372070312,-0.8045089244842529,0.758694052696228,0.9584468603134156
1772903280657939700,8.581939697265625,-2.8898372650146484,-1.986103057861328,-0.8680531978607178,-0.647516667842865,0.4324922561645508,0.916297197341919
1772903280676925400,8.600925537109376,-2.599423408508301,-2.380124568939209,-0.1887173652648925,-0.5204567909240723,0.1496618688106537,0.8197805285453796
1772903280695911400,8.619911376953125,-1.9761929512023928,-2.5985376834869385,0.7335219383239746,-0.4538725316524505,0.0549778304994106,0.6908880472183228
1772903280714897200,8.638897216796876,-1.505070686340332,-2.5437889099121094,1.4820456504821775,-0.4923570156097412,0.1050687432289123,0.5540543794631958
1772903280733883100,8.657883056640625,-1.6585359573364258,-2.424016237258911,1.5770339965820312,-0.5760455131530762,0.2522871494293213,0.3781253099441528
1772903280752868900,8.676868896484375,-1.6845636367797852,-2.5303871631622314,1.4614357948303225,-0.6334667801856995,0.4080576598644256,0.2052505612373352
1772903280771854600,8.6958544921875,-1.4248809814453125,-2.6691460609436035,1.0328645706176758,-0.6200277805328369,0.4477638900279999,0.1307250559329986
1772903280790840300,8.71484033203125,-1.363842487335205,-2.7288622856140137,0.8354225158691406,-0.5681042671203613,0.3927860558032989,0.1307250559329986
1772903280809826300,8.733826416015624,-1.846815586090088,-2.585456609725952,0.8970808982849121,-0.5314523577690125,0.2535088956356048,0.1014035567641258
1772903280828812000,8.75281201171875,-2.3513312339782715,-2.39696741104126,1.179410457611084,-0.5809323787689209,0.0934623107314109,0.0146607551723718
1772903280847797800,8.7717978515625,-2.5114970207214355,-2.414583683013916,1.2568082809448242,-0.6743947267532349,-0.0103847011923789,-0.1191186308860778
1772903280866783700,8.79078369140625,-2.385775566101074,-2.586188554763794,1.1313166618347168,-0.7415898442268372,-0.0500909127295017,-0.2608392536640167
1772903280885769500,8.80976953125,-2.2077078819274902,-2.652912378311157,0.9456562995910645,-0.767857015132904,-0.047036588191986,-0.3836230933666229
1772903280904755500,8.82875537109375,-2.0802855491638184,-2.6805338859558105,0.7188491821289062,-0.7672461867332458,-0.1087339296936988,-0.4752528071403503
1772903280923741200,8.8477412109375,-1.845993995666504,-2.63578724861145,0.592191219329834,-0.7806851863861084,-0.2864955961704254,-0.4984656572341919
1772903280942727000,8.866726806640624,-1.9772496223449707,-2.708604574203491,0.3107132911682129,-0.759304940700531,-0.4960221946239471,-0.5302306413650513
1772903280961712600,8.885712646484375,-1.993171215057373,-2.874290704727173,0.4470109939575195,-0.7141009569168091,-0.6420188546180725,-0.5888736248016357
1772903280980698600,8.90469873046875,-1.890614032745361,-2.8534672260284424,0.6232318878173828,-0.657290518283844,-0.5674933791160583,-0.647516667842865
1772903280999684400,8.923684326171875,-2.412250518798828,-2.7177164554595947,0.7622628211975098,-0.5980366468429565,-0.4196641147136688,-0.778241753578186
1772903281018670000,8.942670166015626,-2.5561323165893555,-2.689277172088623,1.170124053955078,-0.6102539300918579,-0.5955931544303894,-0.8808670043945312
1772903281037656000,8.961656005859375,-2.113090991973877,-2.776301383972168,1.71148681640625,-0.6902772188186646,-0.9107993841171264,-0.9114102721214294
1772903281056641800,8.980641845703126,-2.3326549530029297,-3.144529342651367,1.877741813659668,-0.7635809779167175,-0.9938769936561584,-1.064737319946289
1772903281075627500,8.99962744140625,-2.600560188293457,-3.392023801803589,1.917100429534912,-0.831997811794281,-0.8472694754600525,-1.377500057220459
1772903281094613500,9.018613525390624,-1.793294906616211,-3.398127555847168,1.8338088989257808,-0.8826996088027954,-0.5772672295570374,-1.6743803024291992
1772903281113599200,9.03759912109375,-0.8334345817565918,-3.282488346099853,1.7183523178100586,-0.9126319885253906,-0.3940077722072601,-1.882685303688049
1772903281132585000,9.0565849609375,0.2847633361816406,-2.801076889038086,1.4642677307128906,-0.91751891374588,-0.4440986812114715,-1.9211697578430176
1772903281151571000,9.075571044921874,1.0427541732788086,-2.434945583343506,1.3074498176574707,-0.8729257583618164,-0.4508182108402252,-1.868635416030884
1772903281170556700,9.094556640625,1.9040861129760744,-1.8191032409667969,1.4325265884399414,-0.8271108865737915,-0.2076940238475799,-1.7263038158416748
1772903281189542400,9.11354248046875,1.2158269882202148,-1.3189678192138672,1.2204017639160156,-0.8344413042068481,0.1453858166933059,-1.6701042652130127
1772903281208528400,9.1325283203125,0.220163345336914,-0.4790742993354797,0.8626313209533691,-0.9089667797088624,0.3524689674377441,-1.7256929874420166
1772903281227514000,9.15151416015625,-0.3026380538940429,0.0205053687095642,0.4296712875366211,-0.9853248596191406,0.3078758418560028,-1.8380920886993408
1772903281246499800,9.170499755859376,0.3357009887695312,0.1347879469394683,0.2269530296325683,-1.0372483730316162,0.1472184062004089,-1.862526655197144
1772903281265485600,9.189485595703124,1.0049104690551758,0.1285674273967743,0.1279263496398925,-1.0903936624526978,-0.0757472291588783,-1.8173227310180664
1772903281284471600,9.208471435546874,1.218740463256836,0.1615393459796905,0.0645308494567871,-1.1527018547058103,-0.2235765159130096,-1.8087706565856931
1772903281303457300,9.227457275390623,1.5418100357055664,0.2996583580970764,-0.1448807716369629,-1.2339468002319336,-0.2657261788845062,-1.812435746192932
1772903281322443000,9.246443115234374,1.848738670349121,0.4560999870300293,-0.5254578590393066,-1.316413640975952,-0.305432379245758,-1.7904446125030518
1772903281341429000,9.265428955078123,1.8941030502319336,0.6029484868049622,-1.037367820739746,-1.3909391164779663,-0.3842339515686035,-1.7421863079071045
1772903281360414700,9.284414794921876,1.5793228149414062,0.5319117903709412,-1.883897304534912,-1.3909391164779663,-0.4123337268829345,-1.746462345123291
1772903281379400400,9.303400390625,1.878859519958496,0.3427501916885376,-2.712362766265869,-1.2822052240371704,-0.4447095692157745,-1.7104213237762451
1772903281398386200,9.32238623046875,2.602799415588379,0.2257952690124511,-3.1716198921203613,-1.0965023040771484,-0.5864301919937134,-1.5485422611236572
1772903281417372200,9.3413720703125,2.622319221496582,0.4346177577972412,-2.9932961463928223,-0.9388991594314576,-0.7098248600959778,-1.387273907661438
1772903281436358000,9.36035791015625,2.02640151977539,0.7969754934310913,-2.5830202102661133,-0.8521563410758972,-0.6701186895370483,-1.3817760944366455
1772903281455343600,9.379343505859374,1.9805779457092283,1.165299415588379,-2.2523717880249023,-0.8185588121414185,-0.5155698657035828,-1.4208714962005615
1772903281474329600,9.39832958984375,2.187817096710205,1.5029946565628052,-2.149731159210205,-0.7733548283576965,-0.3628536760807037,-1.433699607849121
1772903281493315300,9.4173154296875,2.718562602996826,1.829375386238098,-2.3050594329833984,-0.6878337264060974,-0.2846629917621612,-1.3616175651550293
1772903281512301000,9.436301025390623,3.227397918701172,2.18972110748291,-2.197476863861084,-0.5668824911117554,-0.2926042377948761,-1.2070688009262085
1772903281531286800,9.455286865234376,3.3552565574646,2.555262565612793,-1.5476174354553225,-0.5180133581161499,-0.2767217457294464,-1.0378592014312744
1772903281550272500,9.4742724609375,3.0087103843688965,2.9570565223693848,-0.9548487663269044,-0.5387827157974243,-0.1838703006505966,-0.94439697265625
1772903281569258500,9.493258544921876,2.954868793487549,3.284413576126098,-0.5173215866088867,-0.5803215503692627,-0.0629190728068351,-0.8747583627700806
1772903281588244200,9.512244140625,2.837128162384033,3.415421962738037,-0.3243565559387207,-0.6316341757774353,0.0543669648468494,-0.7880155444145203
1772903281607230000,9.53122998046875,2.7346644401550293,3.3999552726745605,-0.3102478981018066,-0.6633991599082947,0.098960094153881,-0.6786707639694214
1772903281626216000,9.5502158203125,2.542465209960937,2.792057514190674,-0.2440075874328613,-0.6359102129936218,0.0433713980019092,-0.6206386089324951
1772903281645201700,9.56920166015625,3.429370403289795,2.6951675415039062,-0.0381965637207031,-0.5387827157974243,-0.0702494531869888,-0.4770853817462921
1772903281664187400,9.5881875,4.103351593017578,3.01942777633667,0.7236838340759277,-0.56382817029953,-0.0647516697645187,-0.2376264035701751
1772903281683173400,9.60717333984375,3.517192840576172,3.2475757598876958,0.8630466461181641,-0.6627882719039917,0.1105665266513824,-0.0763580948114395
1772903281702159000,9.6261591796875,2.7878494262695312,2.90737533569336,0.7431325912475586,-0.7574723362922668,0.2522871494293213,0.0091629717499017
1772903281721144800,9.645144775390625,2.7479209899902344,2.267097949981689,0.3621711730957031,-0.7764091491699219,0.2486219704151153,0.1398880332708358
1772903281740130600,9.664130615234376,2.7779688835144043,1.6595908403396606,0.1507172584533691,-0.739757239818573,0.1539379209280014,0.3243691921234131
1772903281759116300,9.6831162109375,2.2888054847717285,1.3571608066558838,0.1261906623840332,-0.7024945020675659,0.1472184062004089,0.4508182108402252
1772903281778102300,9.702102294921875,2.0074381828308105,1.2240633964538574,-0.0092482566833496,-0.6768381595611572,0.2034179717302322,0.5503891706466675
1772903281797088000,9.721087890625,1.922470569610596,1.0867927074432373,-0.0275444984436035,-0.6713404059410095,0.2412915825843811,0.7104357481002808
1772903281816073700,9.74007373046875,1.140878677368164,0.8906669616699219,-0.3245363235473633,-0.6340776681900024,0.263893574476242,0.8222240209579468
1772903281835059700,9.759059814453124,0.4856743812561035,0.5735372304916382,-0.5611782073974609,-0.5687150955200195,0.205861434340477,0.8943060636520386
1772903281854045400,9.77804541015625,0.5309381484985352,0.2419092357158661,-0.4870595932006836,-0.5051851868629456,-0.0189368072897195,1.0164790153503418
1772903281873031200,9.79703125,0.529914379119873,-0.2125968039035797,-0.0390915870666503,-0.4831940531730652,-0.2864955961704254,1.1252129077911377
1772903281892017000,9.816016845703125,0.2619938850402832,-0.5315905809402466,0.1988449096679687,-0.500298261642456,-0.4544833898544311,1.122769474983215
1772903281911002600,9.835002685546876,0.2556109428405761,-0.7870473861694336,0.4481077194213867,-0.5424479246139526,-0.3952295184135437,1.0341941118240356
1772903281929988600,9.853988525390625,0.5837793350219727,-1.0334548950195312,0.4121146202087402,-0.5784889459609985,-0.2046397030353546,0.981048822402954
1772903281948974300,9.872974365234375,0.6627120971679688,-1.2631466388702393,0.0940537452697753,-0.5864301919937134,-0.1912006735801696,0.998763918876648
1772903281967960000,9.8919599609375,0.495211124420166,-1.5180193185806274,0.2319483757019043,-0.6493492722511292,-0.3665188550949096,1.0470222234725952
1772903281986945800,9.91094580078125,-0.0813064575195312,-1.6400508880615234,0.0413441658020019,-0.7073814272880554,-0.5308414697647095,1.0189224481582642
1772903282005931800,9.929931884765624,-0.3564057350158691,-1.9712157249450684,-0.0251379013061523,-0.7703005075454712,-0.5522217750549316,0.9101884961128236
1772903282024917500,9.94891748046875,-0.4163289070129394,-2.223230361938477,-0.0560388565063476,-0.8283326625823975,-0.4459312856197357,0.7849612236022949
1772903282043903200,9.9679033203125,-0.4441981315612793,-2.428544044494629,-0.5069208145141602,-0.8222240209579468,-0.3121519088745117,0.6902772188186646
1772903282062889200,9.98688916015625,-0.5374751091003418,-2.581836700439453,-0.7401347160339355,-0.7788525819778442,-0.2858847081661224,0.6450732350349426
1772903282081875000,10.005875,-0.8583602905273438,-2.715191602706909,-0.8438820838928223,-0.7367029190063477,-0.3836230933666229,0.5754346251487732
1772903282100860700,10.024860595703124,-1.1419835090637207,-2.80208683013916,-0.4371724128723144,-0.7654135823249817,-0.4667007029056549,0.4679224193096161
1772903282119846400,10.043846435546875,-1.1747288703918457,-2.9450907707214355,-0.5227537155151367,-0.7525854110717773,-0.3127627670764923,0.3145953714847564
1772903282138832100,10.06283203125,-1.2945775985717771,-3.11039400100708,-0.9582295417785645,-0.648127555847168,-0.026267185807228,0.1563813835382461
1772903282157818000,10.081818115234377,-1.424471378326416,-2.9930977821350098,-1.2405638694763184,-0.5112938284873962,0.0977383628487587,0.0342084281146526
1772903282176803800,10.100803955078124,-1.16033935546875,-2.6868395805358887,-1.0340619087219238,-0.4459312856197357,-0.0054977829568088,0.0207694023847579
1772903282195789600,10.11978955078125,-1.591179370880127,-2.616217613220215,-1.0733351707458496,-0.3726275265216827,-0.1612683087587356,-0.0421496704220771
1772903282214775300,10.138775390625,-1.9329833984375,-2.6376376152038574,-0.5037026405334473,-0.3329212963581085,-0.3078758418560028,-0.1985310465097427
1772903282233761300,10.15776123046875,-1.7221336364746094,-2.622713088989258,0.1872587203979492,-0.3640754222869873,-0.3787361681461334,-0.4056142270565033
1772903282252747000,10.1767470703125,-1.2623610496520996,-2.5080342292785645,0.2199835777282714,-0.3836230933666229,-0.2596175372600555,-0.5992583632469177
1772903282271732700,10.195732666015624,-1.0276522636413574,-2.1411566734313965,0.0633182525634765,-0.3940077722072601,-0.0873536616563797,-0.7428115606307983
1772903282290718500,10.214718505859375,-1.0800414085388184,-1.7649799585342407,-0.1616768836975097,-0.407446801662445,-0.0397062115371227,-0.8356630206108093
1772903282309704200,10.2337041015625,-1.0357637405395508,-1.502846360206604,-0.0221400260925292,-0.4654789566993713,-0.0452039949595928,-0.8900299668312073
1772903282328690000,10.25268994140625,-1.299598217010498,-1.6537210941314695,-0.00421142578125,-0.4923570156097412,-0.0739146396517753,-1.0195332765579224
1772903282347676000,10.271676025390626,-1.0943312644958496,-1.9368860721588133,0.0256876945495605,-0.4471530318260193,-0.1594357043504715,-1.1685843467712402
1772903282366661600,10.29066162109375,-0.4344830513000488,-2.1059627532958984,0.1959466934204101,-0.3451386094093323,-0.2480110973119735,-1.2651009559631348
1772903282385647400,10.3096474609375,0.348299503326416,-1.856682062149048,0.5103240013122559,-0.2535088956356048,-0.2968802750110626,-1.278540015220642
1772903282404633000,10.328633056640625,0.7768831253051758,-1.1855645179748535,0.441873550415039,-0.192422404885292,-0.2437350451946258,-1.2052361965179443
1772903282423619000,10.347619140625,0.5651736259460449,-0.5310913324356079,0.307619571685791,-0.1966984570026397,-0.1710421442985534,-1.1129956245422363
1772903282442604800,10.366604736328124,-0.0194568634033203,-0.532096266746521,0.1596508026123047,-0.254730612039566,-0.1814268380403518,-1.0793980360031128
1772903282461590500,10.385590576171875,0.0332922935485839,-0.945029616355896,0.0857634544372558,-0.2516762912273407,-0.3213148713111877,-1.05496346950531
1772903282480576300,10.404576171875,0.5520462989807129,-1.2645938396453855,0.0334110260009765,-0.2138026654720306,-0.4422661066055298,-0.9486730098724364
1772903282499562000,10.42356201171875,0.5282073020935059,-1.359944462776184,0.1872601509094238,-0.1453858166933059,-0.5729911923408508,-0.8533781170845032
1772903282518548000,10.4425478515625,0.1651558876037597,-1.3023982048034668,0.1364378929138183,-0.1295033395290374,-0.675616443157196,-0.7965676784515381
1772903282537533700,10.46153369140625,-0.4621601104736328,-1.283245325088501,-0.4417505264282226,-0.067805990576744,-0.6908880472183228,-0.841160774230957
1772903282556519400,10.48051953125,-0.5149440765380859,-1.2540807723999023,-0.4918403625488281,0.0012217295588925,-0.6108647584915161,-0.907134175300598
1772903282575505200,10.499505126953125,-0.4003291130065918,-1.0152206420898438,-0.5138506889343262,0.0995709598064422,-0.5320632457733154,-0.932179629802704
1772903282594491000,10.518490966796875,-0.3973250389099121,-0.5424715280532837,-0.5091085433959961,0.1814268380403518,-0.5314523577690125,-0.9376774430274964
1772903282613476900,10.537476806640624,-0.3229508399963379,0.0144702196121215,-0.4066824913024902,0.1979201883077621,-0.6035344004631042,-0.9388991594314576
1772903282632462600,10.556462646484375,-0.0401811599731445,0.4374145269393921,-0.4232072830200195,0.2095266133546829,-0.7831286191940308,-0.908355951309204
1772903282651448300,10.5754482421875,0.4320759773254394,0.7537202835083008,-0.4067215919494629,0.2217439115047454,-1.0012073516845703,-0.8460476994514465
1772903282670434000,10.59443408203125,0.9047975540161132,1.1784701347351074,-0.2966256141662597,0.2541197538375854,-1.2718204259872437,-0.7470875978469849
1772903282689419800,10.613419677734376,0.4366564750671386,1.8338361978530884,-0.0144634246826171,0.2620609998703003,-1.2449424266815186,-0.7849612236022949
1772903282708405800,10.63240576171875,0.0367360115051269,2.581826448440552,0.1762123107910156,0.2223547846078872,-0.9669989347457886,-1.026863694190979
1772903282727391500,10.6513916015625,1.1632375717163086,3.154132604598999,0.8634653091430664,0.0946840420365333,-0.6053670048713684,-1.14659321308136
1772903282746377200,10.670377197265625,2.9824342727661133,3.611036777496338,1.6602115631103516,-0.268169641494751,-0.2309068888425827,-0.8747583627700806
1772903282765363000,10.689363037109375,3.646981239318848,4.031906604766846,1.6395912170410156,-0.7360920310020447,-0.2926042377948761,-0.4447095692157745
1772903282784348700,10.7083486328125,3.243182182312012,4.496644020080566,1.498366355895996,-1.2302817106246948,-0.401949018239975,-0.0415388047695159
1772903282803334400,10.72733447265625,1.8949365615844729,4.752520561218262,0.6296901702880859,-1.6120721101760864,-0.2913824915885925,0.1624900251626968
1772903282822320000,10.746320068359376,-1.760047197341919,3.790427923202514,-0.3124876022338867,-1.7812817096710205,0.8576541543006897,-0.1331685185432434
1772903282841306000,10.76530615234375,-1.3944063186645508,4.273125648498535,-0.4124698638916015,-1.7006475925445557,1.5790854692459106,-0.7513636946678162
1772903282860291800,10.784291748046876,0.5728373527526855,5.036651134490967,-0.7934746742248535,-1.4898991584777832,1.1820234060287476,-1.2596031427383425
1772903282879277600,10.803277587890625,2.231008529663086,4.963894844055176,-1.6746940612792969,-1.2162318229675293,0.6334667801856995,-1.082452416419983
1772903282898263300,10.82226318359375,3.333798408508301,4.803538799285889,-2.089325428009033,-0.8503237962722778,0.1295033395290374,-0.5296197533607483
1772903282917249000,10.8412490234375,3.921724319458008,4.412095546722412,-1.3193321228027344,-0.5051851868629456,0.1398880332708358,0.0226019974797964
1772903282936235000,10.860235107421875,2.9902920722961426,3.21865463256836,0.7416019439697266,-0.4673115611076355,0.4447095692157745,0.1979201883077621
1772903282955220700,10.879220703125,1.4456586837768557,2.4615731239318848,0.9512338638305664,-0.5064069032669067,0.6078104376792908,-0.0274889152497053
1772903282974206500,10.89820654296875,1.466376781463623,2.239706993103028,-0.1011919975280761,-0.2474002391099929,0.5980366468429565,-0.3011563420295715
1772903282993192200,10.917192138671876,4.003479957580566,2.446815252304077,0.756746768951416,-0.1484401375055313,0.657290518283844,-0.150883600115776
1772903283012178000,10.936177978515625,5.653705596923828,1.8883278369903564,2.5276379585266118,-0.4453204274177551,0.8148936033248901,0.3347539007663727
1772903283031164000,10.955163818359376,4.15595006942749,0.6946777105331421,2.285705089569092,-0.6627882719039917,1.1478148698806765,0.6151408553123474
1772903283050149600,10.974149658203125,2.7199454307556152,0.1971986293792724,1.1140036582946775,-0.593149721622467,1.4819579124450684,0.6322450637817383
1772903283069135400,10.99313525390625,2.3298726081848145,-0.0267399549484252,0.636019229888916,-0.4416552484035492,1.5876375436782837,0.627968966960907
1772903283088121000,11.01212109375,2.290170192718506,-0.1672759056091308,0.6993880271911621,-0.4080576598644256,1.461799383163452,0.8106175661087036
1772903283107106800,11.03110693359375,2.063896656036377,-0.3271362781524658,0.6253786087036133,-0.4233292937278747,1.412930250167847,1.0965023040771484
1772903283126092500,11.050092529296874,1.2107658386230469,-0.8757208585739136,0.3224759101867676,-0.3927860558032989,1.316413640975952,1.2803726196289062
1772903283145078300,11.069078369140623,0.2307276725769043,-1.499450922012329,0.1772403717041015,-0.2571740746498108,1.331074357032776,1.323133111000061
1772903283164064000,11.08806396484375,0.0970544815063476,-2.145693063735962,0.6537399291992188,-0.1258381456136703,1.3072506189346311,1.4013237953186035
1772903283183050000,11.107050048828125,-0.5452384948730469,-2.715665102005005,1.0787925720214844,-0.1624900251626968,1.0671807527542114,1.4715732336044312
1772903283202035700,11.12603564453125,-1.3774480819702148,-3.00573468208313,1.1373834609985352,-0.2614501118659973,0.7990111112594604,1.4110976457595823
1772903283221021400,11.145021484375,-2.168720245361328,-3.2408063411712646,0.7612028121948242,-0.2577849328517914,0.6218603253364563,1.1838558912277222
1772903283240007200,11.164007080078123,-1.906275749206543,-3.227015256881714,0.8612151145935059,-0.2235765159130096,0.5607738494873047,0.9407317638397216
1772903283258993000,11.182992919921874,-1.2179231643676758,-3.1919946670532227,1.1302337646484375,-0.2669478952884674,0.5210676789283752,0.7831286191940308
1772903283277978600,11.201978515625,-0.7158403396606445,-3.1791014671325684,1.0389342308044434,-0.3298669755458832,0.5308414697647095,0.7257073521614075
1772903283296964600,11.220964599609376,-0.8978381156921387,-3.300125360488892,0.65582275390625,-0.3591884970664978,0.5778780579566956,0.6750055551528931
1772903283315950300,11.239950439453125,-1.3261957168579102,-3.220473051071167,0.4266848564147949,-0.3714057803153991,0.5595521330833435,0.5583304166793823
1772903283334936000,11.25893603515625,-1.8794493675231931,-3.2812318801879883,-0.0963578224182128,-0.3298669755458832,0.4318813979625702,0.3915643095970154
1772903283353921800,11.277921875,-2.117227077484131,-3.2613236904144287,-0.5651226043701172,-0.2302960157394409,0.2327394783496856,0.2351829409599304
1772903283372907500,11.296907470703124,-2.051268577575684,-3.283008575439453,-0.50943922996521,-0.1490510106086731,0.0537560991942882,0.1172860413789749
1772903283391893200,11.315893310546874,-1.7322254180908203,-3.2516469955444336,-0.1321010589599609,-0.1331685185432434,-0.0555886961519718,0.0708603113889694
1772903283410879000,11.33487890625,-1.6029109954833984,-3.29341459274292,-0.0206990242004394,-0.1496618688106537,-0.1979201883077621,0.0671951249241828
1772903283429864700,11.35386474609375,-1.8357186317443848,-3.2222819328308105,-0.4546389579772949,-0.1014035567641258,-0.3762927055358886,0.0788015574216842
1772903283448850400,11.372850341796877,-1.895857334136963,-2.936648368835449,-0.8381648063659668,0.0042760535143315,-0.6334667801856995,0.0867427960038185
1772903283467836200,11.391836181640626,-1.8268165588378904,-2.5412745475769043,-0.2500123977661133,0.0128281600773334,-0.8191696405410767,0.0733037739992141
1772903283486822100,11.410822265625,-1.951589584350586,-2.2413105964660645,-0.0123958587646484,-0.015882484614849,-0.8680388331413269,-0.0097738364711403
1772903283505808000,11.429807861328126,-2.122037887573242,-1.9292484521865845,-0.0995259284973144,-0.0073303775861859,-0.8185588121414185,-0.2144135385751724
1772903283524793600,11.448793701171876,-1.3979640007019043,-1.4138844013214111,0.1106119155883789,0.0458148568868637,-0.6462949514389038,-0.4086685478687286
1772903283543779300,11.467779296875,-1.496535301208496,-1.8755624294281008,1.2307920455932615,0.0519235059618949,-0.5143481492996216,-0.6120865345001221
1772903283562765000,11.48676513671875,-1.444730281829834,-1.8663904666900637,1.559830665588379,0.0433713980019092,-0.554665207862854,-0.90652334690094
1772903283581750800,11.505750732421877,-0.1752595901489257,-1.1014714241027832,0.9174861907958984,0.0219911318272352,-0.646905779838562,-1.1716386079788208
1772903283600736500,11.524736572265626,1.400949001312256,-0.22540283203125,0.2414197921752929,0.0213802680373191,-0.4257727563381195,-1.2638791799545288
1772903283619722200,11.54372216796875,1.6458983421325684,-0.2223925590515136,0.1590814590454101,0.057421289384365,0.0818558782339096,-1.1704169511795044
1772903283638708200,11.562708251953126,1.5699114799499512,-0.1362402439117431,0.1491241455078125,0.1343902498483657,0.370184063911438,-0.9944878816604614
1772903283657694000,11.58169384765625,1.556455135345459,0.4258689880371094,-0.38507080078125,0.2504545450210571,0.3585776388645172,-0.7635809779167175
1772903283676679700,11.6006796875,1.7986702919006348,0.9270083904266356,-0.4405674934387207,0.3139844834804535,0.0598647482693195,-0.4367683231830597
1772903283695665400,11.61966552734375,1.9742074012756348,1.504055738449097,0.6138162612915039,0.1209512278437614,-0.3549124300479889,-0.2486219704151153
1772903283714651100,11.638651123046875,1.0624337196350098,1.3557641506195068,0.7673611640930176,0.0006108647794462,-0.164322629570961,-0.2797760665416717
1772903283733636900,11.657636962890624,0.2691798210144043,1.168124437332153,0.318448543548584,-0.0042760535143315,0.1673769503831863,-0.5161807537078857
1772903283752622600,11.67662255859375,0.0988330841064453,0.9919276237487792,-0.2726445198059082,0.0665842592716217,0.3988946974277496,-0.6896663308143616
1772903283771608300,11.6956083984375,0.5314340591430664,0.8214263916015625,-0.5917911529541016,0.0983492285013198,0.3830122053623199,-0.6579013466835022
