time,seconds_elapsed,acc_z,acc_y,acc_x,gyro_z,gyro_y,gyro_x
1772903299083520800,1.828520751953125,-0.1275711059570312,3.9407951831817623,2.7841796875,-0.2889390289783478,0.2101374864578247,0.1075121983885765
1772903299102506200,1.84750634765625,-0.036475658416748,3.5787670612335205,3.009704113006592,-0.5076286196708679,0.2632827162742615,0.0445931293070316
1772903299121492000,1.866491943359375,0.1499333381652832,3.0961599349975586,2.918412208557129,-0.6908880472183228,0.3628536760807037,0.0036651887930929
1772903299140477400,1.8854775390625,0.2477293014526367,2.71125602722168,2.7628965377807617,-0.8717040419578552,0.4422661066055298,0.0
1772903299159463000,1.904462890625,0.1758232116699218,2.3619868755340576,2.307723045349121,-1.0323615074157717,0.4917461574077606,0.0152716198936104
1772903299178448400,1.923448486328125,0.0962758064270019,1.9526705741882324,1.8616676330566408,-1.1380411386489868,0.5387827157974243,0.0458148568868637
1772903299197434000,1.94243408203125,0.0551977157592773,1.4764719009399414,1.366654396057129,-1.1716386079788208,0.5283980369567871,0.1166751757264137
1772903299216419600,1.961419677734375,-0.0012087821960449,1.0478026866912842,1.1429052352905271,-1.1588104963302612,0.42088583111763,0.2315177470445633
1772903299235405000,1.980405029296875,-0.0309228897094726,0.6800680160522461,1.2584543228149414,-1.1728603839874268,0.2486219704151153,0.3732383847236633
1772903299254390500,1.999390625,-0.2603025436401367,0.3270301818847656,1.1364679336547852,-1.1820234060287476,0.1007926911115646,0.4856374859809875
1772903299273376300,2.018376220703125,-0.4492769241333008,0.023938775062561,0.9685258865356444,-1.1728603839874268,0.0397062115371227,0.555276095867157
1772903299292361700,2.03736181640625,-0.7510166168212891,-0.5746722221374512,1.176523208618164,-1.1398736238479614,-0.0586430206894874,0.5326740741729736
1772903299311347200,2.05634716796875,-1.1345529556274414,-1.84631872177124,1.6309232711791992,-0.9010255336761476,-0.1783725172281265,0.398283839225769
1772903299330333000,2.0753330078125,-0.6174921989440918,-2.0584845542907715,2.050929069519043,-0.5962040424346924,-0.1258381456136703,0.3347539007663727
1772903299349318400,2.094318359375,0.029430866241455,-1.110093116760254,2.9964466094970703,-0.6505709886550903,-0.1264490038156509,0.3439168632030487
1772903299368303900,2.113303955078125,-0.3386359214782715,-0.416037917137146,3.495340347290039,-1.007315993309021,-0.0171042140573263,0.2559523284435272
1772903299387289600,2.13228955078125,-0.979337215423584,-0.4346345663070678,3.046163558959961,-1.3946043252944946,0.3207040131092071,0.0568104237318038
1772903299406275000,2.151275146484375,-1.0708413124084473,-1.0100287199020386,1.6399011611938477,-1.594357132911682,0.6688969135284424,-0.0653625279664993
1772903299425260500,2.170260498046875,-0.9926261901855468,-1.6054755449295044,0.4764423370361328,-1.571755051612854,0.7385355234146118,-0.0513126403093338
1772903299444246000,2.18924609375,-1.0856246948242188,-2.350342273712158,0.285867691040039,-1.466075420379639,0.546113133430481,0.0354301556944847
1772903299463231500,2.2082314453125,-1.1999855041503906,-2.9444501399993896,0.5476465225219727,-1.377500057220459,0.277332603931427,0.1417206227779388
1772903299482217200,2.22721728515625,-1.2256436347961426,-3.2015209197998047,0.8204488754272461,-1.3451242446899414,0.0439822636544704,0.211359217762947
1772903299501202700,2.24620263671875,-1.6253604888916016,-3.4366018772125244,0.8695945739746094,-1.3194679021835327,-0.0983492285013198,0.1533270627260208
1772903299520188200,2.265188232421875,-1.886241436004639,-3.7012999057769775,0.941462516784668,-1.3109158277511597,-0.0494800470769405,-0.0238237269222736
1772903299539173600,2.284173583984375,-1.9606304168701167,-3.803035020828247,0.6309480667114258,-1.331074357032776,0.1594357043504715,-0.233961209654808
1772903299558159400,2.303159423828125,-1.8932790756225584,-3.693800210952759,0.0278291702270507,-1.3213005065917969,0.3585776388645172,-0.4037816226482391
1772903299577144800,2.322144775390625,-1.838030815124512,-3.721912860870361,-0.66748046875,-1.2510510683059692,0.439822643995285,-0.4862483739852905
1772903299596130300,2.34113037109375,-1.8751335144042969,-3.880592584609986,-1.0841178894042969,-1.1459823846817017,0.4007273018360138,-0.5070177912712097
1772903299615116000,2.360115966796875,-1.8543205261230469,-4.086783409118652,-1.3427224159240725,-1.0128138065338137,0.306043267250061,-0.4886918365955353
1772903299634101500,2.3791015625,-1.881741523742676,-4.208441257476807,-1.5726847648620603,-0.8552106618881226,0.164322629570961,-0.4453204274177551
1772903299653087000,2.3980869140625,-1.8819637298583984,-4.333411693572998,-1.7755203247070312,-0.685390293598175,0.0116064306348562,-0.379347026348114
1772903299672072400,2.417072509765625,-1.9903576374053955,-4.366866588592529,-2.1513772010803223,-0.4734202027320862,-0.1246164143085479,-0.3249800503253937
1772903299691058000,2.436057861328125,-2.098149299621582,-4.345564842224121,-2.3955612182617188,-0.2223547846078872,-0.2345720827579498,-0.2974911332130432
1772903299710043600,2.455043701171875,-2.1535451412200928,-4.230124473571777,-2.4581456184387207,0.0378736145794391,-0.3384190797805786,-0.2883281707763672
1772903299729029000,2.474029052734375,-2.204617977142334,-3.9835381507873535,-2.318978786468506,0.2657261788845062,-0.4593703150749206,-0.3035998046398163
1772903299748014600,2.4930146484375,-2.0891692638397217,-3.7018582820892334,-1.9963374137878416,0.4147771894931793,-0.5778780579566956,-0.3298669755458832
1772903299767000300,2.512000244140625,-2.001119613647461,-3.3940608501434326,-1.8298635482788088,0.5198459029197693,-0.6768381595611572,-0.3799578845500946
1772903299785985800,2.53098583984375,-1.9157228469848635,-3.1842973232269287,-1.7565126419067385,0.6249146461486816,-0.7434224486351013,-0.4703658819198608
1772903299804971300,2.54997119140625,-1.7201404571533203,-3.137603998184204,-1.544755935668945,0.7483093738555908,-0.768467903137207,-0.5888736248016357
1772903299823956700,2.568956787109375,-1.3821325302124023,-3.1546831130981445,-1.0027351379394531,0.8845322132110596,-0.7556397318840027,-0.7079922556877136
1772903299842942200,2.587942138671875,-1.0685014724731443,-3.0946755409240723,-0.5140571594238281,1.046411395072937,-0.7519745230674744,-0.823445737361908
1772903299861928000,2.606927978515625,-0.729344367980957,-2.8979341983795166,0.0783262252807617,1.1893537044525146,-0.7886264324188232,-0.9468404054641724
1772903299880913400,2.625913330078125,-0.2296085357666015,-2.381632089614868,1.2210893630981443,1.1991275548934937,-0.8637627959251404,-1.0610721111297607
1772903299899899000,2.64489892578125,-0.0447287559509277,-1.9460628032684328,2.0346174240112305,1.1154390573501587,-0.9291253089904784,-1.2327251434326172
1772903299918884600,2.663884521484375,-0.1110370159149169,-2.292592763900757,2.7514543533325195,1.1233803033828735,-0.9859357476234436,-1.5583161115646362
1772903299937870000,2.6828701171875,0.2236826419830322,-2.590195655822754,3.6527252197265625,1.176525592803955,-0.7831286191940308,-1.9816453456878664
1772903299956855600,2.70185546875,0.6921951770782471,-1.5947809219360352,4.279236793518066,1.0030399560928345,-0.1930332630872726,-2.431241750717163
1772903299975841000,2.720841064453125,0.8014600276947021,0.010556936264038,3.963897705078125,0.5082395076751709,0.5919279456138611,-2.877784013748169
1772903299994826500,2.739826416015625,1.4318082332611084,0.8244819641113281,2.368173599243164,0.0568104237318038,1.1979057788848877,-3.095862627029419
1772903300013812200,2.758812255859375,2.569164991378784,0.7485389709472656,0.460906982421875,-0.0629190728068351,1.2333359718322754,-2.9248206615448
1772903300032797700,2.777797607421875,3.782373189926148,0.7539656162261963,-0.5333652496337891,0.0519235059618949,0.7654135823249817,-2.4092507362365723
1772903300051783200,2.796783203125,4.237970352172852,0.9146573543548584,0.0462331771850585,0.1521053314208984,0.2156352698802948,-1.7898337841033936
1772903300070768600,2.8157685546875,3.6463873386383057,1.0962311029434204,0.9271411895751952,0.0818558782339096,-0.0048869182355701,-1.3487894535064695
1772903300089754400,2.83475439453125,2.9217734336853027,1.5336233377456665,0.8581218719482422,-0.0232128612697124,0.1020144149661064,-1.1319323778152466
1772903300108739800,2.85373974609375,2.2080395221710205,1.965902328491211,0.3963308334350586,-0.098960094153881,0.2907716333866119,-1.0604612827301023
1772903300127725300,2.872725341796875,1.7894737720489502,2.309675693511963,-0.0550155639648437,-0.1551596522331237,0.3714057803153991,-1.0274745225906372
1772903300146710800,2.891710693359375,1.681800365447998,2.587786674499512,-0.2906408309936523,-0.2327394783496856,0.3164279460906982,-0.9590576887130736
1772903300165696300,2.9106962890625,1.4133222103118896,2.652119398117065,-0.5410985946655273,-0.3133736252784729,0.2174678593873977,-0.908355951309204
1772903300184682000,2.929681884765625,1.1926238536834717,2.5323054790496826,-0.6396913528442383,-0.3988946974277496,0.2370155304670334,-0.924238383769989
1772903300203667500,2.94866748046875,1.0247719287872314,2.247295379638672,-0.8282899856567383,-0.4239401519298553,0.4422661066055298,-1.0091485977172852
1772903300222653000,2.96765283203125,1.2139668464660645,2.267853260040283,-1.185276985168457,-0.3561341762542724,0.6346884965896606,-1.0580178499221802
1772903300241638700,2.986638671875,1.9182546138763428,2.400397777557373,-1.2602972984313965,-0.2455676347017288,0.638353705406189,-0.9382883310317992
1772903300260624100,3.0056240234375,2.3956167697906494,2.3777413368225098,-0.993788719177246,-0.1264490038156509,0.5149590373039246,-0.6695078015327454
1772903300279609600,3.024609619140625,2.390740871429444,2.3898022174835205,-0.310429573059082,-0.0940731763839721,0.3182605504989624,-0.3597993552684784
1772903300298595000,3.043594970703125,1.901151657104492,2.5198535919189453,-0.1041679382324218,-0.0867427960038185,0.205861434340477,-0.1484401375055313
1772903300317580500,3.06258056640625,1.4495415687561035,2.75296688079834,-0.1320371627807617,-0.0244345907121896,0.232128620147705,-0.0531452372670173
1772903300336566300,3.081566162109375,1.4552350044250488,2.9012997150421143,-0.0167932510375976,0.0537560991942882,0.2858847081661224,0.0500909127295017
1772903300355551700,3.1005517578125,1.499795913696289,2.9008572101593018,0.452606201171875,0.0983492285013198,0.2480110973119735,0.205861434340477
1772903300374537200,3.119537109375,1.265594482421875,2.825953483581543,1.1503686904907229,0.0842993408441543,0.1936441361904144,0.3573558926582336
1772903300393523000,3.13852294921875,0.8775424957275391,2.831634521484375,1.7133769989013672,-0.0116064306348562,0.2577849328517914,0.4355465769767761
1772903300412508400,3.15750830078125,0.2631239891052246,2.9995596408843994,1.6884431838989258,-0.1618791669607162,0.4068359434604645,0.4318813979625702
1772903300431494000,3.176493896484375,-0.5570688247680664,3.210632801055908,1.3114824295043943,-0.3384190797805786,0.5320632457733154,0.3488037884235382
1772903300450479400,3.195479248046875,-1.1183514595031738,3.1298186779022217,0.6535854339599609,-0.4434878230094909,0.5699368119239807,0.2480110973119735
1772903300469464800,3.21446484375,-1.1965324878692627,2.815263271331787,0.0941486358642578,-0.4276053309440613,0.5314523577690125,0.1905898153781891
1772903300488450300,3.2334501953125,-0.9904935359954834,2.272376298904419,0.1243772506713867,-0.3109301626682281,0.3933969140052795,0.1539379209280014
1772903300507436000,3.25243603515625,-0.7145352363586426,0.7293250560760498,1.2996749877929688,-0.0097738364711403,0.0433713980019092,0.0714711770415306
1772903300526421500,3.27142138671875,0.8989229202270508,0.2227418422698974,3.0843544006347656,0.3207040131092071,-0.1869246214628219,0.1979201883077621
1772903300545407000,3.290406982421875,1.9775633811950684,1.06851065158844,5.943041801452637,0.0904079899191856,-0.3988946974277496,0.4190532267093658
1772903300564392400,3.309392333984375,1.305851936340332,1.5457124710083008,7.435218811035156,-0.6004800796508789,-0.3707949221134186,0.4080576598644256
1772903300583378000,3.3283779296875,0.9895792007446288,0.9505528211593628,6.349339485168457,-1.1184934377670288,0.0226019974797964,0.2730565667152405
1772903300602363600,3.34736376953125,1.128030776977539,-0.192573070526123,4.432981491088867,-1.3072506189346311,0.4282162189483642,0.232128620147705
1772903300621349000,3.36634912109375,1.2511730194091797,-0.559063196182251,2.580716133117676,-1.324354887008667,0.6359102129936218,0.3976729810237884
1772903300640334600,3.38533447265625,0.9786014556884766,-0.2657415866851806,1.0759029388427734,-1.3384047746658323,0.5326740741729736,0.7232639193534851
1772903300659320300,3.4043203125,0.2221851348876953,-0.3725608587265014,0.2248764038085937,-1.3377938270568848,0.164322629570961,1.043357014656067
1772903300678305800,3.423305908203125,-0.3172841072082519,-0.9477123022079468,-0.0207624435424804,-1.3170244693756104,-0.1667660921812057,1.3066397905349731
1772903300697291300,3.442291259765625,-0.8653302192687988,-1.6379618644714355,0.1552362442016601,-1.2980875968933103,-0.318871408700943,1.433088779449463
1772903300716276700,3.46127685546875,-1.6077654361724854,-2.1105380058288574,0.1464796066284179,-1.2712095975875854,-0.3066541254520416,1.3866630792617798
1772903300735262200,3.48026220703125,-2.2467994689941406,-2.3741044998168945,0.174896240234375,-1.2186752557754517,-0.3176496922969818,1.204014539718628
1772903300754248000,3.499248046875,-2.618905544281006,-2.6478939056396484,0.4313545227050781,-1.1905754804611206,-0.3500255048274994,0.91751891374588
1772903300773233400,3.5182333984375,-2.693756580352783,-2.846565723419189,0.9108362197875975,-1.2174534797668457,-0.3133736252784729,0.5607738494873047
1772903300792219000,3.537218994140625,-2.532818078994751,-3.083737373352051,1.1414909362792969,-1.285259485244751,-0.1569922417402267,0.1783725172281265
1772903300811204400,3.556204345703125,-2.2609317302703857,-3.3156800270080566,1.1782655715942385,-1.360395908355713,0.0122172953560948,-0.1740964651107788
1772903300830189800,3.57518994140625,-1.8293941020965576,-3.537254810333252,0.9740200042724608,-1.4196497201919556,0.1331685185432434,-0.4392117857933044
1772903300849175300,3.59417529296875,-1.5617618560791016,-3.917010307312012,0.7648258209228516,-1.4434734582901,0.1368337124586105,-0.6298015713691711
1772903300868161000,3.6131611328125,-1.4031188488006592,-4.38163423538208,0.7502603530883789,-1.4593559503555298,0.1172860413789749,-0.7770199775695801
1772903300887146500,3.632146484375,-1.1335020065307615,-4.869077682495117,0.5158653259277344,-1.4605777263641355,0.1252272725105285,-0.8668171167373657
1772903300906132000,3.651132080078125,-0.7035617828369141,-5.260242938995361,0.0751867294311523,-1.3988803625106812,0.1166751757264137,-0.8582650423049927
1772903300925117400,3.670117431640625,-0.5003113746643066,-5.607872009277344,-0.1396265029907226,-1.2724313735961914,0.0867427960038185,-0.7904590368270874
1772903300944103000,3.68910302734375,-0.7058606147766113,-5.875026702880859,-0.2057018280029297,-1.1496474742889404,0.0287106446921825,-0.7153226733207703
1772903300963088600,3.708088623046875,-1.101334571838379,-5.893801689147949,-0.3101520538330078,-1.0574069023132324,-0.0623082071542739,-0.6890554428100586
1772903300982074000,3.72707421875,-1.465726375579834,-5.860838413238525,-0.4477095603942871,-0.9883792400360109,-0.1533270627260208,-0.7159335017204285
1772903301001059600,3.7460595703125,-1.5639410018920898,-5.925496578216553,-0.4508919715881347,-0.9309579133987428,-0.2999345958232879,-0.7415898442268372
1772903301020045300,3.76504541015625,-1.713064193725586,-5.85484504699707,-0.9626069068908693,-0.8197805285453796,-0.4532616734504699,-0.7635809779167175
1772903301039030800,3.78403076171875,-1.6856694221496582,-5.529004096984863,-1.4370598793029783,-0.6334667801856995,-0.6023126840591431,-0.7641918659210205
1772903301058016300,3.803016357421875,-1.7666292190551758,-5.251578330993652,-1.3813562393188477,-0.4440986812114715,-0.7874047160148621,-0.7409789562225342
1772903301077001700,3.822001708984375,-2.162243366241455,-4.913565158843994,-1.1887226104736328,-0.3139844834804535,-1.0555742979049685,-0.7690787315368652
1772903301095987200,3.8409873046875,-2.7154741287231445,-4.5207929611206055,-1.0801963806152344,-0.2388481348752975,-1.3432916402816772,-0.9468404054641724
1772903301114973000,3.859972900390625,-2.815518379211426,-4.100872039794922,-1.0038442611694336,-0.1600465774536132,-1.4984513521194458,-1.2266165018081665
1772903301133958400,3.87895849609375,-2.612277030944824,-4.155878067016602,-0.6882915496826172,-0.0238237269222736,-1.4001020193099976,-1.5393792390823364
1772903301152943900,3.89794384765625,-1.5342979431152344,-3.855588912963867,-0.1017379760742187,0.0452039949595928,-1.2082905769348145,-1.6786564588546753
1772903301171929300,3.916929443359375,-0.5958070755004883,-2.755393743515014,0.0991582870483398,-0.0268780495971441,-1.1441497802734375,-1.637117624282837
1772903301190914800,3.935914794921875,-1.1350295543670654,-2.2115159034729004,0.1999387741088867,-0.1496618688106537,-1.5277727842330933,-1.7849469184875488
1772903301209900500,3.954900634765625,-2.4257094860076904,-3.770776271820069,1.3124780654907229,-0.1582139730453491,-1.99936044216156,-2.442237377166748
1772903301228886000,3.973885986328125,-2.142732620239258,-5.871354103088379,2.483697891235352,-0.0097738364711403,-2.093433618545532,-3.4098472595214844
1772903301247871500,3.99287158203125,0.2641501426696777,-5.890528678894043,2.475666046142578,0.2522871494293213,-1.6713260412216189,-4.291325092315674
1772903301266857000,4.01185693359375,3.1430609226226807,-4.315243721008301,2.466730117797852,0.4013381600379944,-0.7953459620475769,-4.758636474609375
1772903301285842400,4.030842529296875,4.684597015380859,-3.4363884925842285,3.592025756835937,0.1191186308860778,-0.2333503514528274,-4.8856964111328125
1772903301304828000,4.049827880859375,5.866254806518555,-3.47691011428833,3.3531227111816406,-0.2816086709499359,-0.1759290546178817,-4.723817348480225
1772903301323813600,4.068813720703125,7.161712646484375,-3.000575304031372,1.2401142120361328,-0.3958403766155243,-0.3237583339214325,-4.262003421783447
1772903301342799000,4.087799072265625,7.471567153930664,-2.37170147895813,-0.2911634445190429,-0.2767217457294464,-0.3536907136440277,-3.6389214992523193
1772903301361784600,4.10678466796875,6.640510082244873,-1.5519784688949585,-1.238046646118164,-0.1398880332708358,-0.3762927055358886,-3.0775368213653564
1772903301380770000,4.12577001953125,5.252390861511231,-0.6199119091033936,-1.7061128616333008,-0.0836884751915931,-0.4544833898544311,-2.7739369869232178
1772903301399755500,4.144755615234375,4.060922145843506,-0.1382958889007568,-1.8479719161987305,-0.1075121983885765,-0.4459312856197357,-2.7482805252075195
1772903301418741200,4.1637412109375,3.208690881729126,0.0993933081626892,-2.094368934631348,-0.1484401375055313,-0.3035998046398163,-2.89977502822876
1772903301437726700,4.182726806640625,2.824265241622925,0.2068677544593811,-2.387769222259521,-0.1075121983885765,-0.1050687432289123,-3.0695955753326416
1772903301456712200,4.201712158203125,2.5929856300354004,0.4020215272903442,-2.414820671081543,-0.0305432397872209,0.0226019974797964,-3.2088727951049805
1772903301475697700,4.22069775390625,2.72351622581482,0.6852409839630127,-2.1472883224487305,0.0244345907121896,0.0733037739992141,-3.3035566806793213
1772903301494683100,4.23968310546875,3.0967705249786377,0.8165875673294067,-1.606654167175293,0.0659733936190605,0.2101374864578247,-3.3157739639282227
1772903301513668900,4.2586689453125,3.269273281097412,0.7844412922859192,-1.2136898040771484,0.1270598769187927,0.4386008977890014,-3.2339181900024414
1772903301532654000,4.277654052734375,3.0617547035217285,0.9641476273536682,-1.0653705596923828,0.2449567764997482,0.5705476999282837,-3.084256172180176
1772903301551639800,4.296639892578125,2.6841673851013184,1.3185425996780396,-0.5782785415649414,0.3488037884235382,0.56382817029953,-2.926042318344116
1772903301570625300,4.315625244140625,2.3701541423797607,1.8449879884719849,0.1608705520629882,0.3518581092357635,0.4929678738117218,-2.785543441772461
1772903301589610800,4.33461083984375,2.218529462814331,2.292599678039551,0.5054569244384766,0.3084867000579834,0.4575377106666565,-2.662148714065552
1772903301608596200,4.35359619140625,2.251559019088745,2.710290670394897,0.4204940795898437,0.3115410506725311,0.5076286196708679,-2.5271475315093994
1772903301627581700,4.372581787109375,2.2321181297302246,3.037897109985352,0.5201034545898438,0.3518581092357635,0.6420188546180725,-2.3542728424072266
1772903301646567400,4.3915673828125,1.8990638256073,3.460475444793701,0.8982763290405273,0.3390299379825592,0.720820426940918,-2.189339399337769
1772903301665553000,4.410552978515625,1.190579891204834,3.787611722946167,1.332200050354004,0.273667424917221,0.7458658814430237,-2.112370491027832
1772903301684538400,4.429538330078125,0.875389814376831,3.972292900085449,1.7904129028320312,0.1740964651107788,0.7947350740432739,-2.06594467163086
1772903301703523800,4.44852392578125,1.0889174938201904,4.172311782836914,1.9341449737548828,0.0641408041119575,0.8472694754600525,-1.9260566234588623
1772903301722509300,4.46750927734375,1.111644983291626,4.511037826538086,1.805741310119629,-0.0317649692296981,0.8289434909820557,-1.7171409130096436
1772903301741494800,4.486494873046875,0.7204062938690186,4.489447116851807,2.030303955078125,-0.0641408041119575,0.7379246354103088,-1.552207350730896
1772903301760480500,4.50548046875,0.4406781196594238,4.374263286590576,2.508261680603028,-0.0531452372670173,0.647516667842865,-1.4257583618164062
1772903301779466000,4.524466064453125,0.9998979568481444,4.5551605224609375,3.3442296981811523,-0.1142317131161689,0.4679224193096161,-1.2101231813430786
1772903301798451500,4.543451416015625,1.489098072052002,4.802872657775879,4.24589729309082,-0.3457494676113128,0.3048215210437774,-0.9046907424926758
1772903301817437000,4.56243701171875,1.2696483135223389,4.832052230834961,4.553772926330566,-0.7617483735084534,0.258395791053772,-0.6389645338058472
1772903301836422400,4.58142236328125,0.409787654876709,4.200276851654053,3.652324676513672,-1.08978271484375,0.3756818473339081,-0.5174024701118469
1772903301855408000,4.600408203125,0.0373032093048095,3.270890235900879,2.577467918395996,-1.2290599346160889,0.45875945687294,-0.4312705397605896
1772903301874393600,4.6193935546875,0.1668965816497802,2.30913519859314,1.967426300048828,-1.2718204259872437,0.4031707644462585,-0.2730565667152405
1772903301893379000,4.638379150390625,0.3531594276428222,1.6480331420898438,1.4738893508911133,-1.2779290676116943,0.2046397030353546,-0.0464257225394248
1772903301912364500,4.657364501953125,0.1008424758911132,1.2211594581604004,1.3251047134399414,-1.2699878215789795,-0.0390953458845615,0.1270598769187927
1772903301931350000,4.67635009765625,-0.5107574462890625,0.7114229202270508,1.559185028076172,-1.3377938270568848,-0.2315177470445633,0.1142317131161689
1772903301950335500,4.69533544921875,-0.7314931154251099,0.2472062110900879,1.4008808135986328,-1.426369309425354,-0.2706131041049957,-0.0409279391169548
1772903301969321000,4.714321044921875,-0.4884393215179443,-0.0351799130439758,0.7822446823120117,-1.4379756450653076,-0.2144135385751724,-0.2590066790580749
1772903301988306700,4.733306640625,-0.0935380458831787,-0.2701382637023926,0.5284519195556641,-1.4483604431152344,-0.1136208474636077,-0.4605920314788818
1772903302007292200,4.752292236328125,0.5376126766204834,-0.6137143969535828,0.4980974197387695,-1.4813470840454102,0.0195476729422807,-0.5516108870506287
1772903302026277600,4.771277587890625,0.9753973484039308,-1.1539963483810425,0.5112314224243164,-1.525329351425171,0.0739146396517753,-0.5387827157974243
1772903302045263000,4.79026318359375,0.8539443016052246,-1.616004467010498,0.2945203781127929,-1.561981201171875,0.1050687432289123,-0.5259546041488647
1772903302064248600,4.80924853515625,0.5750870704650879,-1.886306405067444,-0.2166404724121093,-1.5699224472045898,0.1533270627260208,-0.573602020740509
1772903302083234000,4.828234130859375,0.4791553020477295,-2.1774232387542725,-0.7196826934814453,-1.5332705974578855,0.2168570011854171,-0.6438514590263367
1772903302102219800,4.8472197265625,0.5264146327972412,-2.6077113151550293,-1.0027589797973633,-1.453247308731079,0.296269416809082,-0.6884446144104004
1772903302121205200,4.866205322265625,0.7577989101409912,-3.025726556777954,-1.0981245040893557,-1.350011110305786,0.4050033390522003,-0.6591231226921082
1772903302140190700,4.885190673828125,0.7861835956573486,-3.337855577468872,-1.2739391326904297,-1.2363903522491455,0.4532616734504699,-0.5693259835243225
1772903302159176200,4.90417626953125,0.5168490409851074,-3.520392894744873,-1.5936622619628906,-1.1026109457015991,0.407446801662445,-0.4911352694034576
1772903302178161700,4.92316162109375,0.2603569030761719,-3.5857653617858887,-1.9184670448303225,-0.943175196647644,0.3237583339214325,-0.4367683231830597
1772903302197147100,4.942147216796875,0.1204488277435302,-3.603677272796631,-2.1857357025146484,-0.7544180154800415,0.2107483446598053,-0.3811796307563782
1772903302216132600,4.961132568359375,0.0659754276275634,-3.665067195892334,-2.2997231483459477,-0.5320632457733154,0.1227838173508644,-0.3145953714847564
1772903302235118300,4.980118408203125,-0.0282058715820312,-3.654045581817627,-2.272356986999512,-0.3207040131092071,0.0128281600773334,-0.2364046722650528
1772903302254103800,4.999103759765625,-0.1461563110351562,-3.5905818939208984,-2.127253532409668,-0.1496618688106537,-0.0629190728068351,-0.1783725172281265
1772903302273089300,5.01808935546875,-0.2144722938537597,-3.4866538047790527,-1.92224645614624,-0.0543669648468494,0.0164933484047651,-0.1337793916463852
1772903302292074800,5.03707470703125,-0.580075740814209,-3.224183320999145,-2.1749696731567383,0.0342084281146526,0.1001818254590034,-0.119729496538639
1772903302311060200,5.056060302734375,-0.9713003635406494,-3.082578659057617,-2.7999582290649414,0.1936441361904144,0.0623082071542739,-0.1136208474636077
1772903302330046000,5.0750458984375,-1.266606092453003,-2.988046169281006,-2.941409111022949,0.4086685478687286,-0.0916297137737274,-0.1441640853881836
1772903302349031200,5.09403125,-1.5560123920440674,-3.044093608856201,-2.3704891204833984,0.6096430420875549,-0.2223547846078872,-0.2254091054201126
1772903302368017000,5.113016845703125,-1.2690595388412476,-2.980226993560791,-1.329237461090088,0.7183769941329956,-0.4001164436340332,-0.2620609998703003
1772903302387002400,5.13200244140625,-1.084824800491333,-3.1020634174346924,-0.2775144577026367,0.7910698652267456,-0.6633991599082947,-0.3133736252784729
1772903302405987800,5.15098779296875,-1.023970603942871,-3.461385726928711,0.581024169921875,0.915686309337616,-0.7086031436920166,-0.4538725316524505
1772903302424973300,5.169973388671875,-1.2114442586898804,-3.1669397354125977,1.1928415298461914,0.9877683520317078,-0.4746419191360473,-0.7507528066635132
1772903302443958800,5.188958740234375,-1.467549443244934,-2.423403263092041,1.1232976913452148,1.003650784492493,-0.1765399277210235,-1.166751742362976
1772903302462944300,5.2079443359375,-1.2989897727966309,-1.956987977027893,0.588191032409668,1.0555742979049685,0.0641408041119575,-1.543655276298523
1772903302481930000,5.226929931640625,-0.3377811908721924,-1.6639199256896973,0.3175363540649414,1.211344838142395,0.1032361462712287,-1.693317174911499
1772903302500915200,5.245915283203125,0.7258560657501221,-1.24151611328125,0.665435791015625,1.368947982788086,-0.0519235059618949,-1.6065744161605835
1772903302519901000,5.26490087890625,1.4110345840454102,-0.1274852156639099,1.1367740631103516,1.3652827739715576,-0.1954767256975174,-1.393382549285889
1772903302538886400,5.283886474609375,1.6374070644378662,1.1713180541992188,1.414724349975586,1.1563670635223389,-0.2724456787109375,-1.2186752557754517
1772903302557871900,5.302871826171875,1.4744367599487305,1.7156589031219482,1.133601188659668,0.9749401807785034,-0.2700022459030151,-1.1783581972122192
1772903302576857300,5.321857421875,1.8126399517059328,1.2913299798965454,1.117783546447754,0.9541707634925842,-0.1832594275474548,-1.148425817489624
1772903302595842800,5.3408427734375,2.4429874420166016,1.022106647491455,1.5671758651733398,0.9480621218681335,-0.1203403621912002,-0.9944878816604614
1772903302614828500,5.35982861328125,2.5683858394622803,1.140565276145935,1.982355117797852,0.8631519079208374,-0.1380554437637329,-0.7947350740432739
1772903302633814000,5.37881396484375,2.0114901065826416,1.3513195514678955,1.951009750366211,0.7128791809082031,-0.1417206227779388,-0.6982184648513794
1772903302652799500,5.397799560546875,1.4367129802703855,1.6509780883789062,1.141739845275879,0.637742817401886,-0.0971274971961975,-0.7153226733207703
1772903302671785000,5.416784912109375,1.4756925106048584,1.9497939348220823,0.2577743530273437,0.7141009569168091,-0.0280997790396213,-0.7287616729736328
1772903302690770400,5.4357705078125,1.8307600021362305,2.4379329681396484,0.2061748504638672,0.7910698652267456,0.0,-0.637742817401886
1772903302709756000,5.454755859375,1.9376444816589355,3.0195868015289307,0.5067539215087891,0.7880155444145203,0.0287106446921825,-0.4764745235443115
1772903302728741400,5.473741455078125,1.6327898502349854,3.5017757415771484,0.777949333190918,0.7061597108840942,0.0006108647794462,-0.3316995799541473
1772903302747727000,5.49272705078125,1.1843149662017822,3.943069458007813,0.7779884338378906,0.5858193039894104,-0.0702494531869888,-0.254730612039566
1772903302766712300,5.51171240234375,1.0119740962982178,4.167954444885254,0.5846166610717773,0.4856374859809875,-0.1148425787687301,-0.2193004488945007
1772903302785698000,5.530697998046875,0.8867523670196533,4.222833633422852,0.4467630386352539,0.4343248605728149,-0.0855210721492767,-0.2229656428098678
1772903302804683500,5.54968359375,0.8582072257995605,4.238550186157227,0.6501493453979492,0.4007273018360138,0.0103847011923789,-0.235793799161911
1772903302823669000,5.5686689453125,0.903489351272583,4.258796691894531,0.9117279052734376,0.3341430425643921,0.0733037739992141,-0.2370155304670334
1772903302842654500,5.587654541015625,1.134232759475708,4.5081467628479,0.8889598846435547,0.2602283954620361,0.0580321550369262,-0.1960875988006591
1772903302861640000,5.606639892578125,1.6120717525482178,4.745012283325195,0.9780073165893556,0.1679878085851669,-0.0152716198936104,-0.0830776095390319
1772903302880625400,5.62562548828125,2.0814547538757324,4.802374839782715,1.227508544921875,0.0323758348822593,-0.0769689604640007,0.0965166315436363
1772903302899611000,5.64461083984375,2.2700412273406982,4.667813301086426,1.5106544494628906,-0.130114197731018,-0.0739146396517753,0.2846629917621612
1772903302918596400,5.663596435546875,2.124476432800293,4.323493003845215,1.589859962463379,-0.2864955961704254,0.0091629717499017,0.4312705397605896
1772903302937582000,5.68258203125,1.71232271194458,3.9442973136901855,1.3954448699951172,-0.4068359434604645,0.0855210721492767,0.5259546041488647
1772903302956567600,5.701567626953125,1.5149147510528564,3.659898996353149,1.2347536087036133,-0.5235111117362976,0.1398880332708358,0.6096430420875549
1772903302975553000,5.720552978515625,1.3040590286254885,3.411609172821045,1.0462379455566406,-0.676227331161499,0.171653002500534,0.6896663308143616
1772903302994538500,5.73953857421875,0.909386396408081,3.0469014644622803,0.7570886611938477,-0.8203914165496826,0.2076940238475799,0.7244856357574463
1772903303013524000,5.75852392578125,0.649118185043335,2.5159225463867188,0.498971939086914,-0.9272927641868592,0.2168570011854171,0.7287616729736328
1772903303032509400,5.777509521484375,0.5202090740203857,1.854255437850952,0.3069105148315429,-0.9511164426803588,0.1637117564678192,0.7055488228797913
1772903303051495000,5.796494873046875,0.676699161529541,0.3210337162017822,0.7798261642456055,-0.7422007322311401,-0.0109955659136176,0.6261364221572876
1772903303070480600,5.815480712890625,1.9738178253173828,-0.3658235073089599,1.6979484558105469,-0.3988946974277496,0.078190691769123,0.7605266571044922
1772903303089466000,5.834466064453125,2.953158378601074,0.1614147424697876,3.313542366027832,-0.4288270771503448,-0.0507017783820629,1.0115920305252075
1772903303108451600,5.85345166015625,2.8849527835845947,0.135999321937561,4.017119407653809,-0.5925388336181641,-0.1777616441249847,1.176525592803955
1772903303127437000,5.87243701171875,3.800338268280029,0.1250834465026855,4.274672508239746,-0.832608699798584,-0.205861434340477,1.420260667800903
1772903303146422500,5.891422607421875,3.958559989929199,0.0786858797073364,3.987136840820313,-1.1527018547058103,-0.0183259434998035,1.6505566835403442
1772903303165408000,5.910407958984375,2.709434986114502,-0.2643249034881592,3.0360546112060547,-1.442862629890442,0.4960221946239471,1.6786564588546753
1772903303184393500,5.9293935546875,1.4418935775756836,-1.0152957439422607,1.6752862930297852,-1.599854826927185,1.0024291276931765,1.6035200357437134
1772903303203379000,5.94837890625,0.5776798725128174,-1.80924928188324,0.4897727966308594,-1.6059634685516355,1.1789690256118774,1.5033382177352903
1772903303222364400,5.967364501953125,0.3394365310668945,-2.7747690677642822,0.1063957214355468,-1.4001020193099976,1.219896912574768,1.359174132347107
1772903303241350000,5.986349853515625,0.4386959075927734,-3.849108219146729,0.7878990173339844,-1.1612539291381836,1.3109158277511597,1.2150100469589231
1772903303260335600,6.005335693359375,0.4246809482574463,-4.319018363952637,1.4327478408813477,-1.0482439994812012,1.4691298007965088,1.0439679622650146
1772903303279321000,6.024321044921875,-0.0064682960510253,-4.047032356262207,1.2147235870361328,-1.0054833889007568,1.7421863079071045,0.7892373204231262
1772903303298306600,6.043306640625,-0.1667084693908691,-3.5572350025177,0.5546588897705078,-0.9651663303375244,2.042120933532715,0.554665207862854
1772903303317292000,6.0622919921875,-0.3233709335327148,-3.463721752166748,0.1468410491943359,-0.9541707634925842,2.1868958473205566,0.4294379353523254
1772903303336277500,6.081277587890625,-0.4619879722595215,-3.579295873641968,-0.4632792472839355,-0.9297361969947816,2.1551308631896973,0.3714057803153991
1772903303355263000,6.100262939453125,-0.8238353729248047,-3.675757884979248,-1.098130226135254,-0.8124501705169678,2.067166328430176,0.3243691921234131
1772903303374248400,6.11924853515625,-1.2590103149414062,-3.807560920715332,-1.3286046981811523,-0.6487383842468262,1.979201912879944,0.2419024556875229
1772903303393234000,6.13823388671875,-1.587810516357422,-3.906171083450317,-1.5500102043151855,-0.4636463820934295,1.8887939453125,0.1411097645759582
1772903303412219400,6.157219482421875,-1.6710071563720703,-3.9049322605133057,-1.6685705184936523,-0.2730565667152405,1.7421863079071045,0.0775798261165618
1772903303431205000,6.176205078125,-1.835404872894287,-3.8874244689941406,-1.6570563316345217,-0.1001818254590034,1.5876375436782837,0.0458148568868637
1772903303450190600,6.195190673828125,-1.5902056694030762,-3.7918272018432617,-1.1237640380859375,-0.0091629717499017,1.4581341743469238,0.0855210721492767
1772903303469176000,6.214176025390625,-1.6882619857788086,-3.75718355178833,-0.971705436706543,0.0109955659136176,1.3255765438079834,0.1612683087587356
1772903303488161500,6.23316162109375,-2.2398805618286133,-3.507716178894043,-1.2954144477844238,0.0708603113889694,1.191797137260437,0.1795942485332489
1772903303507147000,6.25214697265625,-3.03371524810791,-3.12148666381836,-1.6354169845581057,0.1637117564678192,0.9841031432151794,0.088575392961502
1772903303526132500,6.271132568359375,-3.380446434020996,-2.7217416763305664,-1.610793113708496,0.232128620147705,0.6976075768470764,-0.0507017783820629
1772903303545118000,6.290117919921875,-3.3760528564453125,-2.534106969833374,-1.5647902488708496,0.2712239623069763,0.3133736252784729,-0.1863137632608413
1772903303564103400,6.309103515625,-3.0467185974121094,-2.457259178161621,-1.7156171798706057,0.3744601011276245,-0.0482583157718181,-0.2981020212173462
1772903303583089000,6.3280888671875,-2.8241772651672363,-2.4204564094543457,-1.4916110038757324,0.5057960152626038,-0.3750709891319275,-0.4184423685073852
1772903303602074400,6.347074462890625,-2.4125566482543945,-2.2785391807556152,-1.1586623191833496,0.618806004524231,-0.5632173418998718,-0.536339282989502
1772903303621059800,6.366059814453125,-1.758610725402832,-2.198017120361328,-0.7220792770385742,0.7165443897247314,-0.6224712133407593,-0.593149721622467
1772903303640045300,6.38504541015625,-1.3286099433898926,-2.0274291038513184,-0.3016352653503418,0.8014546036720276,-0.6090322136878967,-0.6041452884674072
1772903303659031000,6.404031005859375,-1.2005290985107422,-1.6319944858551023,-0.1477031707763672,0.8973603844642639,-0.6530144214630127,-0.5882627964019775
1772903303678016500,6.4230166015625,-1.576526165008545,-1.531269669532776,0.6011605262756348,0.9034690260887146,-0.8998038172721863,-0.6878337264060974
1772903303697002000,6.442001953125,-1.958357334136963,-1.805383324623108,1.1106085777282717,0.8888082504272461,-1.1184934377670288,-0.9834923148155212
1772903303715987500,6.460987548828125,-1.1220340728759766,-1.9569807052612305,1.225569725036621,0.94439697265625,-1.1221586465835571,-1.286481261253357
1772903303734973000,6.479972900390625,0.4317946434020996,-1.7927838563919067,1.269920825958252,1.0311397314071655,-0.8454368710517883,-1.369558811187744
1772903303753958400,6.49895849609375,1.298396110534668,-1.5686264038085938,1.1920504570007324,1.1068869829177856,-0.564439058303833,-1.2620465755462646
1772903303772944000,6.51794384765625,1.0600290298461914,-1.1951937675476074,0.8649497032165527,1.1881320476531982,-0.5094612240791321,-1.1410953998565674
1772903303791929300,6.536929443359375,0.6235527992248535,-0.6985533237457275,0.4422602653503418,1.284037709236145,-0.648127555847168,-1.082452416419983
1772903303810914800,6.555914794921875,0.6851315498352051,-0.0506340265274047,0.1507668495178222,1.3738348484039309,-0.7886264324188232,-1.0555742979049685
1772903303829900500,6.574900634765625,1.2087674140930176,0.5620244741439819,0.0100245475769042,1.444695234298706,-0.8197805285453796,-1.0164790153503418
1772903303848885800,6.5938857421875,2.039855480194092,1.043123722076416,0.5114045143127441,1.395825982093811,-0.8258891701698303,-0.9279035925865172
1772903303867871200,6.612871337890625,2.878867149353028,1.2838109731674194,0.987144947052002,1.2345577478408811,-0.8637627959251404,-0.7904590368270874
1772903303886857000,6.63185693359375,3.361303806304932,1.4240413904190063,1.0617189407348633,1.0476330518722534,-0.8820887207984924,-0.6615665555000305
1772903303905842400,6.650842529296875,3.617199420928955,1.5458266735076904,1.056894302368164,0.8662062287330627,-0.7806851863861084,-0.5558869242668152
1772903303924828000,6.669827880859375,3.7415671348571777,1.5091636180877686,1.1636290550231934,0.685390293598175,-0.5668824911117554,-0.4764745235443115
1772903303943813400,6.6888134765625,3.873471260070801,1.5712823867797852,0.8907122611999512,0.5772672295570374,-0.2907716333866119,-0.3866774141788482
1772903303962798800,6.707798828125,3.861790657043457,1.8893218040466309,0.3398194313049316,0.5772672295570374,0.0274889152497053,-0.268169641494751
1772903303981784300,6.726784423828125,3.690788745880127,2.437234401702881,-0.10723876953125,0.6084213256835938,0.2064722925424575,-0.1154534444212913
1772903304000769800,6.745769775390625,3.6043291091918954,2.8970930576324463,-0.1082501411437988,0.5870410799980164,0.2492328286170959,0.1221729591488838
1772903304019755300,6.76475537109375,3.0895333290100098,3.0910511016845703,-0.0120038986206054,0.5332849621772766,0.2254091054201126,0.3646862804889679
1772903304038740700,6.78374072265625,2.331317901611328,3.1242005825042725,0.1595082283020019,0.4526508152484894,0.1960875988006591,0.5051851868629456
1772903304057726200,6.802726318359375,1.6846561431884766,2.9346022605896,0.4103851318359375,0.3310887217521667,0.2186895906925201,0.5320632457733154
1772903304076711700,6.821711669921875,1.3632874488830566,2.638566017150879,0.5004925727844238,0.2119700759649276,0.3145953714847564,0.5015199780464172
1772903304095697400,6.840697509765625,1.0807147026062012,2.4322187900543213,0.5329475402832031,0.1295033395290374,0.4636463820934295,0.4282162189483642
1772903304114683000,6.859682861328125,1.041395664215088,2.3598079681396484,0.448488712310791,0.0519235059618949,0.5754346251487732,0.3805687427520752
1772903304133668400,6.87866845703125,1.1049933433532717,2.383707046508789,0.3091135025024414,-0.0250454563647508,0.665842592716217,0.3860665261745453
1772903304152653800,6.89765380859375,1.0028843879699707,2.264179229736328,0.0360121726989746,-0.0739146396517753,0.7287616729736328,0.4233292937278747
1772903304171639300,6.916639404296875,0.9357762336730956,2.1553008556365967,-0.1784582138061523,-0.0812450125813484,0.6908880472183228,0.5094612240791321
1772903304190624800,6.935624755859375,0.9655766487121582,2.0489821434021,-0.070497989654541,-0.0855210721492767,0.6407971382141113,0.6298015713691711
1772903304209610200,6.9546103515625,0.842254638671875,1.823227047920227,0.0336675643920898,-0.1038470119237899,0.6621774435043335,0.7440332770347595
1772903304228595700,6.973595703125,0.4483242034912109,1.6089613437652588,0.150280475616455,-0.1246164143085479,0.7043271064758301,0.7977893948554993
1772903304247581200,6.992581298828125,0.0134749412536621,1.2725918292999268,0.2585539817810058,-0.1478292793035507,0.695164144039154,0.7745765447616577
1772903304266566700,7.011566650390625,-0.0191206932067871,0.8920228481292725,0.3991408348083496,-0.1594357043504715,0.6310232877731323,0.7312051653862
1772903304285552000,7.03055224609375,0.0861668586730957,0.3381677865982055,0.7144989967346191,-0.173485592007637,0.4801397025585174,0.676227331161499
1772903304304537600,7.04953759765625,0.2022204399108886,-0.2538895606994629,1.2030339241027832,-0.1899789422750473,0.347582072019577,0.593149721622467
1772903304323523000,7.068523193359375,0.3611202239990234,-0.7990798950195312,1.5680527687072754,-0.1802051067352295,0.2522871494293213,0.4862483739852905
1772903304342508500,7.087508544921875,0.9369349479675292,-0.7379682064056396,1.3030471801757812,-0.0842993408441543,0.3616319596767425,0.4795288443565368
1772903304361494300,7.106494384765625,1.2801856994628906,-0.1361393928527832,1.2918944358825684,-0.0641408041119575,0.4282162189483642,0.5766563415527344
1772903304380479500,7.1254794921875,0.5938549041748047,-0.1813797950744629,1.618250846862793,-0.2034179717302322,0.3677406013011932,0.5803215503692627
1772903304399465200,7.14446533203125,-0.0056414604187011,-0.6156338453292847,1.3815689086914062,-0.2834412455558777,0.3035998046398163,0.4612029194831848
1772903304418450700,7.16345068359375,0.1045117378234863,-0.939982771873474,1.0192785263061523,-0.2675587832927704,0.3066541254520416,0.3652971386909485
1772903304437436200,7.182436279296875,0.5200076103210449,-1.030289649963379,0.8088502883911133,-0.2400698512792587,0.337808221578598,0.3714057803153991
1772903304456421600,7.201421630859375,0.7980127334594727,-1.0370570421218872,0.7386617660522461,-0.232128620147705,0.4654789566993713,0.4770853817462921
1772903304475407000,7.220406982421875,0.5545821189880371,-0.8195967674255371,0.3486948013305664,-0.233961209654808,0.6181951761245728,0.62857985496521
1772903304494392600,7.239392578125,-0.3606777191162109,-0.6021794080734253,0.138012409210205,-0.258395791053772,0.6432406306266785,0.7134900689125061
1772903304513378000,7.2583779296875,-1.2241721153259275,-0.8051891326904297,0.179079532623291,-0.3243691921234131,0.4807505905628204,0.7031053900718689
1772903304532363500,7.277363525390625,-1.6839780807495115,-1.4335615634918213,0.2653613090515136,-0.379347026348114,0.2241873741149902,0.6139190793037415
1772903304551349000,7.296348876953125,-1.6832327842712402,-2.104328393936157,0.4798431396484375,-0.3872882723808288,0.0274889152497053,0.4752528071403503
1772903304570334500,7.31533447265625,-1.3504576683044434,-2.564993381500244,0.7942967414855957,-0.3781253099441528,-0.0054977829568088,0.3200931549072265
1772903304589320000,7.33431982421875,-1.048351764678955,-2.664292812347412,0.7527523040771484,-0.3451386094093323,0.0806341543793678,0.1948658674955368
1772903304608305400,7.353305419921875,-0.9108123779296876,-2.434307336807251,0.6390190124511719,-0.3390299379825592,0.1832594275474548,0.1032361462712287
1772903304627291000,7.372290771484375,-0.9756851196289062,-2.2040445804595947,0.5856680870056152,-0.3866774141788482,0.2602283954620361,0.0409279391169548
1772903304646276400,7.3912763671875,-1.1939897537231443,-2.019833564758301,0.2255425453186035,-0.4386008977890014,0.2791652083396911,-0.0006108647794462
1772903304665261800,7.41026171875,-1.4679007530212402,-1.9896777868270876,-0.2384262084960937,-0.4428769648075104,0.2223547846078872,-0.0397062115371227
1772903304684247300,7.429247314453125,-1.5864996910095217,-2.0727014541625977,-0.4428997039794922,-0.4043924808502197,0.1514944583177566,-0.0708603113889694
1772903304703233000,7.44823291015625,-1.726973533630371,-2.168285608291626,-0.4196820259094238,-0.3579667508602142,0.1117882579565048,-0.1117882579565048
1772903304722218500,7.467218505859375,-2.098773956298828,-2.254207134246826,-0.4091200828552246,-0.3268126547336578,0.1111773923039436,-0.211359217762947
1772903304741204000,7.486203857421875,-2.240309238433838,-2.2234086990356445,-0.5593581199645996,-0.2761108875274658,0.0739146396517753,-0.3365865051746368
1772903304760189400,7.505189453125,-2.2051687240600586,-2.1627414226531982,-0.7618341445922852,-0.1832594275474548,-0.0360410213470459,-0.4361574649810791
1772903304779175000,7.5241748046875,-2.095048427581787,-1.997856855392456,-0.7550063133239746,-0.078190691769123,-0.1863137632608413,-0.5094612240791321
1772903304798160400,7.543160400390625,-2.010728359222412,-1.8485333919525144,-0.5358529090881348,-0.0164933484047651,-0.2889390289783478,-0.5858193039894104
1772903304817145900,7.562145751953125,-1.908124923706055,-1.5936636924743652,-0.5276660919189453,0.0354301556944847,-0.3310887217521667,-0.6731730103492737
1772903304836131300,7.58113134765625,-1.5906109809875488,-1.2713218927383425,-0.5766334533691406,0.0855210721492767,-0.356745034456253,-0.720820426940918
1772903304855116800,7.60011669921875,-1.1081552505493164,-0.9722176790237428,-0.4991416931152344,0.1105665266513824,-0.4092794060707092,-0.6982184648513794
1772903304874102300,7.619102294921875,-0.9386200904846193,-0.9217571020126344,-0.4218616485595703,0.1233946830034256,-0.5320632457733154,-0.6695078015327454
1772903304893087700,7.638087646484375,-0.8406410217285156,-0.9751286506652832,-0.2180147171020507,0.1551596522331237,-0.6774490475654602,-0.6933315396308899
1772903304912073200,7.6570732421875,-0.3286409378051758,-1.104045867919922,0.0583481788635253,0.1918115466833114,-0.7666352987289429,-0.7189878225326538
1772903304931058700,7.67605859375,0.3619756698608398,-0.9791791439056396,0.1525630950927734,0.2254091054201126,-0.7623592615127563,-0.6798924803733826
1772903304950044200,7.695044189453125,0.7298760414123535,-0.7866322994232178,0.421030044555664,0.2015853822231292,-0.7409789562225342,-0.6200277805328369
1772903304969029600,7.714029541015625,0.6248660087585449,-1.163803219795227,1.2321410179138184,0.0659733936190605,-0.8350521326065063,-0.6615665555000305
1772903304988015000,7.73301513671875,0.5439486503601074,-2.037971019744873,1.4788093566894531,-0.0690277218818664,-0.970053255558014,-0.8142827749252319
1772903305007000600,7.75200048828125,0.9859170913696288,-2.351928234100342,1.0022578239440918,-0.0842993408441543,-0.8863648176193237,-0.9450078010559082
1772903305025986000,7.770986083984375,1.1793203353881836,-2.1274728775024414,0.6276712417602539,-0.0525343716144561,-0.4495964646339416,-1.0592395067214966
1772903305044971500,7.789971435546875,0.947256088256836,-1.6227612495422363,-0.0003132820129394,-0.0164933484047651,0.0684168562293052,-1.156977891921997
1772903305063957000,7.80895703125,0.8330521583557129,-0.8802182674407959,-0.6763548851013184,0.0109955659136176,0.2938259541988373,-1.1362085342407229
1772903305082942700,7.827942626953125,0.5417914390563965,-0.0670199394226074,-1.2616419792175293,0.0189368072897195,0.185092031955719,-1.0299180746078491
1772903305101928000,7.846927978515625,0.264533519744873,0.3993456363677978,-1.39398193359375,-0.0085521070286631,-0.0720820426940918,-0.9053016304969788
1772903305120913700,7.86591357421875,-0.0992641448974609,0.5163965225219727,-1.235081672668457,-0.0335975624620914,-0.3029889166355133,-0.860708475112915
1772903305139899000,7.88489892578125,-0.3863987922668457,0.3402001857757568,-0.4553799629211426,-0.0775798261165618,-0.3726275265216827,-0.9498947262763976
1772903305158884600,7.903884521484375,-0.311774730682373,0.2220270633697509,0.3276634216308594,-0.1887572109699249,-0.2657261788845062,-1.1398736238479614
1772903305177870000,7.9228701171875,0.158233642578125,0.1585385799407959,0.4404683113098144,-0.2528980076313019,-0.10934479534626,-1.3170244693756104
1772903305196855300,7.941855224609375,1.0391244888305664,0.4221498966217041,0.336728572845459,-0.2474002391099929,-0.0329866968095302,-1.3555089235305786
1772903305215841000,7.960841064453125,1.7559804916381836,0.8828520774841309,0.3190131187438965,-0.1991419196128845,0.006719512399286,-1.2565488815307615
1772903305234826200,7.979826171875,2.099269390106201,1.3799338340759275,0.4222922325134277,-0.1447749584913253,0.0629190728068351,-1.091004490852356
1772903305253812000,7.99881201171875,2.030364513397217,1.9552372694015503,0.5157890319824219,-0.0946840420365333,0.1270598769187927,-0.9272927641868592
1772903305272797400,8.01779736328125,1.8694419860839844,2.3732852935791016,0.7259368896484375,-0.0445931293070316,0.2138026654720306,-0.7605266571044922
1772903305291783000,8.036782958984375,1.5191912651062012,2.884373664855957,1.0891809463500977,-0.0714711770415306,0.2950477004051208,-0.618806004524231
1772903305310768400,8.055768310546876,0.9218244552612304,3.282221794128418,1.264204502105713,-0.1484401375055313,0.3824013471603393,-0.5381718873977661
1772903305329753900,8.07475390625,0.3078875541687011,3.425779342651367,1.428952693939209,-0.263893574476242,0.4361574649810791,-0.5326740741729736
1772903305348739300,8.0937392578125,-0.1081938743591308,3.392800807952881,1.3519740104675293,-0.3775144219398498,0.4312705397605896,-0.5876519083976746
1772903305367724800,8.112724853515624,-0.2656922340393066,3.289442777633667,1.10093355178833,-0.4471530318260193,0.4105011224746704,-0.6737838387489319
1772903305386710300,8.131710205078125,-0.003119945526123,3.267829418182373,0.862370491027832,-0.4972439408302307,0.3946186602115631,-0.7275399565696716
1772903305405695700,8.15069580078125,0.465186595916748,3.316112995147705,0.7028932571411133,-0.5479456782341003,0.4062250852584839,-0.7098248600959778
1772903305424681200,8.16968115234375,0.8290014266967773,3.392893075942993,0.4311318397521972,-0.5711585879325867,0.4416552484035492,-0.6261364221572876
1772903305443666700,8.188666748046876,1.0663847923278809,3.493003845214844,0.2899036407470703,-0.5821541547775269,0.4917461574077606,-0.4923570156097412
1772903305462652200,8.207652099609374,1.0560379028320312,3.5541634559631348,0.3443446159362793,-0.6255255341529846,0.5131264328956604,-0.3310887217521667
1772903305481637600,8.2266376953125,0.8217329978942871,3.4145424365997314,0.5243926048278809,-0.6933315396308899,0.4764745235443115,-0.194254994392395
1772903305500623000,8.245623046875,0.4640059471130371,3.097722053527832,0.8264474868774414,-0.7898481488227844,0.4544833898544311,-0.1417206227779388
1772903305519608600,8.264608642578125,0.296689510345459,2.631302833557129,1.2747111320495603,-0.9077450633049012,0.4752528071403503,-0.1759290546178817
1772903305538594000,8.283593994140626,0.2248449325561523,1.493282437324524,2.219082832336426,-1.0757328271865845,0.356745034456253,-0.3439168632030487
1772903305557579500,8.30257958984375,1.0423717498779297,0.2140445709228515,2.731173515319824,-1.1233803033828735,0.4447095692157745,-0.4899135529994964
1772903305576565000,8.32156494140625,2.131120204925537,0.3251383304595947,2.693702220916748,-1.1502584218978882,0.8869756460189819,-0.4159989058971405
1772903305595550500,8.340550537109374,1.8948707580566408,0.639073371887207,2.4655494689941406,-1.3518437147140503,1.1563670635223389,-0.3304778337478637
1772903305614536000,8.359535888671875,1.0019049644470217,-0.3076100349426269,2.467597484588623,-1.5570943355560305,1.1001675128936768,-0.4141663312911987
1772903305633521400,8.378521484375,1.349329948425293,-1.929460048675537,2.4597764015197754,-1.590080976486206,0.9016364216804504,-0.5247328281402588
1772903305652507000,8.3975068359375,2.448850154876709,-2.748633861541748,2.386229515075684,-1.5314379930496216,0.8869756460189819,-0.4520399272441864
