time,seconds_elapsed,acc_z,acc_y,acc_x,gyro_z,gyro_y,gyro_x
1772903257143761400,0.125761474609375,-0.1013484001159668,-0.0861109495162963,0.0846176147460937,0.5687150955200195,-0.6829468011856079,0.5088503360748291
1772903257162747600,0.14474755859375,-0.1426944732666015,-0.1595214009284973,0.1700544357299804,0.7739656567573547,-0.6811142563819885,0.7232639193534851
1772903257181734000,0.16373388671875,-0.4711003303527832,-0.4020276069641113,0.2810821533203125,0.9767727851867676,-0.6023126840591431,0.924849271774292
1772903257200720000,0.182719970703125,-0.9682950973510742,-0.4320275783538818,0.3959341049194336,1.082452416419983,-0.6291907429695129,1.0140355825424194
1772903257219706000,0.2017060546875,-1.7390408515930176,-0.5288287401199341,0.508399486541748,1.0018181800842283,-0.7929024696350098,0.8814778923988342
1772903257238692400,0.2206923828125,-2.5808451175689697,-0.582120418548584,0.6615567207336426,0.7415898442268372,-1.0806198120117188,0.4679224193096161
1772903257257678600,0.2396787109375,-2.899834156036377,-0.5452015399932861,0.4084277153015136,0.5338957905769348,-1.4508038759231567,-0.0830776095390319
1772903257276664600,0.25866455078125,-2.664203643798828,-0.5045796036720276,-0.1101326942443847,0.5858193039894104,-1.6957606077194214,-0.5907062292098999
1772903257295650800,0.27765087890625,-1.600369930267334,-0.5923765897750854,-0.241948127746582,0.8142827749252319,-1.9175045490264893,-0.90652334690094
1772903257314636800,0.29663671875,0.2584338188171386,-0.8218960762023926,0.2428202629089355,1.0800089836120603,-2.299294948577881,-0.9773836731910706
1772903257333623000,0.315623046875,1.6081035137176514,-0.558214008808136,1.1372718811035156,1.275485634803772,-2.5937318801879883,-0.8271108865737915
1772903257352609300,0.334609375,2.0954854488372803,-0.3249158859252929,1.599806308746338,1.3616175651550293,-2.7421720027923584,-0.5522217750549316
1772903257371595500,0.353595458984375,1.9689466953277588,-0.1455621123313903,1.8190679550170896,1.4190388917922974,-2.998735189437866,-0.3921751976013183
1772903257390581500,0.37258154296875,1.7871253490447998,0.2735840678215027,2.1168274879455566,1.482568860054016,-3.163668632507324,-0.3988946974277496
1772903257409567700,0.391567626953125,2.1471548080444336,0.7003333568572998,2.8187036514282227,1.497840404510498,-3.0195045471191406,-0.5949822664260864
1772903257428554000,0.410553955078125,2.7442104816436768,1.1337566375732422,2.563422203063965,1.617569923400879,-2.3732097148895264,-1.0134246349334717
1772903257447540000,0.4295400390625,3.665706872940064,1.9177780151367188,2.2793140411376958,1.8619158267974851,-1.4941751956939695,-1.463021159172058
1772903257466526200,0.448526123046875,5.969455718994141,2.810966968536377,2.4877758026123047,2.003636360168457,-0.8185588121414185,-1.666439175605774
1772903257485512200,0.46751220703125,8.071675300598145,3.869091749191284,3.355813980102539,1.9291110038757324,-0.2565632164478302,-1.5589269399642944
1772903257504498400,0.48649853515625,9.787772178649902,5.153897762298584,3.943199157714844,1.6413936614990234,0.1979201883077621,-1.268766164779663
1772903257523484700,0.505484619140625,10.3432035446167,5.998012542724609,3.5691442489624023,1.286481261253357,0.6493492722511292,-0.8710931539535522
1772903257542471000,0.524470947265625,9.568707466125488,6.695836544036865,2.545879364013672,0.916297197341919,1.099556565284729,-0.5094612240791321
1772903257561457000,0.543456787109375,8.026155471801758,6.669080257415772,1.5093278884887695,0.6078104376792908,1.2797616720199585,-0.2590066790580749
1772903257580443100,0.562443115234375,6.821048736572266,6.395023345947266,0.8001327514648438,0.3048215210437774,1.3439024686813354,-0.0006108647794462
1772903257599429400,0.581429443359375,5.571248531341553,5.8928303718566895,0.6249294281005859,-0.0525343716144561,1.3768892288208008,0.2309068888425827
1772903257618415400,0.600415283203125,4.334062099456787,5.264822006225586,0.46490478515625,-0.4324922561645508,1.4422518014907837,0.3781253099441528
1772903257637401600,0.619401611328125,3.221923351287842,4.465081214904785,-0.1023521423339843,-0.7165443897247314,1.4898991584777832,0.4159989058971405
1772903257656387800,0.638387939453125,2.6855854988098145,3.6220743656158447,-0.5472259521484375,-0.8405499458312988,1.431867003440857,0.3756818473339081
1772903257675374000,0.6573740234375,2.715033054351806,2.7137417793273926,-0.6826510429382324,-0.7648026943206787,1.2064579725265503,0.3463603258132934
1772903257694360000,0.676360107421875,3.2903547286987305,1.3288991451263428,0.4089918136596679,-0.6298015713691711,0.9181297421455384,0.4642572402954101
1772903257713346300,0.69534619140625,3.6799330711364746,0.0782573595643043,0.8550658226013184,-0.4996874034404754,0.759304940700531,0.6866120100021362
1772903257732332500,0.71433251953125,3.7312240600585938,-0.4312337338924408,1.3044519424438477,-0.5064069032669067,0.934623122215271,0.94439697265625
1772903257751318500,0.733318603515625,2.936234474182129,-1.1277186870574951,1.817731857299805,-0.6579013466835022,1.3817760944366455,1.1166608333587646
1772903257770304800,0.7523046875,1.8484702110290527,-2.333116054534912,1.2785000801086426,-0.6401863098144531,1.7140865325927734,1.2370011806488037
1772903257789290800,0.771290771484375,0.9434118270874025,-3.3811590671539307,0.19358491897583,-0.3946186602115631,1.6982040405273438,1.370169758796692
1772903257808277000,0.790277099609375,0.2582578659057617,-4.027200698852539,-0.5431103706359863,-0.0812450125813484,1.472795009613037,1.53510320186615
1772903257827263200,0.80926318359375,-0.4446401596069336,-4.227742671966553,-0.1333093643188476,0.0897971242666244,1.311526656150818,1.6627739667892456
1772903257846249500,0.82824951171875,-0.8065910339355469,-4.295553207397461,0.5800509452819824,0.1453858166933059,1.0122029781341553,1.722638726234436
1772903257865235500,0.8472353515625,-0.9402303695678712,-4.329118251800537,0.8745336532592773,0.1252272725105285,0.7250964641571045,1.7330234050750732
1772903257884221700,0.8662216796875,-0.8123774528503418,-4.439972877502441,0.837669849395752,0.1191186308860778,0.6175842881202698,1.7849469184875488
1772903257903208000,0.8852080078125,-0.8268780708312988,-4.567199230194092,0.4841318130493164,0.1771507859230041,0.7330377101898193,1.894291639328003
1772903257922194000,0.90419384765625,-1.37261962890625,-4.557233810424805,0.172149658203125,0.3035998046398163,1.0018181800842283,1.9669846296310425
1772903257941180200,0.92318017578125,-2.0478758811950684,-4.221428871154785,0.1365785598754882,0.4337140023708343,1.240666389465332,1.9633194208145144
1772903257960166400,0.94216650390625,-2.709989547729492,-3.8850481510162354,0.1690516471862793,0.5320632457733154,1.2516618967056274,1.907119870185852
1772903257979152400,0.96115234375,-3.114048957824707,-3.5887417793273926,-0.0265374183654785,0.5778780579566956,0.9816597104072572,1.81304669380188
1772903257998138600,0.980138671875,-3.1807775497436523,-3.323246479034424,-0.2005014419555664,0.5479456782341003,0.6023126840591431,1.692095398902893
1772903258017124900,0.999124755859375,-2.840580940246582,-2.942195177078247,0.2557816505432129,0.3946186602115631,0.3329212963581085,1.5112794637680054
1772903258036110800,1.01811083984375,-2.2091846466064453,-2.667257308959961,0.4663705825805664,0.2217439115047454,0.1704312711954116,1.2760965824127195
1772903258055097000,1.03709716796875,-1.8132567405700684,-2.5180370807647705,0.3786249160766601,0.1441640853881836,0.2425133138895034,1.0494656562805176
1772903258074083300,1.056083251953125,-1.5185298919677734,-2.485177755355835,0.0898666381835937,0.1875354945659637,0.4190532267093658,0.8588758707046509
1772903258093069300,1.0750693359375,-1.5537052154541016,-2.4802253246307373,-0.4187502861022949,0.3634645342826843,0.5711585879325867,0.7061597108840942
1772903258112055600,1.0940556640625,-1.403956413269043,-2.2455697059631348,-0.8966670036315918,0.555276095867157,0.4941896200180053,0.5809323787689209
1772903258131041800,1.113041748046875,-0.9802236557006836,-2.0792367458343506,-0.7164096832275391,0.6432406306266785,0.3610210716724396,0.5253437161445618
1772903258150027800,1.13202783203125,-0.9021282196044922,-2.1080617904663086,-0.2716488838195801,0.675616443157196,0.346971184015274,0.5375609993934631
1772903258169014000,1.151013916015625,-1.1620588302612305,-2.0383100509643555,0.0281414985656738,0.6835576891899109,0.347582072019577,0.5705476999282837
1772903258188000300,1.170000244140625,-1.0969104766845703,-1.924716114997864,0.2803592681884765,0.5815432667732239,0.254730612039566,0.618806004524231
1772903258206986200,1.188986328125,-1.2264471054077148,-1.6438713073730469,0.4260764122009277,0.4111120104789734,0.1673769503831863,0.637742817401886
1772903258225972500,1.207972412109375,-1.8748722076416016,-1.660766839981079,0.2777628898620605,0.2675587832927704,0.0299323741346597,0.5619956254959106
1772903258244958700,1.226958740234375,-2.372439384460449,-1.6733410358428955,-0.1415696144104004,0.2156352698802948,-0.1490510106086731,0.3970620930194855
1772903258263944700,1.24594482421875,-2.8180060386657715,-1.6678829193115234,-0.3318657875061035,0.1936441361904144,-0.2559523284435272,0.2186895906925201
1772903258282931000,1.264930908203125,-2.3850154876708984,-1.6849958896636963,-0.154693603515625,0.1307250559329986,-0.4269944727420807,0.1081230640411377
1772903258301917000,1.2839169921875,-1.7961745262145996,-1.7779757976531982,-0.0569624900817871,0.0525343716144561,-0.4978547990322113,0.1172860413789749
1772903258320903200,1.302903076171875,-1.554445743560791,-1.970931887626648,-0.1259069442749023,0.0335975624620914,-0.4538725316524505,0.1582139730453491
1772903258339889400,1.321889404296875,-1.4915151596069336,-2.012779474258423,-0.4703998565673828,0.1185077652335167,-0.4520399272441864,0.1808159798383712
1772903258358875600,1.340875732421875,-1.6782350540161133,-1.9582102298736568,-0.4064083099365234,0.2364046722650528,-0.5112938284873962,0.1582139730453491
1772903258377861600,1.359861572265625,-1.7280964851379397,-2.027096509933472,0.1107454299926757,0.2926042377948761,-0.6261364221572876,0.0598647482693195
1772903258396847900,1.378847900390625,-1.8252592086791992,-2.1181230545043945,0.5825166702270508,0.2834412455558777,-0.7195987105369568,-0.088575392961502
1772903258415834000,1.397834228515625,-1.9971685409545896,-2.360684394836426,0.7605361938476562,0.287106454372406,-0.7904590368270874,-0.2816086709499359
1772903258434820000,1.416820068359375,-1.9623055458068848,-2.3317413330078125,0.5132241249084473,0.3769035637378692,-0.9413426518440248,-0.4917461574077606
1772903258453806300,1.435806396484375,-1.6248846054077148,-1.9591628313064573,0.5668668746948242,0.5070177912712097,-1.1026109457015991,-0.6401863098144531
1772903258472792300,1.454792236328125,-1.232454776763916,-1.5640828609466553,1.0308756828308103,0.574212908744812,-1.195462346076965,-0.6976075768470764
1772903258491778600,1.473778564453125,-1.0954384803771973,-1.433984875679016,1.234852313995361,0.5766563415527344,-1.293811559677124,-0.749531090259552
1772903258510764800,1.492764892578125,-0.9525437355041504,-1.2795743942260742,1.2598943710327148,0.5852084755897522,-1.4556907415390017,-0.7947350740432739
1772903258529751000,1.5117509765625,-0.7210144996643066,-0.950236201286316,1.5062923431396484,0.5729911923408508,-1.5577051639556885,-0.80389803647995
1772903258548737000,1.530737060546875,-0.4006166458129883,-0.7372441291809082,1.6162924766540527,0.4917461574077606,-1.5723659992218018,-0.8252783417701721
1772903258567723300,1.54972314453125,-0.4733448028564453,-0.6532440185546875,1.4593701362609863,0.4379900395870209,-1.469740629196167,-0.8930842876434326
1772903258586709500,1.56870947265625,-0.5760092735290527,-0.7399529814720154,1.3134145736694336,0.4532616734504699,-1.316413640975952,-0.99021178483963
1772903258605695500,1.587695556640625,-0.5265545845031738,-1.1914949417114258,0.9733552932739258,0.516791582107544,-1.239444613456726,-1.0720677375793457
1772903258624681700,1.606681640625,-0.5894103050231934,-1.4647915363311768,0.5914874076843262,0.5992583632469177,-1.4569125175476074,-1.1545344591140747
1772903258643668000,1.62566796875,-0.0890984535217285,-1.206289291381836,0.6387300491333008,0.6701186895370483,-1.8435899019241333,-1.1936297416687012
1772903258662654000,1.644654052734375,0.9834380149841307,-0.7036664485931396,0.4636926651000976,0.7440332770347595,-2.213163137435913,-1.1404845714569092
1772903258681640200,1.66364013671875,1.3474998474121094,-0.4337174594402313,0.5554990768432617,0.9138537049293518,-2.1282529830932617,-1.0018181800842283
1772903258700626200,1.682626220703125,1.5627474784851074,-0.572027325630188,1.4016809463500977,1.05496346950531,-1.8344268798828125,-0.860708475112915
1772903258719612400,1.7016123046875,1.9078149795532229,-0.3736153244972229,1.633711814880371,1.1136064529418943,-1.6413936614990234,-0.7086031436920166
1772903258738598400,1.720598388671875,1.966010808944702,0.4201924800872803,1.449480056762695,1.0867284536361694,-1.8197661638259888,-0.5821541547775269
1772903258757584600,1.739584716796875,2.544706106185913,1.3085142374038696,0.8848562240600586,1.0903936624526978,-2.176511287689209,-0.4001164436340332
1772903258776571000,1.75857080078125,2.9482452869415283,1.7574622631072998,0.221405029296875,1.227838158607483,-2.266308307647705,-0.1753181964159011
1772903258795557000,1.77755712890625,3.1343331336975098,2.067333698272705,0.1819410324096679,1.3976585865020752,-2.206443548202514,0.0201585385948419
1772903258814543000,1.796543212890625,3.434140920639038,2.615251064300537,0.6192636489868164,1.4911209344863892,-2.1129813194274902,0.1997527778148651
1772903258833529300,1.815529296875,4.101806640625,3.365987062454224,1.466571807861328,1.433088779449463,-2.086103200912476,0.3866774141788482
1772903258852515300,1.834515380859375,4.593477249145508,3.8175225257873535,2.0441198348999023,1.2547162771224976,-1.9822561740875244,0.6212494969367981
1772903258871501600,1.85350146484375,4.651036739349365,3.933912754058838,2.1332836151123047,1.0696241855621338,-1.7550145387649536,0.8387173414230347
1772903258890487800,1.87248779296875,4.665352821350098,4.07206916809082,2.1572265625,0.8271108865737915,-1.4752384424209597,1.0610721111297607
1772903258909473800,1.891473876953125,4.784680843353272,4.153006076812744,1.8721466064453125,0.5009090900421143,-1.3255765438079834,1.3384047746658323
1772903258928460000,1.9104599609375,4.815135002136231,4.078403949737549,1.0767745971679688,0.2193004488945007,-1.1380411386489868,1.6591087579727173
1772903258947446300,1.9294462890625,3.966038703918457,3.784113645553589,0.1882991790771484,0.0384844802320003,-1.045189619064331,1.9120067358016968
1772903258966432300,1.948432373046875,2.86765193939209,3.416823387145996,-0.5047111511230469,-0.0659733936190605,-1.1129956245422363,2.04028844833374
1772903258985418500,1.96741845703125,2.1495561599731445,3.278677463531494,-0.6189765930175781,-0.1820377111434936,-1.1520910263061523,2.1056509017944336
1772903259004404700,1.98640478515625,1.572803616523743,3.3621714115142822,0.0256938934326171,-0.3946186602115631,-1.0592395067214966,2.1056509017944336
1772903259023390700,2.005390625,1.0235141515731812,3.201755285263061,1.129124641418457,-0.720820426940918,-0.8497129082679749,2.020129919052124
1772903259042377000,2.024376953125,0.6777544617652893,2.6345324516296387,1.0632686614990234,-0.9419534802436828,-0.5393936038017273,1.8539745807647705
1772903259061363000,2.043363037109375,0.3248024582862854,2.294928550720215,0.5821437835693359,-0.9828814268112184,-0.2443459182977676,1.6242893934249878
1772903259080349200,2.06234912109375,0.0790548324584961,2.5001420974731445,0.5893640518188477,-1.0360267162322998,-0.0054977829568088,1.3536763191223145
1772903259099335400,2.08133544921875,-0.0300515294075012,2.628120183944702,0.6397476196289062,-1.1307107210159302,0.205861434340477,1.0665699243545532
1772903259118321400,2.1003212890625,-0.0996400117874145,1.7223281860351562,0.7027320861816406,-0.8680388331413269,0.3292561173439026,0.7134900689125061
1772903259137307600,2.1193076171875,0.9754228591918944,0.5316218733787537,1.3299083709716797,-0.1673769503831863,0.5400044918060303,0.5259546041488647
1772903259156294000,2.1382939453125,2.5859546661376958,1.3970781564712524,4.017148971557617,-0.1252272725105285,0.4379900395870209,0.6078104376792908
1772903259175279900,2.15727978515625,2.9149391651153564,2.378066062927246,5.408090591430664,-0.6579013466835022,0.1624900251626968,0.6707295179367065
1772903259194266000,2.17626611328125,2.268369436264038,1.863256335258484,5.543408393859863,-1.432477951049805,0.4159989058971405,0.6304124593734741
1772903259213252000,2.195252197265625,2.716346502304077,-0.146721750497818,3.234342575073242,-1.8551963567733765,1.0519092082977295,0.6212494969367981
1772903259232238300,2.21423828125,2.116992473602295,-0.953740119934082,1.0272064208984375,-1.862526655197144,1.112384796142578,0.6798924803733826
1772903259251224600,2.233224609375,2.915925979614258,-1.6468358039855957,-0.4996213912963867,-1.7122539281845093,1.1068869829177856,0.971885859966278
1772903259270210600,2.25221044921875,3.408313274383545,-2.3736958503723145,-0.2998027801513672,-1.450192928314209,0.8588758707046509,1.3634501695632937
1772903259289196800,2.27119677734375,3.4131388664245605,-2.7875218391418457,1.0626678466796875,-1.2858703136444092,0.6640099883079529,1.7684534788131714
1772903259317676000,2.299676025390625,2.1897363662719727,-3.092846632003784,2.36721420288086,-1.323133111000061,0.4886918365955353,2.048229694366455
1772903259336662300,2.318662353515625,1.3172411918640137,-3.279906988143921,2.69364070892334,-1.4031563997268677,0.5577195286750793,1.9730932712554927
1772903259355648300,2.337648193359375,0.6111865043640137,-3.693148136138916,2.732325553894043,-1.5247185230255127,0.7849612236022949,1.7873903512954712
1772903259374634500,2.356634521484375,0.1216170787811279,-4.140383720397949,2.225876808166504,-1.6236785650253296,1.026863694190979,1.5674790143966677
1772903259393620700,2.375620849609375,-0.2644329071044922,-4.496403217315674,1.120075225830078,-1.6084070205688477,1.1490366458892822,1.350622057914734
1772903259412606700,2.394606689453125,-0.2806987762451172,-4.868299007415772,0.5218791961669922,-1.5027273893356323,1.1808016300201416,1.2003493309020996
1772903259431593000,2.413593017578125,-0.236818790435791,-5.293605804443359,0.2851228713989258,-1.389106512069702,1.1789690256118774,1.1490366458892822
1772903259450579200,2.4325791015625,-0.176384687423706,-5.743561744689941,-0.0376062393188476,-1.277318239212036,1.1068869829177856,1.1869102716445925
1772903259469565200,2.451565185546875,-0.1765382289886474,-6.144530296325684,-0.3158731460571289,-1.1630865335464478,0.963333785533905,1.313359260559082
1772903259488551400,2.470551513671875,-0.504554271697998,-6.386435508728027,-0.8324155807495117,-0.998153030872345,0.7727439403533936,1.4275909662246704
1772903259507537400,2.489537353515625,-1.108039617538452,-6.446652412414551,-1.5766525268554688,-0.7599157691001892,0.6084213256835938,1.4434734582901
1772903259526523600,2.508523681640625,-1.7162708044052124,-6.280844688415527,-2.2412900924682617,-0.4428769648075104,0.462424635887146,1.32985258102417
1772903259545510000,2.527510009765625,-2.066604852676392,-6.058044910430908,-2.613779067993164,-0.088575392961502,0.3878991305828094,1.1331541538238523
1772903259564496000,2.546495849609375,-2.062718629837036,-5.685502052307129,-2.3916807174682617,0.2296851575374603,0.3995055556297302,0.9303470849990844
1772903259583482000,2.565482177734375,-1.8548542261123655,-5.401853561401367,-2.0333218574523926,0.4550942480564117,0.4318813979625702,0.7690787315368652
1772903259602468400,2.58446826171875,-1.8092405796051023,-5.150352478027344,-1.8231239318847656,0.6249146461486816,0.3781253099441528,0.6591231226921082
1772903259621454300,2.603454345703125,-1.78147292137146,-4.869732856750488,-1.9024362564086916,0.8063415288925171,0.194254994392395,0.5943714380264282
1772903259640440300,2.6224404296875,-1.7849915027618408,-4.381868362426758,-1.9434561729431152,1.033583164215088,-0.0274889152497053,0.5375609993934631
1772903259659426600,2.641426513671875,-1.909546971321106,-3.945146799087525,-1.5573549270629885,1.2681553363800049,-0.1582139730453491,0.4630354940891266
1772903259678412800,2.660412841796875,-1.830580711364746,-3.5323214530944824,-0.9885416030883788,1.4581341743469238,-0.2412915825843811,0.4025598764419555
1772903259697398800,2.679398681640625,-1.4598157405853271,-3.11942720413208,-0.3514556884765625,1.5821397304534912,-0.3964512348175049,0.4105011224746704
1772903259716385000,2.698385009765625,-1.2184252738952637,-2.8981175422668457,0.2486276626586914,1.7232495546340942,-0.6267472505569458,0.4972439408302307
1772903259735371300,2.717371337890625,-1.27701735496521,-2.9187533855438232,1.2628631591796875,1.916893720626831,-0.8265000581741333,0.5754346251487732
1772903259754357200,2.736357177734375,-1.881965160369873,-2.78666615486145,2.040940284729004,2.1032073497772217,-0.9193515181541444,0.4514290690422058
1772903259773343500,2.755343505859375,-2.376558780670166,-1.895873785018921,2.465768814086914,2.207054376602173,-0.7898481488227844,0.1142317131161689
1772903259792329700,2.774329833984375,-2.184237480163574,-0.6851236820220947,2.412504196166992,2.185063362121582,-0.5436696410179138,-0.3170388340950012
1772903259811315700,2.793315673828125,-1.697621464729309,0.2079808712005615,2.046961784362793,2.076329469680786,-0.2651153206825256,-0.6982184648513794
1772903259830302000,2.812302001953125,-0.8466810584068298,0.8056182861328125,1.6470279693603516,1.935219645500183,-0.0653625279664993,-0.907134175300598
1772903259849288000,2.831287841796875,0.1301959753036499,0.9312375783920288,1.3828582763671875,1.8264856338500977,-0.1246164143085479,-0.9297361969947816
1772903259868274200,2.850274169921875,1.0639275312423706,0.7522150278091431,1.7358407974243164,1.7751730680465698,-0.360410213470459,-0.7696896195411682
1772903259887260400,2.869260498046875,1.824967384338379,0.6193221211433411,2.4118032455444336,1.740964651107788,-0.5632173418998718,-0.4893026947975158
1772903259906246400,2.888246337890625,2.176954507827759,0.8757845163345337,2.8761720657348637,1.7085888385772705,-0.627968966960907,-0.2119700759649276
1772903259925232600,2.907232666015625,2.1393635272979736,1.3992667198181152,3.0396947860717773,1.619402527809143,-0.5369501113891602,-0.0293215103447437
1772903259944219000,2.926218994140625,1.9873144626617432,1.916339635848999,2.8610076904296875,1.4355322122573853,-0.3359756171703338,0.0519235059618949
1772903259963204900,2.945204833984375,1.7535734176635742,2.2880804538726807,2.219866752624512,1.238833785057068,-0.1069013327360153,0.0531452372670173
1772903259982190800,2.96419091796875,1.8234286308288572,2.5139195919036865,1.5022954940795898,1.0965023040771484,0.0329866968095302,0.0726929083466529
1772903260001177000,2.983177001953125,2.160435438156128,2.790956735610962,0.6514005661010742,1.0207550525665283,0.0458148568868637,0.185092031955719
1772903260020163300,3.002163330078125,2.425166606903076,3.070270538330078,0.0993404388427734,0.9743293523788452,-0.067805990576744,0.3695732057094574
1772903260039149300,3.0211494140625,2.6039395332336426,3.258175849914551,0.0281143188476562,0.9034690260887146,-0.1808159798383712,0.5827649831771851
1772903260058135600,3.040135498046875,2.528826713562012,3.4201769828796387,0.2743921279907226,0.7935133576393127,-0.2162461280822754,0.7715222239494324
1772903260077121800,3.059121826171875,2.266927719116211,3.448615550994873,0.579625129699707,0.6304124593734741,-0.2266308367252349,0.9089667797088624
1772903260096107800,3.078107666015625,1.9953820705413816,3.45015811920166,0.7096052169799805,0.4184423685073852,-0.2449567764997482,0.980437994003296
1772903260115094000,3.097093994140625,1.6142878532409668,3.4193153381347656,0.3858318328857422,0.2266308367252349,-0.2761108875274658,0.9511164426803588
1772903260134080300,3.116080322265625,1.4133684635162354,3.3350090980529785,-0.0396070480346679,0.1252272725105285,-0.2107483446598053,0.8460476994514465
1772903260153066200,3.135066162109375,1.4233813285827637,3.260773181915283,0.0096540451049804,0.0696385875344276,-0.0427605360746383,0.7153226733207703
1772903260172052500,3.154052490234375,1.489428162574768,3.2576398849487305,0.0708122253417968,0.0299323741346597,0.1973093301057815,0.5845975875854492
1772903260191038500,3.17303857421875,1.5960164070129397,2.982995986938477,0.4953756332397461,-0.078190691769123,0.4001164436340332,0.4978547990322113
1772903260210024700,3.192024658203125,1.8269273042678835,3.0041427612304688,0.1301593780517578,-0.2174678593873977,0.4789179861545563,0.4831940531730652
1772903260229010700,3.2110107421875,2.087575435638428,2.9638166427612305,-0.3587093353271484,-0.318871408700943,0.3481929302215576,0.5510000586509705
1772903260247997000,3.229996826171875,2.0791797637939453,2.6384432315826416,-0.5633754730224609,-0.3402516841888428,0.185092031955719,0.6585122346878052
1772903260266983200,3.248983154296875,1.9462480545043943,2.083688497543335,-0.2755117416381836,-0.3005454838275909,0.0647516697645187,0.749531090259552
1772903260285969200,3.26796923828125,2.0191235542297363,1.5428285598754885,0.1313276290893554,-0.2076940238475799,0.0788015574216842,0.8527672290802002
1772903260304955400,3.286955322265625,2.252355098724365,1.1376687288284302,0.7795391082763672,-0.0647516697645187,0.1288924664258957,0.9419534802436828
1772903260323941400,3.30594140625,2.29298734664917,0.5556157827377319,1.8141956329345703,0.0665842592716217,0.1337793916463852,0.97921621799469
1772903260342927600,3.324927734375,2.3718419075012207,0.2067079544067382,3.104731559753418,0.0836884751915931,0.0891862586140632,0.9950987100601196
1772903260361913900,3.343913818359375,2.7592506408691406,0.0122408866882324,3.395583152770996,0.0189368072897195,0.0757472291588783,1.053130865097046
1772903260380899800,3.36289990234375,3.1138486862182617,0.3158270120620727,3.620972633361816,-0.1759290546178817,0.0507017783820629,1.2205078601837158
1772903260399886000,3.381885986328125,3.164729356765747,0.4392986297607422,3.417597770690918,-0.5204567909240723,-0.1026252806186676,1.4440842866897583
1772903260418872000,3.4008720703125,2.921311378479004,-0.1083909273147583,2.829672813415528,-0.8472694754600525,-0.2852738499641418,1.6774346828460691
1772903260437858300,3.4198583984375,2.6915829181671143,-0.911872386932373,1.7348947525024414,-1.0555742979049685,-0.3194822669029236,1.8900156021118164
1772903260456844300,3.43884423828125,2.4520158767700195,-1.3963019847869873,0.8718852996826172,-1.166751742362976,-0.0280997790396213,2.017686367034912
1772903260475830500,3.45783056640625,1.985251307487488,-1.401397705078125,0.1247386932373046,-1.2382229566574097,0.3097084462642669,2.0237951278686523
1772903260494816800,3.476816650390625,1.3754699230194092,-1.566588044166565,-0.6383180618286133,-1.250440239906311,0.5674933791160583,1.9303326606750488
1772903260513802800,3.495802734375,1.151024341583252,-2.1840031147003174,-0.8533926010131836,-1.1795798540115356,0.564439058303833,1.8454225063323972
1772903260532789000,3.5147890625,1.5061137676239014,-2.892908096313477,-0.1823806762695312,-1.1331541538238523,0.3909534513950348,1.8967351913452148
1772903260551775200,3.533775146484375,1.6363246440887451,-3.5056416988372803,0.4389066696166992,-1.145371437072754,0.1563813835382461,2.032958030700684
1772903260570761200,3.55276123046875,1.4418644905090332,-4.057783603668213,0.6443548202514648,-1.1838558912277222,-0.1337793916463852,2.1135921478271484
1772903260589747200,3.571747314453125,1.045534610748291,-4.18718147277832,0.3691940307617187,-1.2162318229675293,-0.2901607751846313,2.0445644855499268
1772903260608733400,3.5907333984375,0.6838730573654175,-4.183365345001221,-0.195652961730957,-1.1924080848693848,-0.2351829409599304,1.803883671760559
1772903260627719700,3.6097197265625,0.4667336940765381,-4.127867698669434,-0.7274942398071289,-1.0873392820358276,0.0403170771896839,1.4844014644622805
1772903260646705700,3.62870556640625,0.3755707740783691,-4.120292663574219,-1.0540847778320312,-0.9419534802436828,0.4178315103054046,1.1795798540115356
1772903260665692000,3.64769189453125,0.3057986497879028,-4.210396766662598,-1.3173675537109375,-0.7812960743904114,0.6609556674957275,0.9138537049293518
1772903260684678100,3.66667822265625,0.2714278697967529,-4.258918762207031,-1.6424694061279297,-0.6090322136878967,0.729983389377594,0.6847794055938721
1772903260703664000,3.6856640625,0.3918948173522949,-4.271181106567383,-1.766493320465088,-0.4477638900279999,0.7141009569168091,0.5283980369567871
1772903260722650400,3.704650390625,0.5277607440948486,-4.254092216491699,-1.7088823318481443,-0.3384190797805786,0.6340776681900024,0.4679224193096161
1772903260741636400,3.72363623046875,0.5714919567108154,-4.372194766998291,-1.6276140213012695,-0.2522871494293213,0.5540543794631958,0.4746419191360473
1772903260760622600,3.74262255859375,0.3541789054870605,-4.348160743713379,-1.7004384994506836,-0.1563813835382461,0.5259546041488647,0.4819723069667816
1772903260779608600,3.761608642578125,-0.0805702209472656,-4.296137809753418,-1.9946765899658203,-0.0305432397872209,0.4807505905628204,0.4495964646339416
1772903260798594800,3.7805947265625,-0.3830444812774658,-4.196743965148926,-2.281054973602295,0.1343902498483657,0.3518581092357635,0.3940077722072601
1772903260817581000,3.7995810546875,-0.4504261016845703,-4.068717002868652,-2.173442840576172,0.3042106628417969,0.1649334877729416,0.3628536760807037
1772903260836567000,3.818567138671875,-0.5017591714859009,-3.96162223815918,-1.8978662490844729,0.4343248605728149,0.0085521070286631,0.3433060050010681
1772903260855553300,3.83755322265625,-0.7888438701629639,-3.903012275695801,-1.6924829483032229,0.5503891706466675,-0.0372627526521682,0.2559523284435272
1772903260874539300,3.856539306640625,-1.037370204925537,-3.75150990486145,-1.6990423202514648,0.6847794055938721,0.0140498895198106,0.1056796088814735
1772903260893525500,3.875525390625,-1.1177078485488892,-3.609991788864136,-1.6396145820617676,0.8588758707046509,0.0592538826167583,-0.0427605360746383
1772903260912511500,3.894511474609375,-0.9250379800796508,-3.350259780883789,-1.392716407775879,1.046411395072937,0.0390953458845615,-0.1276707351207733
1772903260931497700,3.913497802734375,-0.7171447277069092,-3.111541271209717,-0.976506233215332,1.2168426513671875,-0.0427605360746383,-0.1325576603412628
1772903260950484000,3.93248388671875,-0.7245138883590698,-2.9082398414611816,-0.5757989883422852,1.351232886314392,-0.1350011229515075,-0.1136208474636077
1772903260969470000,3.951469970703125,-0.6415064334869385,-2.612513542175293,-0.114506721496582,1.4343105554580688,-0.268169641494751,-0.0806341543793678
1772903260988456200,3.970456298828125,-0.5075019598007202,-2.460979461669922,0.5688495635986328,1.4666863679885864,-0.4043924808502197,-0.0598647482693195
1772903261007442200,3.989442138671875,-0.5360937118530273,-2.6968793869018555,1.3455848693847656,1.5277727842330933,-0.62857985496521,-0.1081230640411377
1772903261026428400,4.008428466796875,-0.4186799526214599,-2.890604257583618,2.3671770095825195,1.629176378250122,-0.7794634699821472,-0.194254994392395
1772903261045414400,4.027414306640625,-0.1002054214477539,-2.571997880935669,2.8886375427246094,1.719584345817566,-0.6524035930633545,-0.2932150959968567
1772903261064400600,4.046400634765625,0.2943596839904785,-1.3488609790802002,2.37002182006836,1.701869249343872,-0.3072649836540222,-0.3946186602115631
1772903261083386600,4.06538671875,0.7870604991912842,0.0709111392498016,1.6096296310424805,1.5992439985275269,-0.098960094153881,-0.4282162189483642
1772903261102372900,4.084372802734375,1.194080829620361,0.824899435043335,1.2103872299194336,1.4911209344863892,-0.1130099818110466,-0.3420842885971069
1772903261121359000,4.103359130859375,1.246637940406799,1.1039412021636963,1.206411361694336,1.378721833229065,-0.2498437017202377,-0.1948658674955368
1772903261140345000,4.122344970703125,1.1611852645874023,1.072240114212036,1.5775012969970703,1.2809834480285645,-0.4355465769767761,-0.0855210721492767
1772903261159331300,4.141331298828125,1.2414052486419678,0.99137282371521,2.1478662490844727,1.21928608417511,-0.4966330528259277,-0.0073303775861859
1772903261178317300,4.1603173828125,1.4429922103881836,1.0859812498092651,2.7414941787719727,1.156977891921997,-0.3439168632030487,0.0855210721492767
1772903261197303600,4.179303466796875,1.389458417892456,1.588221788406372,2.6204376220703125,1.0207550525665283,-0.067805990576744,0.1496618688106537
1772903261216289800,4.198289794921875,1.1634230613708496,2.27207612991333,1.8111324310302732,0.861319363117218,0.143553227186203,0.1545487940311432
1772903261235275800,4.21727587890625,0.8502897024154663,2.719653844833374,0.9718704223632812,0.7458658814430237,0.2571740746498108,0.1386663019657135
1772903261254262000,4.236261962890625,0.701606273651123,2.965623140335083,0.3832321166992187,0.6725621223449707,0.3133736252784729,0.1606574356555938
1772903261273248000,4.255248046875,0.5998052358627319,3.0152220726013184,0.0729026794433593,0.627968966960907,0.2675587832927704,0.2235765159130096
1772903261292234200,4.274234130859375,0.4034818410873413,3.010446786880493,-0.0774307250976562,0.5992583632469177,0.1551596522331237,0.2981020212173462
1772903261311220200,4.29322021484375,0.1764307022094726,3.2268857955932617,-0.0352420806884765,0.5907062292098999,0.0342084281146526,0.3573558926582336
1772903261330206500,4.31220654296875,-0.0688154697418212,3.442992210388184,0.5102701187133789,0.5479456782341003,-0.0598647482693195,0.3628536760807037
1772903261349192400,4.3311923828125,-0.3940621614456177,3.5822486877441406,1.155364990234375,0.4288270771503448,-0.1343902498483657,0.2840521335601806
1772903261368178700,4.3501787109375,-0.5472412109375,3.6908698081970215,1.477010726928711,0.2828303873538971,-0.1582139730453491,0.1392771750688552
1772903261387165000,4.3691650390625,-0.4055415391921997,3.784379959106445,1.6075029373168943,0.1478292793035507,-0.119729496538639,-0.0048869182355701
1772903261406151000,4.38815087890625,-0.1543681621551513,3.767679929733277,1.736140251159668,0.0140498895198106,-0.0183259434998035,-0.1191186308860778
1772903261425137200,4.40713720703125,0.0751895904541015,3.66848087310791,1.9180383682250977,-0.1545487940311432,0.1227838173508644,-0.1802051067352295
1772903261444123100,4.426123046875,0.2865408658981323,3.462042808532715,1.7005252838134766,-0.3323104381561279,0.2015853822231292,-0.1747073233127594
1772903261463109400,4.445109375,0.3984174728393554,3.3169937133789062,1.2049827575683594,-0.4660898149013519,0.233961209654808,-0.1062904745340347
1772903261482095400,4.464095458984375,0.3564968109130859,3.1555774211883545,0.7704706192016602,-0.5613847374916077,0.2278525680303573,-0.0054977829568088
1772903261501081600,4.48308154296875,0.1641120910644531,2.969778060913086,0.4652786254882812,-0.6542361974716187,0.1826485693454742,0.0922405794262886
1772903261520067800,4.50206787109375,-0.0804017782211303,2.7247443199157715,0.3026046752929687,-0.7446441650390625,0.1117882579565048,0.1557705253362655
1772903261539053800,4.5210537109375,-0.4312112331390381,2.38787841796875,0.1285638809204101,-0.7904590368270874,0.0464257225394248,0.1667660921812057
1772903261558039800,4.540039794921875,-0.6654903888702393,2.004521131515503,0.1383914947509765,-0.8100066781044006,-0.0085521070286631,0.1038470119237899
1772903261577026000,4.559026123046875,-0.699108362197876,1.7409895658493042,0.1638088226318359,-0.7977893948554993,-0.0232128612697124,-0.0030543238390237
1772903261596012300,4.57801220703125,-0.5452649593353271,1.4980354309082031,0.2937402725219726,-0.7452550530433655,0.0097738364711403,-0.1148425787687301
1772903261614998300,4.596998291015625,-0.2297208309173584,1.3999892473220823,0.5202150344848633,-0.6963858604431152,0.0244345907121896,-0.1918115466833114
1772903261633984500,4.615984619140625,0.1341409683227539,1.289538025856018,0.8959770202636719,-0.6988292932510376,0.0488691814243793,-0.2235765159130096
1772903261652970500,4.634970458984375,0.3078005313873291,1.1289643049240112,1.3825922012329102,-0.7922916412353516,0.036651886999607,-0.2510654330253601
1772903261671956700,4.653956787109375,0.2684160470962524,0.0796337127685546,1.913995742797852,-0.7556397318840027,-0.1740964651107788,-0.347582072019577
1772903261690942700,4.672942626953125,0.7825617790222168,-0.429696261882782,2.470860481262207,-0.5674933791160583,-0.1007926911115646,-0.3353647589683532
1772903261709929000,4.691928955078125,1.4316048622131348,0.1340259313583374,3.402867317199707,-0.5418370366096497,0.0635299384593963,-0.192422404885292
1772903261728915000,4.7109150390625,1.205862283706665,0.350142240524292,3.7901296615600586,-0.7483093738555908,0.0934623107314109,-0.2015853822231292
1772903261747901200,4.729901123046875,0.76641845703125,0.4930840134620666,3.365309715270996,-1.0415244102478027,0.3182605504989624,-0.3017672002315521
1772903261766887200,4.74888720703125,0.6034483909606934,0.2821125984191894,2.475397109985352,-1.3072506189346311,0.6230821013450623,-0.38850998878479
1772903261785873400,4.767873291015625,0.548846960067749,-0.1890788376331329,1.299454689025879,-1.452636480331421,0.8600975871086121,-0.4001164436340332
1772903261804859600,4.786859619140625,0.4244067668914795,-0.6034518480300903,0.3950366973876953,-1.5015056133270264,1.0042617321014404,-0.2785543501377105
1772903261823845600,4.805845703125,0.1714682579040527,-1.2749741077423096,0.1347856521606445,-1.4941751956939695,0.8735366463661194,-0.1069013327360153
1772903261842832000,4.824831787109375,-0.2376055717468261,-2.101327896118164,0.2306070327758789,-1.444695234298706,0.6243038177490234,0.0397062115371227
1772903261861817900,4.84381787109375,-0.551072359085083,-2.695601463317871,0.4618797302246094,-1.4025455713272097,0.4709767401218414,0.1380554437637329
1772903261880804000,4.86280419921875,-0.8717851638793945,-3.142322063446045,0.5538063049316406,-1.3768892288208008,0.4770853817462921,0.1649334877729416
1772903261899790000,4.8817900390625,-1.2506096363067627,-3.2824349403381348,0.1832199096679687,-1.3371829986572266,0.5540543794631958,0.1191186308860778
1772903261918776300,4.9007763671875,-1.5610387325286863,-3.328742504119873,-0.3656721115112304,-1.2528836727142334,0.5497782826423645,0.0323758348822593
1772903261937762300,4.91976220703125,-1.6780478954315186,-3.363373279571533,-0.7026758193969727,-1.1404845714569092,0.4392117857933044,-0.0586430206894874
1772903261956748500,4.93874853515625,-1.6705678701400757,-3.483377695083618,-0.6778421401977539,-1.0482439994812012,0.3231474757194519,-0.1295033395290374
1772903261975734800,4.95773486328125,-1.609386324882507,-3.651457071304321,-0.5773525238037109,-0.998153030872345,0.2785543501377105,-0.1979201883077621
1772903261994720800,4.976720703125,-1.6280248165130615,-3.872288227081299,-0.7464475631713867,-0.9272927641868592,0.2932150959968567,-0.2486219704151153
1772903262013707000,4.99570703125,-1.784681797027588,-4.118771553039551,-1.0960664749145508,-0.8008437156677246,0.2803869247436523,-0.2926042377948761
1772903262032693000,5.01469287109375,-1.8870813846588133,-4.24332332611084,-1.3357009887695312,-0.6407971382141113,0.2266308367252349,-0.3298669755458832
1772903262051679200,5.03367919921875,-1.8580453395843504,-4.217796325683594,-1.6617860794067385,-0.4508182108402252,0.1240055486559867,-0.3402516841888428
1772903262070665200,5.052665283203125,-1.8698809146881104,-3.990057945251465,-1.7898221015930176,-0.2394589930772781,-0.0036651887930929,-0.3365865051746368
1772903262089651500,5.0716513671875,-2.0017189979553223,-3.800504207611084,-1.6705255508422852,-0.0665842592716217,-0.0861319303512573,-0.3524689674377441
1772903262108637400,5.090637451171875,-2.1503829956054688,-3.5262768268585205,-1.539454460144043,0.0555886961519718,-0.1099556609988212,-0.4221075773239136
1772903262127623700,5.109623779296875,-2.1720993518829346,-3.2999267578125,-1.4428300857543943,0.1545487940311432,-0.1148425787687301,-0.5076286196708679
1772903262146609700,5.128609619140625,-2.130091667175293,-3.080739974975586,-1.485443115234375,0.2559523284435272,-0.131946787238121,-0.6004800796508789
1772903262165596000,5.147595947265625,-2.171548366546631,-2.913782119750977,-1.465479850769043,0.3860665261745453,-0.1136208474636077,-0.7079922556877136
1772903262184582000,5.166581787109375,-2.174357414245605,-2.806619882583618,-1.297365665435791,0.5290089249610901,-0.1191186308860778,-0.8240565657615662
1772903262203568000,5.185568115234375,-2.023674249649048,-2.635617017745972,-1.079240798950195,0.6456840634346008,-0.2278525680303573,-0.9279035925865172
1772903262222554000,5.20455419921875,-1.7098199129104614,-2.4097208976745605,-0.7785253524780273,0.720820426940918,-0.3628536760807037,-0.9993748068809508
1772903262241540400,5.223540283203125,-1.415724515914917,-2.1982383728027344,-0.4566240310668945,0.7544180154800415,-0.4728093445301056,-1.0512982606887815
1772903262260526600,5.242526611328125,-1.1165082454681396,-1.9578487873077397,-0.1109447479248046,0.7513636946678162,-0.5754346251487732,-1.0971131324768066
1772903262279512600,5.2615126953125,-0.788032054901123,-1.6611945629119873,-0.0711250305175781,0.7464767694473267,-0.6517927050590515,-1.1404845714569092
1772903262298498600,5.28049853515625,-0.3625421524047851,-1.348624348640442,-0.0858392715454101,0.7648026943206787,-0.7147117853164673,-1.1673625707626345
1772903262317484800,5.29948486328125,0.1350312232971191,-1.2440074682235718,-0.0557870864868164,0.7947350740432739,-0.8594867587089539,-1.175914645195007
1772903262336471000,5.318470947265625,0.7879993915557861,-1.1764501333236694,0.3740110397338867,0.8393282294273376,-0.9963204264640808,-1.1343759298324585
1772903262355457000,5.33745703125,1.2785723209381104,-1.3907326459884644,1.4791889190673828,0.8851430416107178,-1.2498292922973633,-1.1050543785095217
1772903262374443300,5.356443359375,1.5365371704101562,-2.1982622146606445,3.110480308532715,0.9761618971824646,-1.4214823246002195,-1.1606431007385254
1772903262393429200,5.37542919921875,2.0178792476654053,-2.6355972290039062,4.611681938171387,1.018311619758606,-1.1563670635223389,-1.2553271055221558
1772903262412415500,5.39441552734375,2.252692461013794,-2.327341318130493,4.565395355224609,0.8124501705169678,-0.4868592321872711,-1.4440842866897583
1772903262431401500,5.4134013671875,2.816582441329956,-1.1392897367477417,2.690633773803711,0.4098902642726898,0.0818558782339096,-1.6316198110580444
1772903262450387700,5.4323876953125,2.784509420394897,0.2135019302368164,-0.5321016311645508,0.3090975880622864,0.5216785073280334,-1.6340632438659668
1772903262469373700,5.451373779296875,2.581944704055786,0.508203387260437,-2.486172676086426,0.6224712133407593,0.5039634704589844,-1.4911209344863892
1772903262488360000,5.47035986328125,2.675713300704956,0.1444910764694214,-1.8542490005493164,1.0213658809661863,0.1233946830034256,-1.2699878215789795
1772903262507346200,5.48934619140625,2.845717668533325,0.0901319980621337,0.0485010147094726,1.25715970993042,-0.1869246214628219,-1.0018181800842283
1772903262526332200,5.508332275390625,2.997673749923706,0.6922577619552612,1.8011493682861328,1.175914645195007,-0.2693913578987121,-0.7464767694473267
1772903262545318100,5.527318115234375,2.631991386413574,1.5556657314300537,2.3358583450317383,0.8179479241371155,-0.0904079899191856,-0.6059778332710266
1772903262564304400,5.546304443359375,1.9697740077972408,2.146265745162964,1.6034841537475586,0.4153880476951599,0.1130099818110466,-0.6798924803733826
1772903262583290400,5.565290283203125,1.1334114074707031,2.272693634033203,0.2036094665527343,0.2009745091199875,0.3194822669029236,-0.8631519079208374
1772903262602276600,5.584276611328125,0.7803258895874023,2.34903621673584,-0.9618444442749025,0.1985310465097427,0.536339282989502,-1.007315993309021
1772903262621262800,5.603262939453125,0.7498881816864014,2.524597644805908,-1.3808002471923828,0.2474002391099929,0.5809323787689209,-1.0965023040771484
1772903262640248800,5.622248779296875,0.7274737358093262,2.7548470497131348,-1.238176345825195,0.2235765159130096,0.5326740741729736,-1.14659321308136
1772903262659234800,5.64123486328125,0.5655927658081055,3.031241178512573,-0.9746017456054688,0.1569922417402267,0.4703658819198608,-1.2174534797668457
1772903262678221000,5.660220947265625,0.3598513603210449,3.233603239059448,-0.8429460525512695,0.1337793916463852,0.4752528071403503,-1.3365721702575684
1772903262697207300,5.679207275390625,0.3950283527374267,3.4053385257720947,-0.4517383575439453,0.150883600115776,0.675616443157196,-1.4782928228378296
1772903262716193300,5.698193359375,0.576491117477417,3.611796140670776,0.2099428176879882,0.1484401375055313,0.9816597104072572,-1.6084070205688477
1772903262735179500,5.717179443359375,0.7582955360412598,3.5564026832580566,1.0365333557128906,0.0122172953560948,1.1820234060287476,-1.7342450618743896
1772903262754165500,5.73616552734375,0.779343843460083,3.2761778831481934,1.417801856994629,-0.2064722925424575,1.2626575231552124,-1.859472393989563
1772903262773151700,5.75515185546875,0.8743114471435547,3.3275346755981445,1.454960823059082,-0.3958403766155243,1.380554437637329,-1.868635416030884
1772903262792137700,5.7741376953125,1.0348260402679443,3.4028737545013428,1.4401941299438477,-0.554665207862854,1.3946043252944946,-1.7947207689285278
1772903262811124000,5.7931240234375,1.126060962677002,3.4252398014068604,1.4980669021606443,-0.7269290685653687,1.3072506189346311,-1.6810998916625977
1772903262830110000,5.81210986328125,1.204890489578247,3.50156307220459,1.467024803161621,-0.8869756460189819,1.2620465755462646,-1.5418226718902588
1772903262849096200,5.83109619140625,0.921790599822998,3.516607522964477,1.5939035415649414,-0.971885859966278,1.296255111694336,-1.433699607849121
1772903262868082200,5.850082275390625,0.3778421878814697,3.230178117752075,2.262833595275879,-1.0665699243545532,1.5179989337921145,-1.389106512069702
1772903262887068400,5.869068359375,-0.227480411529541,2.693320751190185,2.800259590148926,-1.258381485939026,1.8380920886993408,-1.4147628545761108
1772903262906054400,5.888054443359375,-0.6820111274719238,2.356022596359253,2.7520627975463867,-1.4575233459472656,2.114202976226806,-1.4605777263641355
1772903262925040600,5.90704052734375,-0.848365306854248,2.12506365776062,2.77152156829834,-1.5375466346740725,2.2290456295013428,-1.4550799131393433
1772903262944026600,5.926026611328125,-0.99808931350708,1.0377174615859983,3.3940906524658203,-1.492953538894653,2.2895212173461914,-1.4367539882659912
1772903262963012900,5.945012939453125,-0.9674839973449708,0.2462466955184936,4.463686943054199,-1.425147533416748,2.5222606658935547,-1.433699607849121
1772903262981998800,5.963998779296875,-0.9284238815307616,-0.997995138168335,5.948020935058594,-1.515555500984192,2.6835289001464844,-1.6004657745361328
1772903263000985000,5.982985107421875,-0.6866774559020996,-1.926303505897522,7.064493179321289,-1.884517788887024,2.877784013748169,-1.8533637523651123
1772903263019971000,6.00197119140625,0.2343678474426269,-1.982665777206421,6.720038414001465,-2.3206753730773926,3.282787322998047,-1.884517788887024
1772903263038957300,6.020957275390625,1.1532869338989258,-1.8954650163650515,5.3617777824401855,-2.6059491634368896,3.658469200134277,-1.580307126045227
1772903263057943300,6.039943359375,0.7760214805603027,-1.928023219108581,3.1368908882141118,-2.5668537616729736,3.791637659072876,-1.0592395067214966
1772903263076929500,6.058929443359375,-0.2031135559082031,-1.4726566076278689,1.6015844345092771,-2.2650866508483887,3.640143156051636,-0.471587598323822
1772903263095915500,6.07791552734375,-1.5565643310546875,-1.3262802362442017,1.3722505569458008,-1.9920300245285036,3.2223117351531982,0.0500909127295017
1772903263114901800,6.09690185546875,-2.9273271560668945,-1.5144438743591309,1.8805413246154783,-1.860694169998169,2.607170820236206,0.3744601011276245
1772903263133887700,6.1158876953125,-3.677539348602295,-1.7854644060134888,2.263805389404297,-1.7238603830337524,2.0054690837860107,0.4831940531730652
1772903263152874000,6.1348740234375,-3.580150604248047,-2.1603283882141118,3.121912002563477,-1.6401718854904177,1.4782928228378296,0.4929678738117218
1772903263171860000,6.15385986328125,-3.524995803833008,-2.8092563152313232,3.898861885070801,-1.7110322713851929,1.112384796142578,0.4202749729156494
1772903263190846200,6.17284619140625,-3.726361751556397,-3.1709249019622803,3.711747169494629,-1.767231822013855,0.8949168920516968,0.2632827162742615
1772903263209832200,6.191832275390625,-3.891931533813477,-3.313831090927124,3.2195382118225098,-1.748905897140503,0.7507528066635132,0.0665842592716217
1772903263228818400,6.210818359375,-3.65150785446167,-3.379380702972412,2.7455058097839355,-1.6982040405273438,0.6499601006507874,-0.0836884751915931
1772903263247804400,6.229804443359375,-3.2753381729125977,-3.4043047428131104,2.090768814086914,-1.57297682762146,0.5112938284873962,-0.1178968995809555
1772903263266790700,6.248790771484375,-2.9519433975219727,-3.238178253173828,1.7798328399658203,-1.4569125175476074,0.2834412455558777,-0.047036588191986
1772903263285776600,6.267776611328125,-3.0298643112182617,-3.1640772819519043,1.843735694885254,-1.4440842866897583,0.0189368072897195,0.0500909127295017
1772903263304763000,6.286762939453125,-3.688290596008301,-3.230368137359619,1.7161598205566406,-1.4789036512374878,-0.2938259541988373,0.0085521070286631
1772903263323748900,6.305748779296875,-3.988747596740722,-3.180419683456421,1.41758394241333,-1.5008947849273682,-0.5705476999282837,-0.1600465774536132
1772903263342735000,6.324735107421875,-3.85712480545044,-3.253103256225586,1.3784456253051758,-1.5595377683639526,-0.7648026943206787,-0.4105011224746704
1772903263361721000,6.34372119140625,-3.5580086708068848,-3.33296012878418,1.308678150177002,-1.6328415870666504,-0.8466585874557495,-0.7055488228797913
1772903263380707300,6.362707275390625,-3.120112419128418,-3.5526444911956787,1.1006584167480469,-1.6688826084136963,-0.8191696405410767,-1.0024291276931765
1772903263399693300,6.381693359375,-2.48599624633789,-3.705896377563477,0.7766885757446289,-1.662163019180298,-0.8197805285453796,-1.232114315032959
1772903263418679600,6.400679443359375,-1.4730453491210938,-3.676370143890381,0.480903148651123,-1.6481131315231323,-0.8142827749252319,-1.3274091482162476
1772903263437665500,6.41966552734375,-0.9202313423156738,-3.6299149990081783,-0.0415282249450683,-1.6187916994094849,-0.8155044913291931,-1.3445134162902832
1772903263456651800,6.43865185546875,-0.7738542556762695,-3.3331801891326904,-0.4842977523803711,-1.5833615064620972,-0.896138608455658,-1.378721833229065
1772903263475637800,6.4576376953125,-0.6300134658813477,-3.043752908706665,-0.6885323524475098,-1.5625921487808228,-1.025641918182373,-1.4654645919799805
1772903263494624000,6.4766240234375,-0.2200403213500976,-2.873155117034912,-0.7732143402099609,-1.546098709106445,-1.2168426513671875,-1.590080976486206
1772903263513610000,6.49560986328125,0.2199783325195312,-2.6947426795959477,-0.631340503692627,-1.5491530895233154,-1.3518437147140503,-1.7079778909683228
1772903263532596200,6.51459619140625,0.8127546310424805,-2.453056573867798,-0.6412725448608398,-1.5931353569030762,-1.14659321308136,-1.68659770488739
1772903263551582200,6.533582275390625,1.4626917839050293,-2.7676684856414795,-0.3769493103027344,-1.577863693237305,-0.9926552772521972,-1.6126830577850342
1772903263570568400,6.552568359375,1.6483983993530271,-2.851074457168579,-0.1090044975280761,-1.5589269399642944,-0.7641918659210205,-1.5473204851150513
1772903263589554400,6.571554443359375,1.6843180656433103,-2.9058592319488525,0.322455883026123,-1.592524528503418,-0.5717694163322449,-1.4850122928619385
1772903263608540700,6.590540771484375,1.346205711364746,-3.196335792541504,0.5597372055053711,-1.6511675119400024,-0.6340776681900024,-1.4953969717025757
1772903263627526700,6.609526611328125,1.2384700775146484,-3.192456007003784,0.2739877700805664,-1.6975932121276855,-0.7806851863861084,-1.5540399551391602
1772903263646513000,6.628512939453125,1.314311981201172,-2.729546308517456,-0.3384809494018554,-1.7342450618743896,-0.7018836140632629,-1.5473204851150513
1772903263665499000,6.647498779296875,1.253173828125,-2.4396731853485107,-0.7315373420715332,-1.7372994422912598,-0.4025598764419555,-1.4477494955062866
1772903263684485000,6.666485107421875,0.9354796409606934,-2.430160522460937,-1.217139720916748,-1.6481131315231323,-0.1704312711954116,-1.3738348484039309
1772903263703471000,6.68547119140625,0.3932399749755859,-2.0047366619110107,-2.1737380027771,-1.4208714962005615,-0.0152716198936104,-1.370169758796692
1772903263722457000,6.70445703125,0.4026598930358886,-0.9966682195663452,-2.7927446365356445,-1.1362085342407229,-0.0934623107314109,-1.3952151536941528
1772903263741443300,6.723443359375,0.4501523971557617,-0.3661568760871887,-2.6660408973693848,-0.9315688014030457,-0.3170388340950012,-1.463021159172058
1772903263760429300,6.74242919921875,0.5353121757507324,-0.4148511290550232,-1.995603084564209,-0.8814778923988342,-0.4502073526382446,-1.5674790143966677
1772903263779415600,6.76141552734375,1.05517578125,-0.3855281770229339,-1.7450461387634275,-0.842382550239563,-0.5125155448913574,-1.6426154375076294
1772903263798401800,6.78040185546875,1.7152247428894043,0.1382662653923034,-1.836709976196289,-0.6939423680305481,-0.472198486328125,-1.6780455112457275
1772903263817387800,6.7993876953125,2.5058465003967285,0.850708544254303,-1.5033321380615234,-0.5259546041488647,-0.3017672002315521,-1.7055344581604004
1772903263836373800,6.818373779296875,3.2966318130493164,1.3218119144439695,-1.1856484413146973,-0.3512472510337829,0.2364046722650528,-1.737910270690918
1772903263855360000,6.837360107421875,3.6274476051330566,2.031418800354004,-0.6536779403686523,-0.2296851575374603,0.980437994003296,-1.7049236297607422
1772903263874346000,6.856345947265625,3.911924839019776,2.415970802307129,-0.3467183113098144,-0.3536907136440277,1.3683371543884275,-1.561981201171875
1772903263893332200,6.875332275390625,3.914855480194092,2.9242167472839355,-0.1973962783813476,-0.6927206516265869,1.3866630792617798,-1.3151918649673462
1772903263912318200,6.894318115234375,3.573025703430176,3.252150535583496,-0.2687091827392578,-1.1111630201339722,1.2443315982818604,-1.0286962985992432
1772903263931304400,6.913304443359375,3.0863990783691406,3.400237560272217,-0.9471464157104492,-1.4312561750411987,1.0458004474639893,-0.8002328872680664
1772903263950290400,6.93229052734375,2.5780725479125977,3.3691000938415527,-1.773514747619629,-1.536935806274414,0.9010255336761476,-0.6798924803733826
1772903263969276700,6.951276611328125,2.442127227783203,3.0925447940826416,-2.2870547771453857,-1.450192928314209,0.8668171167373657,-0.5827649831771851
1772903263988262700,6.9702626953125,2.8519363403320312,2.850365400314331,-2.192469596862793,-1.320078730583191,0.8112284541130066,-0.3659079968929291
1772903264007249000,6.989248779296875,2.757118225097656,2.699768304824829,-1.7186081409454346,-1.2632683515548706,0.7055488228797913,-0.1050687432289123
1772903264026235000,7.00823486328125,2.1349401473999023,2.51509952545166,-1.5764107704162598,-1.2724313735961914,0.5039634704589844,0.0977383628487587
1772903264045220900,7.027220947265625,1.4227018356323242,2.253006935119629,-1.6763584613800049,-1.2327251434326172,0.2877173125743866,0.1795942485332489
1772903264064207000,7.04620703125,1.0693283081054688,1.8812814950942995,-1.89239501953125,-1.122769474983215,0.0818558782339096,0.1936441361904144
1772903264083193300,7.065193359375,1.1976261138916016,1.6333013772964478,-1.8139164447784424,-0.9779945015907288,-0.0348192937672138,0.2070831656455993
1772903264102179300,7.084179443359375,1.236959457397461,1.398376703262329,-1.4968218803405762,-0.8521563410758972,0.0445931293070316,0.2138026654720306
1772903264121165600,7.10316552734375,1.1251201629638672,1.25769305229187,-1.151853084564209,-0.7654135823249817,0.21319180727005,0.2138026654720306
1772903264140151600,7.122151611328125,1.0959901809692385,1.1441930532455444,-0.9602227210998536,-0.6969966888427734,0.3390299379825592,0.2657261788845062
1772903264159137500,7.141137451171875,1.0573463439941406,1.038436770439148,-0.7678775787353516,-0.66645348072052,0.3726275265216827,0.3976729810237884
1772903264178123800,7.160123779296875,0.4889631271362304,0.7247790098190308,-0.6705660820007324,-0.657290518283844,0.2987128794193268,0.4575377106666565
1772903264197109800,7.17910986328125,-0.4371194839477539,0.1930967271327972,-0.7054829597473145,-0.5919279456138611,0.1533270627260208,0.3451386094093323
1772903264216096000,7.198095947265625,-0.0656213760375976,0.3025587201118469,-1.3001494407653809,-0.3866774141788482,-0.0018325943965464,0.2553414702415466
1772903264235082000,7.21708203125,0.9887208938598632,0.4889078140258789,-1.051161766052246,-0.235793799161911,-0.0830776095390319,0.3543015718460083
1772903264254068200,7.236068115234375,1.3623075485229492,0.33663409948349,-0.5210638046264648,-0.2138026654720306,-0.0348192937672138,0.5345066785812378
1772903264273054200,7.25505419921875,0.7700891494750977,-0.2202850580215454,-0.05112886428833,-0.2241873741149902,0.1240055486559867,0.6365211009979248
1772903264292040400,7.27404052734375,0.0312690734863281,-0.5467979311943054,-0.024390697479248,-0.2009745091199875,0.1747073233127594,0.6078104376792908
1772903264311026400,7.2930263671875,-0.332707405090332,-0.6850781440734863,0.1598339080810547,-0.1973093301057815,0.1466075479984283,0.5332849621772766
1772903264330012400,7.312012451171875,-0.5381174087524414,-0.892129123210907,0.3062238693237304,-0.2571740746498108,0.1227838173508644,0.4447095692157745
1772903264348998700,7.33099853515625,-0.7193450927734375,-1.0074620246887207,0.0744504928588867,-0.2968802750110626,0.1545487940311432,0.3207040131092071
1772903264367984600,7.349984619140625,-0.7827439308166504,-1.2773183584213257,-0.1567869186401367,-0.2944368124008178,0.2021962404251098,0.2046397030353546
1772903264386971000,7.368970947265625,-0.6444053649902344,-1.5844895839691162,-0.3356156349182129,-0.2419024556875229,0.1802051067352295,0.1490510106086731
1772903264785692200,7.767692138671875,0.6097488403320312,0.196729838848114,-0.6518535614013672,0.9865466356277466,-1.978590965270996,-0.2913824915885925
1772903264804664800,7.786664794921875,0.726567268371582,0.2902270257472992,-0.2734198570251465,1.1221586465835571,-2.1520767211914062,-0.1673769503831863
1772903264823651000,7.805651123046875,0.829709529876709,0.4749277234077453,0.4807109832763672,1.147204041481018,-2.3292274475097656,-0.0971274971961975
1772903264842637000,7.824636962890625,0.6134076118469238,0.3877979516983032,1.4806108474731443,1.0396918058395386,-2.4471242427825928,-0.215024396777153
1772903264861623300,7.843623291015625,0.8446879386901855,0.6583573222160339,1.3421177864074707,0.960890293121338,-2.2479825019836426,-0.4361574649810791
1772903264880609300,7.862609375,1.589259147644043,0.9045315980911256,0.9436044692993164,0.8949168920516968,-1.9370522499084477,-0.6334667801856995
1772903264899595500,7.881595458984375,2.3134570121765137,0.8632799386978149,0.5788307189941406,0.8582650423049927,-1.6853759288787842,-0.7977893948554993
1772903264918581500,7.90058154296875,3.4482827186584477,0.8274444341659546,0.2925825119018554,0.9590576887130736,-1.390328288078308,-0.7849612236022949
1772903264937567700,7.919567626953125,4.653576374053955,1.2279566526412964,0.2944583892822265,1.120326042175293,-1.153923511505127,-0.5070177912712097
1772903264956553700,7.9385537109375,5.169846534729004,1.9866679906845093,0.5315923690795898,1.166140913963318,-0.9786053895950316,-0.0586430206894874
1772903264975539700,7.957539794921875,4.510176181793213,2.7689523696899414,1.0240907669067385,1.028085470199585,-0.8539889454841614,0.3139844834804535
1772903264994526000,7.97652587890625,3.344165802001953,3.154435873031616,1.2521724700927734,0.7929024696350098,-0.7837395071983337,0.4263836145401001
1772903265013512000,7.995511962890625,2.610612392425537,3.135465383529663,1.0853595733642578,0.6395754218101501,-0.6682860851287842,0.3677406013011932
1772903265032498200,8.014498291015625,2.845968723297119,3.057687282562256,0.988835334777832,0.5778780579566956,-0.5143481492996216,0.3964512348175049
1772903265051484200,8.033484130859375,3.3678011894226074,3.050640344619751,1.6426410675048828,0.45875945687294,-0.258395791053772,0.5882627964019775
1772903265070470100,8.05247021484375,2.7007875442504883,3.013491153717041,2.256941795349121,0.2266308367252349,0.1331685185432434,0.7703005075454712
1772903265089456400,8.071456298828124,1.375838279724121,3.3853249549865723,1.9095573425292969,-0.0482583157718181,0.4062250852584839,0.8014546036720276
1772903265108442400,8.0904423828125,0.418790340423584,3.5103979110717773,1.0230283737182615,-0.2553414702415466,0.430659681558609,0.7373138070106506
1772903265127428600,8.1094287109375,0.1656017303466797,3.3655037879943848,0.3225870132446289,-0.3646862804889679,0.2858847081661224,0.7092140316963196
1772903265146414600,8.12841455078125,0.2646141052246094,3.03334903717041,0.1623916625976562,-0.4178315103054046,0.1533270627260208,0.7562506198883057
1772903265165400800,8.14740087890625,0.3287158012390136,2.791574716567993,0.2908506393432617,-0.4422661066055298,0.0684168562293052,0.8655954003334045
1772903265184386800,8.16638671875,0.178596019744873,2.544025421142578,0.5985126495361328,-0.4819723069667816,0.0030543238390237,0.981048822402954
1772903265203372800,8.185372802734374,-0.153998851776123,2.572585105895996,0.7725639343261719,-0.5809323787689209,-0.0103847011923789,1.033583164215088
1772903265222359000,8.204359130859375,-0.5389285087585449,2.487534999847412,0.3869304656982422,-0.6621774435043335,-0.0128281600773334,0.972496747970581
1772903265241345000,8.223344970703126,-0.4384198188781738,2.2084665298461914,-0.3412599563598633,-0.6114756464958191,-0.0445931293070316,0.9089667797088624
1772903265260331300,8.242331298828125,0.3022856712341308,1.7764335870742798,-0.7368154525756836,-0.4758636653423309,-0.1417206227779388,0.9743293523788452
1772903265279317200,8.261317138671876,0.7359757423400879,1.459803581237793,-0.8883266448974609,-0.3518581092357635,-0.2101374864578247,1.1362085342407229
1772903265298303500,8.280303466796875,0.9856939315795898,1.3260984420776367,-0.6773052215576172,-0.3023780584335327,-0.2302960157394409,1.3365721702575684
1772903265317289500,8.29928955078125,1.018813133239746,1.0897908210754397,-0.18463134765625,-0.3585776388645172,-0.1380554437637329,1.563202977180481
1772903265336275500,8.318275390625,0.3019018173217773,0.6505385041236877,0.027348518371582,-0.481361448764801,-0.0036651887930929,1.6786564588546753
1772903265355261700,8.33726171875,-0.5557441711425781,0.3192887902259826,-0.3392314910888672,-0.5375609993934631,-0.0183259434998035,1.6120721101760864
1772903265374247700,8.35624755859375,-0.8149614334106445,-0.0960386991500854,-0.3149938583374023,-0.5479456782341003,-0.1502727419137954,1.4624103307724
1772903265393233700,8.375233642578126,-0.6719169616699219,-0.769378662109375,0.1765766143798828,-0.5882627964019775,-0.4050033390522003,1.2718204259872437
1772903265412220000,8.394219970703125,-0.4902324676513672,-2.030829429626465,1.154871940612793,-0.6414080262184143,-0.8295543789863586,0.9969313144683838
1772903265431206000,8.413205810546875,-0.0417776107788085,-3.1407527923583984,1.9416446685791016,-0.5485565662384033,-1.1038326025009155,0.6963858604431152
1772903265450192100,8.432192138671875,0.5161614418029785,-3.4386191368103027,2.635688781738281,-0.3781253099441528,-0.8552106618881226,0.4636463820934295
1772903265469178000,8.45117822265625,0.6533622741699219,-3.0692954063415527,3.193077087402344,-0.3988946974277496,-0.2987128794193268,0.2107483446598053
1772903265488164000,8.4701640625,0.2894282341003418,-2.6225156784057617,2.8178749084472656,-0.5864301919937134,0.2791652083396911,-0.1765399277210235
1772903265507150300,8.489150390625,-0.0941381454467773,-2.302278995513916,1.4825782775878906,-0.730594277381897,0.8472694754600525,-0.5485565662384033
1772903265526136300,8.50813623046875,0.0667366981506347,-1.9733790159225464,-0.1175746917724609,-0.7476984858512878,1.2614357471466064,-0.7073814272880554
1772903265545122300,8.527122314453125,0.1003785133361816,-2.058140277862549,-0.757563591003418,-0.7544180154800415,1.2675443887710571,-0.6811142563819885
1772903265564108500,8.546108642578124,-0.1460638046264648,-2.5413970947265625,-0.8900094032287598,-0.7531962990760803,1.0012073516845703,-0.5528326034545898
1772903265583094500,8.565094482421875,-0.4867935180664062,-3.193809032440185,-0.7113180160522461,-0.7263182401657104,0.6126973628997803,-0.4392117857933044
1772903265602080800,8.584080810546874,-0.8676209449768066,-3.730079174041748,-0.5293097496032715,-0.7079922556877136,0.2895499169826507,-0.4147771894931793
1772903265621066800,8.603066650390625,-1.1425166130065918,-4.085156440734863,-0.6451263427734375,-0.6786707639694214,0.1789833754301071,-0.4844157695770263
1772903265640052700,8.622052734375,-1.2135977745056152,-4.077494144439697,-0.921999454498291,-0.6023126840591431,0.2272416949272155,-0.5760455131530762
1772903265659039000,8.6410390625,-1.3514742851257324,-4.181219100952148,-1.1526689529418943,-0.5033525824546814,0.3213148713111877,-0.66645348072052
1772903265678025000,8.66002490234375,-1.5962345600128174,-4.271381378173828,-1.375429630279541,-0.3866774141788482,0.3518581092357635,-0.7483093738555908
1772903265697011000,8.679010986328125,-1.717620611190796,-4.216355323791504,-1.9150700569152832,-0.2284634262323379,0.2455676347017288,-0.7996219992637634
1772903265715997200,8.6979970703125,-1.5707190036773682,-3.965734004974365,-2.537713050842285,-0.0177150778472423,0.0036651887930929,-0.7800742983818054
1772903265734983200,8.716983154296875,-1.0605521202087402,-3.6861143112182617,-2.508852958679199,0.205861434340477,-0.318871408700943,-0.6505709886550903
1772903265753969400,8.735969482421876,-0.2024617195129394,-3.568174362182617,-1.996363639831543,0.4037816226482391,-0.6310232877731323,-0.360410213470459
1772903265772955400,8.754955322265625,0.3849654197692871,-3.60548734664917,-1.6258649826049805,0.5473348498344421,-0.8142827749252319,0.0390953458845615
1772903265791941400,8.77394140625,0.6891083717346191,-3.3907086849212646,-1.5766286849975586,0.6542361974716187,-0.831997811794281,0.4679224193096161
1772903265810927600,8.792927734375,0.2372040748596191,-3.0221264362335205,-2.088106155395508,0.8210022449493408,-0.870482325553894,0.748920202255249
1772903265829913600,8.81191357421875,-0.2258515357971191,-2.5157113075256348,-2.527846336364746,1.12765634059906,-1.0751219987869265,0.851545512676239
1772903265848899800,8.83089990234375,-0.3225188255310058,-2.117703437805176,-1.9150524139404297,1.4679080247879028,-1.3170244693756104,0.9138537049293518
1772903265867885800,8.8498857421875,-0.3158826828002929,-1.477793574333191,-0.695897102355957,1.6560543775558472,-1.5424336194992063,0.8753692507743835
1772903265886871800,8.868871826171874,-0.6758549213409424,-0.5844686627388,0.5425329208374023,1.7287473678588867,-1.6413936614990234,0.6126973628997803
1772903265905858000,8.887858154296875,-1.215827226638794,0.2625677585601806,1.584329605102539,1.748905897140503,-1.6126830577850342,0.1154534444212913
1772903265924844000,8.906843994140624,-0.9619483947753906,0.8425371050834656,2.5007991790771484,1.7055344581604004,-1.4923427104949951,-0.3952295184135437
1772903265943830000,8.925830078125,0.0952415466308593,1.411111831665039,3.490931510925293,1.516777276992798,-1.2889246940612793,-0.729983389377594
1772903265962816300,8.944816162109374,1.649338960647583,2.360368251800537,4.449337959289551,1.1435388326644895,-0.6236929297447205,-0.7965676784515381
1772903265981802200,8.96380224609375,2.43848204612732,2.928426742553711,4.599265098571777,0.6493492722511292,0.3292561173439026,-0.6695078015327454
1772903266000788500,8.98278857421875,0.846712589263916,3.230961799621582,3.259366035461426,0.2956585586071014,0.907134175300598,-0.6927206516265869
1772903266019774500,9.0017744140625,-0.4544620513916015,3.792236804962158,1.417037010192871,0.1673769503831863,0.8985821008682251,-0.8698714375495911
1772903266038760400,9.020760498046876,-0.2443704605102539,4.368138313293457,0.5721530914306641,0.1362228393554687,0.6133082509040833,-0.9450078010559082
1772903266057746700,9.03974658203125,0.5742921829223633,4.685793876647949,0.9572010040283204,0.0348192937672138,0.4214966893196106,-0.8674280047416687
1772903266076732700,9.058732666015626,0.302748441696167,4.647306442260742,1.8138360977172847,-0.2107483446598053,0.6560688018798828,-0.8381064534187317
1772903266095718700,9.07771875,-0.8979732990264893,4.611576557159424,1.5573463439941406,-0.4013381600379944,1.061682939529419,-1.033583164215088
1772903266114705000,9.096704833984376,-1.48876953125,4.611337184906006,1.985989570617676,-0.5790998339653015,1.3139700889587402,-1.2596031427383425
1772903266133691000,9.11569091796875,-0.947697639465332,4.849795341491699,2.377335548400879,-0.8833104968070984,1.4312561750411987,-1.3194679021835327
1772903266152677000,9.134677001953126,-0.0751538276672363,4.116860866546631,3.191929817199707,-1.258992314338684,1.3432916402816772,-1.2809834480285645
1772903266171663000,9.1536630859375,-0.077761173248291,2.547146797180176,2.970888137817383,-1.397047758102417,1.239444613456726,-1.3182462453842163
1772903266190649000,9.172649169921876,0.5498390197753906,2.260861158370972,2.531505584716797,-1.350622057914734,1.4550799131393433,-1.1838558912277222
1772903266209635300,9.19163525390625,1.1382322311401367,2.109504461288452,2.436957359313965,-1.323133111000061,1.4581341743469238,-1.135597586631775
1772903266228621300,9.210621337890624,1.8971381187438965,1.85141396522522,2.0909318923950195,-1.351232886314392,1.2644901275634766,-1.2339468002319336
1772903266247607300,9.229607177734374,2.12613296508789,1.0714597702026367,1.6300201416015625,-1.3060288429260254,1.5143338441848757,-1.125823736190796
1772903266266593500,9.248593505859375,2.9834628105163574,0.53141850233078,1.4949989318847656,-1.193018913269043,1.6297872066497805,-0.768467903137207
1772903266285579500,9.26757958984375,3.57259464263916,0.6129820942878723,1.2802467346191406,-1.074511170387268,1.3878847360610962,-0.2437350451946258
1772903266304565500,9.2865654296875,3.006070137023926,0.7782225608825684,1.3908586502075195,-1.1013891696929932,1.16552996635437,0.2467893660068512
1772903266323551700,9.3055517578125,1.9078035354614256,0.5776715874671936,1.6896743774414062,-1.3213005065917969,1.063515543937683,0.4844157695770263
1772903266342537700,9.324537841796875,0.8378243446350098,-0.2046499848365783,1.2887024879455566,-1.4886775016784668,1.0885610580444336,0.5766563415527344
1772903266361523700,9.343523681640624,0.0662384033203125,-1.181026577949524,0.785377025604248,-1.4770710468292236,1.119104266166687,0.6261364221572876
1772903266380510000,9.362510009765623,-0.2375822067260742,-2.00417709350586,0.6792058944702148,-1.3713914155960083,1.0793980360031128,0.6352993845939636
1772903266399496000,9.381495849609376,-0.6058754920959473,-2.483597755432129,0.4903750419616699,-1.2174534797668457,1.074511170387268,0.5864301919937134
1772903266418482000,9.40048193359375,-0.8935656547546387,-2.629564046859741,0.2056117057800293,-1.053130865097046,1.1380411386489868,0.5204567909240723
1772903266437468200,9.41946826171875,-1.0754070281982422,-2.818568706512451,-0.0079865455627441,-0.9309579133987428,1.173471212387085,0.471587598323822
1772903266456454100,9.4384541015625,-1.0177202224731443,-2.995654582977295,-0.054640769958496,-0.8747583627700806,1.1154390573501587,0.4654789566993713
1772903266475440000,9.457440185546876,-1.1754660606384275,-3.263563394546509,-0.3162240982055664,-0.8026763200759888,1.0048725605010986,0.4868592321872711
1772903266494426400,9.47642626953125,-1.499037742614746,-3.35628604888916,-0.6033272743225098,-0.6988292932510376,0.8949168920516968,0.4911352694034576
1772903266513412400,9.495412353515626,-1.901113986968994,-3.4942843914031982,-0.8064508438110352,-0.554665207862854,0.8252783417701721,0.4593703150749206
1772903266532398600,9.514398681640625,-2.5146265029907227,-3.585399627685547,-1.0437407493591309,-0.4092794060707092,0.7757982611656189,0.3408625423908233
1772903266551384600,9.533384521484376,-2.966123104095459,-3.5062849521636963,-1.1142897605895996,-0.296269416809082,0.7733548283576965,0.1337793916463852
1772903266570370600,9.55237060546875,-3.4260706901550293,-3.354952335357666,-1.057131290435791,-0.2315177470445633,0.8710931539535522,-0.1606574356555938
1772903266589356500,9.5713564453125,-3.507472515106201,-3.097553968429565,-0.901707649230957,-0.1728747338056564,1.0152572393417358,-0.4673115611076355
1772903266608342800,9.5903427734375,-2.9439892768859863,-2.73868465423584,-0.7254571914672852,-0.1240055486559867,1.0091485977172852,-0.7049379348754883
1772903266627328800,9.609328857421875,-2.110262870788574,-2.4203312397003174,-0.7693295478820801,-0.0849102064967155,0.907134175300598,-0.7745765447616577
1772903266646314800,9.628314697265624,-1.3882484436035156,-2.0778698921203613,-0.5265421867370605,-0.0696385875344276,0.7513636946678162,-0.6921098232269287
1772903266665300700,9.64730078125,-1.2939062118530271,-1.7872132062911987,-0.2114510536193847,-0.1087339296936988,0.6407971382141113,-0.5797106623649597
1772903266684287000,9.666286865234374,-1.6168880462646484,-1.422189474105835,-0.0885424613952636,-0.1765399277210235,0.5271763205528259,-0.5815432667732239
1772903266703273000,9.68527294921875,-1.8130836486816408,-1.169230341911316,-0.21226167678833,-0.2186895906925201,0.4477638900279999,-0.6890554428100586
1772903266722259200,9.70425927734375,-1.807699203491211,-1.0146794319152832,-0.3365063667297363,-0.235793799161911,0.4343248605728149,-0.8454368710517883
1772903266741245200,9.7232451171875,-1.5020818710327148,-0.6950904130935669,-0.3173999786376953,-0.2535088956356048,0.4495964646339416,-0.9822705388069152
1772903266760231200,9.742231201171874,-0.9332661628723145,-0.4276883006095886,-0.0920705795288086,-0.3005454838275909,0.5424479246139526,-1.023198485374451
1772903266779217400,9.761217529296877,-0.1899280548095703,-0.133934736251831,0.1468148231506347,-0.3677406013011932,0.7721330523490906,-0.9138537049293518
1772903266798203400,9.780203369140626,0.1131515502929687,0.2182408571243286,-0.0965437889099121,-0.4001164436340332,0.9187406301498412,-0.7422007322311401
1772903266817189400,9.799189453125,0.0981903076171875,0.4250640869140625,0.0658831596374511,-0.4538725316524505,0.8582650423049927,-0.6352993845939636
1772903266836175600,9.818175537109376,0.2864675521850586,0.416837215423584,0.5497784614562988,-0.5858193039894104,0.6695078015327454,-0.6133082509040833
1772903266855161600,9.83716162109375,0.9506464004516602,0.3558604121208191,1.453251838684082,-0.7739656567573547,0.4667007029056549,-0.5821541547775269
1772903266874147600,9.856147705078126,1.1773900985717771,-0.089710533618927,1.9793024063110352,-0.9364557266235352,0.2883281707763672,-0.5888736248016357
1772903266893133600,9.875133544921876,1.332402229309082,-0.0139610171318054,1.59598970413208,-1.0115920305252075,0.2577849328517914,-0.638353705406189
1772903266912119800,9.894119873046876,1.0325860977172852,-0.0156974792480468,1.005134105682373,-1.0274745225906372,0.3842339515686035,-0.8148936033248901
1772903266931105800,9.913105712890625,1.1491622924804688,-0.104676067829132,0.024111270904541,-0.9480621218681335,0.5595521330833435,-0.9883792400360109
1772903266950091800,9.932091796875,1.6279993057250977,-0.4266806840896606,-0.2094635963439941,-0.8454368710517883,0.656679630279541,-0.9523382186889648
1772903266969078000,9.951078125,1.6883087158203125,-0.7002245783805847,-0.2026200294494629,-0.7257073521614075,0.6041452884674072,-0.7092140316963196
1772903266988064000,9.97006396484375,1.0793933868408203,-0.7459330558776855,-0.4282443523406982,-0.5674933791160583,0.4282162189483642,-0.3933969140052795
1772903267007050000,9.989050048828124,0.3139162063598633,-0.6471102237701416,-0.9946174621582032,-0.3878991305828094,0.0800232887268066,-0.1215620934963226
1772903267026036200,10.0080361328125,-0.2885370254516601,-0.5840081572532654,-1.2195656299591064,-0.2761108875274658,-0.3842339515686035,0.078190691769123
1772903267045022200,10.027022216796874,-0.5338935852050781,-0.5521382689476013,-1.207207202911377,-0.2254091054201126,-0.7415898442268372,0.264504462480545
1772903267064008200,10.04600830078125,-1.1088371276855469,-0.7547485828399658,-1.269564151763916,-0.1392771750688552,-0.9743293523788452,0.401949018239975
1772903267082994200,10.064994140625,-2.057514190673828,-1.2052428722381592,-1.677844762802124,0.0616973415017128,-1.1154390573501587,0.3897317349910736
1772903267101980400,10.08398046875,-2.6036806106567383,-1.5890719890594482,-2.108786106109619,0.3640754222869873,-1.1343759298324585,0.3249800503253937
1772903267120966400,10.10296630859375,-2.8099098205566406,-1.4256324768066406,-1.90421199798584,0.6340776681900024,-1.229670763015747,0.2015853822231292
1772903267139952600,10.12195263671875,-2.945199012756348,-0.8288736343383789,-1.8741097450256348,0.8851430416107178,-1.3829978704452517,-0.0146607551723718
1772903267158938400,10.1409384765625,-2.374752998352051,-0.3038796186447143,-1.0605220794677734,0.988990068435669,-1.546709656715393,-0.2089157551527023
1772903267177924600,10.159924560546877,-1.284963607788086,0.2846685647964477,-0.4545416831970215,0.9315688014030457,-1.8044945001602173,-0.3652971386909485
1772903267196910600,10.17891064453125,0.2184772491455078,0.7227675914764404,-0.0623574256896972,0.8399390578269958,-2.0580034255981445,-0.4318813979625702
1772903267215896600,10.197896484375,1.267587184906006,0.8456381559371948,0.431671142578125,0.7293725609779358,-1.986532211303711,-0.4221075773239136
1772903267234882800,10.2168828125,1.8438739776611328,1.075963854789734,0.7161045074462891,0.6823359727859497,-1.57297682762146,-0.3836230933666229
1772903267253868800,10.235868896484376,2.2244091033935547,1.4581937789916992,1.2209668159484863,0.5870410799980164,-1.0806198120117188,-0.3231474757194519
1772903267272855000,10.25485498046875,2.1804232597351074,1.8939659595489504,1.449244499206543,0.4227184355258941,-0.7000510096549988,-0.3066541254520416
1772903267291841000,10.273841064453125,2.110344886779785,2.178983211517334,1.316329002380371,0.2144135385751724,-0.4911352694034576,-0.3316995799541473
1772903267310827000,10.292826904296875,2.1264524459838867,2.392371416091919,0.8387932777404785,0.0378736145794391,-0.4379900395870209,-0.3915643095970154
1772903267329813000,10.31181298828125,2.3933215141296387,2.521963834762573,0.7523527145385742,-0.1185077652335167,-0.4037816226482391,-0.4563159942626953
1772903267348799000,10.330799072265624,2.9277777671813965,2.557806968688965,0.9655818939208984,-0.2755000293254852,-0.2999345958232879,-0.4557051360607147
1772903267367785200,10.34978515625,3.563152313232422,2.468827247619629,1.1164159774780271,-0.4514290690422058,-0.1233946830034256,-0.3420842885971069
1772903267386771200,10.368771240234375,3.621551513671875,2.291425943374634,0.9419126510620116,-0.5974257588386536,0.1692095398902893,-0.2064722925424575
1772903267405757400,10.38775732421875,3.434309482574463,2.239191055297852,0.5561380386352539,-0.6957749724388123,0.4477638900279999,-0.0836884751915931
1772903267424743400,10.406743408203123,2.5619773864746094,2.179749727249145,0.2960577011108398,-0.7886264324188232,0.7104357481002808,-0.0733037739992141
1772903267443729400,10.4257294921875,1.726679801940918,2.0432889461517334,0.0606918334960937,-0.8662062287330627,0.925460159778595,-0.1893680840730667
1772903267462715400,10.44471533203125,1.4616122245788574,1.692784547805786,-0.0751266479492187,-0.8881973624229431,1.0189224481582642,-0.2803869247436523
1772903267481701400,10.463701416015626,1.6318540573120115,1.4198920726776123,0.1858162879943847,-0.9260709881782532,0.9596685767173768,-0.2480110973119735
1772903267500687600,10.4826875,1.8306946754455569,1.0803803205490112,0.5027918815612793,-1.0134246349334717,0.8118392825126648,-0.1123991161584854
1772903267519673600,10.501673583984376,1.6108789443969729,0.7331238985061646,0.8063845634460449,-1.0989457368850708,0.6322450637817383,0.0164933484047651
1772903267538659600,10.52065966796875,1.3264541625976562,0.1675896942615509,1.330413818359375,-1.1820234060287476,0.3872882723808288,0.0836884751915931
1772903267557645600,10.5396455078125,1.2338924407958984,-0.5917773842811584,1.9289536476135252,-1.2718204259872437,0.1203403621912002,0.0940731763839721
1772903267576631800,10.5586318359375,1.4701271057128906,-0.7565053105354309,1.6501593589782717,-1.2693769931793213,0.0922405794262886,0.0598647482693195
1772903267595617800,10.57761767578125,1.659502029418945,-0.5980355739593506,1.0541315078735352,-1.1435388326644895,0.3543015718460083,0.0116064306348562
1772903267614603800,10.596603759765625,1.366006851196289,-0.522004246711731,0.8435258865356445,-0.9511164426803588,0.7452550530433655,-0.0629190728068351
1772903267633590000,10.615590087890626,1.443002700805664,-0.4192112684249878,0.6976547241210938,-0.7910698652267456,1.02014422416687,-0.0140498895198106
1772903267652576000,10.634575927734376,1.7600154876708984,0.0530211925506591,0.6930456161499023,-0.7232639193534851,1.1215476989746094,0.2272416949272155
1772903267671562000,10.65356201171875,1.4450616836547852,0.0267659425735473,1.1550583839416504,-0.8002328872680664,1.1246020793914795,0.5497782826423645
1772903267690548000,10.6725478515625,0.314122200012207,-0.4307430982589721,1.5254526138305664,-0.9266818761825562,1.0525200366973877,0.739757239818573
1772903267709534200,10.6915341796875,-0.909560203552246,-1.033125638961792,1.672468185424805,-0.9938769936561584,0.9205732345581056,0.7275399565696716
1772903267728520200,10.710520263671874,-1.6113085746765137,-1.4072020053863523,1.8632559776306152,-1.0213658809661863,0.7831286191940308,0.6090322136878967
1772903267747506200,10.729506103515623,-1.776566982269287,-1.6791296005249023,1.906709671020508,-1.025641918182373,0.6768381595611572,0.4318813979625702
1772903267766492200,10.7484921875,-1.5674667358398438,-1.7031463384628296,1.3537602424621582,-0.9376774430274964,0.7568614482879639,0.263893574476242
1772903267785478100,10.76747802734375,-1.186323642730713,-1.558401107788086,0.8620200157165527,-0.7641918659210205,0.9999856352806092,0.2083048969507217
1772903267804464400,10.78646435546875,-0.5919342041015625,-1.505318522453308,0.8446993827819824,-0.6041452884674072,1.239444613456726,0.3530798554420471
1772903267823450400,10.805450439453123,-0.6174259185791016,-1.3107376098632812,0.6682591438293457,-0.4630354940891266,1.311526656150818,0.6065887212753296
1772903267842436400,10.824436279296876,-1.1762332916259766,-1.069422960281372,0.644467830657959,-0.3610210716724396,1.145371437072754,0.7825177907943726
1772903267861422300,10.84342236328125,-2.0807600021362305,-1.0215046405792236,0.8167874813079834,-0.3243691921234131,0.9663881063461304,0.7892373204231262
1772903267880408600,10.86240869140625,-2.744450092315674,-0.8785538673400879,0.982358455657959,-0.3219257295131683,0.8087849617004395,0.6536253094673157
1772903267899394600,10.88139453125,-3.10113525390625,-0.8077993392944336,0.8942053318023682,-0.3078758418560028,0.6707295179367065,0.4392117857933044
1772903267918380500,10.900380615234376,-2.795948982238769,-0.8861618041992188,0.7562716007232666,-0.2565632164478302,0.5125155448913574,0.258395791053772
1772903267937366500,10.919366455078125,-2.0677733421325684,-0.9664735794067384,0.8260519504547119,-0.2144135385751724,0.4349357187747955,0.233961209654808
1772903267956352800,10.938352783203126,-1.5269384384155271,-0.8230230808258057,1.10827898979187,-0.2474002391099929,0.3665188550949096,0.2913824915885925
1772903267975338800,10.9573388671875,-1.606182098388672,-0.5356237888336182,1.2595806121826172,-0.3384190797805786,0.3811796307563782,0.2919933497905731
1772903267994324700,10.97632470703125,-1.8624687194824217,-0.2995517253875732,0.783367395401001,-0.3738492429256439,0.4068359434604645,0.1655443608760833
1772903268013311000,10.99531103515625,-1.8907175064086916,-0.1547231674194336,0.1843976974487304,-0.2999345958232879,0.5174024701118469,0.0360410213470459
1772903268032297000,11.014296875,-1.403304100036621,-0.1665995121002197,-0.1939320564270019,-0.1948658674955368,0.6304124593734741,0.0415388047695159
1772903268051283000,11.033282958984374,-0.779109001159668,-0.0695350170135498,-0.1139237880706787,-0.1325576603412628,0.5613847374916077,0.1582139730453491
1772903268070269000,11.05226904296875,-0.6869964599609375,0.1391716003417968,-0.0263319015502929,-0.0855210721492767,0.516791582107544,0.2932150959968567
1772903268089255000,11.0712548828125,-0.942835807800293,0.4922904968261719,0.1331676244735717,-0.0568104237318038,0.4770853817462921,0.347582072019577
1772903268108241200,11.0902412109375,-1.140416145324707,0.7635741233825684,0.2975518703460693,-0.0604756139218807,0.4459312856197357,0.3255909383296966
1772903268127227100,11.10922705078125,-1.3242416381835938,0.8620257377624512,0.284792423248291,-0.0763580948114395,0.4050033390522003,0.2596175372600555
1772903268146213000,11.128213134765623,-1.453236103057861,0.6233639717102051,0.7510863542556763,-0.1545487940311432,0.2993237376213074,0.1325576603412628
1772903268165199000,11.14719921875,-1.5139808654785156,0.3208034038543701,1.1756045818328855,-0.2816086709499359,0.143553227186203,-0.098960094153881
1772903268184185300,11.166185302734377,-0.5369558334350586,0.4743819236755371,0.7149807214736938,-0.3237583339214325,-0.0830776095390319,-0.2767217457294464
1772903268203171300,11.18517138671875,1.151872634887695,0.6337676048278809,0.5898052453994751,-0.3145953714847564,-0.2675587832927704,-0.2663370370864868
1772903268222157300,11.2041572265625,1.7163944244384766,0.1266729831695556,1.3338091373443604,-0.3659079968929291,-0.0818558782339096,-0.1386663019657135
1772903268241143300,11.223143310546876,1.079880714416504,-0.3415935039520263,1.5293035507202148,-0.4263836145401001,0.347582072019577,-0.0629190728068351
1772903268260129300,11.24212939453125,0.1947221755981445,-0.2436249256134033,0.7896939516067505,-0.4068359434604645,0.6872228980064392,-0.0916297137737274
1772903268279115500,11.261115478515626,-0.2968511581420898,-0.1014332771301269,-0.0307804346084594,-0.2822195291519165,0.7922916412353516,-0.1472184062004089
1772903268298101500,11.2801015625,-0.5069313049316406,-0.1224370002746582,-0.6628134250640869,-0.0452039949595928,0.7800742983818054,-0.1105665266513824
1772903268317087500,11.29908740234375,-0.3681564331054687,-0.3023080825805664,-1.3209888935089111,0.3127627670764923,0.5968148708343506,0.0696385875344276
1772903268336073500,11.318073486328124,1.1184749603271484,0.1336839199066162,-0.1313982009887695,0.3139844834804535,-0.2003636509180069,0.3005454838275909
1772903268355059500,11.3370595703125,0.9086875915527344,0.1919162273406982,1.6850626468658447,0.0641408041119575,-0.3103193044662475,0.4282162189483642
1772903268374045400,11.35604541015625,-0.4098644256591797,0.4048457145690918,1.7542166709899902,-0.1069013327360153,-0.0207694023847579,0.3011563420295715
1772903268393031700,11.37503173828125,-1.2940216064453125,0.5746591091156006,1.2760392427444458,-0.2052505612373352,0.0116064306348562,0.0048869182355701
1772903268412017700,11.394017578125,-1.3058195114135742,0.7332372665405273,1.3949356079101562,-0.3213148713111877,-0.1056796088814735,-0.2999345958232879
1772903268431003600,11.413003662109375,-1.0973014831542969,0.4682917594909668,1.9302496910095213,-0.5106829404830933,-0.1185077652335167,-0.4709767401218414
