time,seconds_elapsed,acc_z,acc_y,acc_x,gyro_z,gyro_y,gyro_x
1772903212261094100,6.31409423828125,-1.6938624382019043,-3.668692588806152,-1.124366283416748,-2.249204158782959,0.9046907424926758,-0.2767217457294464
1772903212280081000,6.333080810546875,-2.008296012878418,-3.5555644035339355,-1.4181604385375977,-2.093433618545532,0.7800742983818054,-0.2828303873538971
1772903212299067400,6.3520673828125,-2.257606029510498,-3.6799044609069824,-1.3927230834960938,-1.962097644805908,0.5681042671203613,-0.3213148713111877
1772903212318053600,6.3710537109375,-2.279061317443848,-3.860292911529541,-1.3631901741027832,-1.8106032609939573,0.4141663312911987,-0.3933969140052795
1772903212337040100,6.3900400390625,-2.0108842849731445,-4.198945999145508,-1.051363468170166,-1.6340632438659668,0.3347539007663727,-0.4880809485912323
1772903212356026600,6.409026611328125,-1.8422889709472656,-4.41989278793335,-0.5713620185852051,-1.485623121261597,0.287106454372406,-0.6401863098144531
1772903212375013000,6.42801318359375,-1.836247444152832,-4.685024261474609,0.0191245079040527,-1.4379756450653076,0.2266308367252349,-0.8594867587089539
1772903212393999600,6.44699951171875,-1.4818949699401855,-4.565155029296875,0.1264472007751464,-1.4208714962005615,0.2272416949272155,-1.0580178499221802
1772903212412986000,6.465986083984375,-1.017716884613037,-4.150205612182617,-0.1826248168945312,-1.4098758697509766,0.3292561173439026,-1.1600322723388672
1772903212431972600,6.48497265625,-1.0581011772155762,-3.797595024108887,-0.6701526641845703,-1.397047758102417,0.430659681558609,-1.2137882709503174
1772903212450959000,6.503958984375,-1.216963768005371,-3.244199514389038,-1.200819492340088,-1.3255765438079834,0.5125155448913574,-1.229670763015747
1772903212469945600,6.522945556640625,-1.143293857574463,-2.639688491821289,-1.759382724761963,-1.1808016300201416,0.5210676789283752,-1.1618647575378418
1772903212488932000,6.54193212890625,-1.011690616607666,-2.0941641330718994,-2.102518320083618,-0.9645555019378662,0.3988946974277496,-1.0054833889007568
1772903212507918600,6.560918701171875,-1.0269198417663574,-1.8296515941619875,-1.4897823333740234,-0.794124186038971,0.1777616441249847,-0.8301652073860168
1772903212526905000,6.579905029296875,-1.4054179191589355,-2.0159778594970703,-0.3657574653625488,-0.749531090259552,-0.0378736145794391,-0.7843503952026367
1772903212545891600,6.5988916015625,-1.8589787483215328,-1.995727777481079,0.0876326560974121,-0.7287616729736328,-0.1521053314208984,-0.9217949509620668
1772903212564877800,6.6178779296875,-1.6350703239440918,-1.921050786972046,0.1193695068359375,-0.6682860851287842,-0.1417206227779388,-1.0800089836120603
1772903212583864300,6.6368642578125,-1.0439682006835938,-1.4743902683258057,0.0030994415283203,-0.6151408553123474,-0.1313359290361404,-1.1184934377670288
1772903212602850800,6.655850830078125,-0.9593448638916016,-1.0257912874221802,-0.1960887908935547,-0.5540543794631958,-0.1209512278437614,-1.0977239608764648
1772903212621837300,6.67483740234375,-1.1307039260864258,-0.8551433086395264,-0.4568452835083008,-0.4673115611076355,-0.235793799161911,-1.0586286783218384
1772903212640823800,6.69382373046875,-1.2564573287963867,-0.8465145826339722,-0.3766713142395019,-0.4037816226482391,-0.4923570156097412,-1.0213658809661863
1772903212659810300,6.712810302734375,-1.367964744567871,-0.9768829345703124,-0.3159847259521484,-0.3714057803153991,-0.7373138070106506,-1.028085470199585
1772903212678796800,6.731796875,-1.2080059051513672,-1.168936014175415,-0.4083271026611328,-0.2791652083396911,-0.8106175661087036,-1.0720677375793457
1772903212697783300,6.750783203125,-1.031141757965088,-1.3986437320709229,-0.0654215812683105,-0.1826485693454742,-0.7440332770347595,-1.1239912509918213
1772903212716769800,6.769769775390625,-1.2534661293029783,-1.5548120737075806,0.4398550987243652,-0.192422404885292,-0.6878337264060974,-1.2119556665420532
1772903212735756300,6.78875634765625,-1.640890121459961,-1.5505298376083374,0.3988757133483886,-0.2687804996967315,-0.7055488228797913,-1.357952356338501
1772903212754742800,6.80774267578125,-1.7609148025512695,-1.636955976486206,0.0345363616943359,-0.3365865051746368,-0.7244856357574463,-1.5302162170410156
1772903212773729300,6.826729248046875,-1.6264243125915527,-1.88870906829834,-0.4326372146606445,-0.3689623177051544,-0.7690787315368652,-1.68659770488739
1772903212792715500,6.845715576171875,-1.2766146659851074,-2.0121936798095703,-1.2548742294311523,-0.2730565667152405,-0.8167262077331543,-1.793498992919922
1772903212811702300,6.864702392578125,-0.6504878997802734,-2.214296579360962,-1.5762391090393066,-0.0824667438864708,-0.916297197341919,-1.812435746192932
1772903212830688800,6.883688720703125,-0.141387939453125,-2.107013702392578,-1.3690857887268066,0.057421289384365,-1.0512982606887815,-1.7763947248458862
1772903212849675000,6.902675048828125,0.0479969978332519,-1.9213138818740845,-1.1741266250610352,0.1459966748952865,-1.1630865335464478,-1.766010046005249
1772903212868661500,6.92166162109375,0.1481242179870605,-1.6203893423080444,-1.2321758270263672,0.2290742993354797,-1.193018913269043,-1.8228205442428589
1772903212887648000,6.94064794921875,0.4899673461914062,-1.4767558574676514,-1.3089733123779297,0.3292561173439026,-1.2382229566574097,-1.90162205696106
1772903212906634500,6.959634521484375,1.101475715637207,-1.531599044799805,-1.1302485466003418,0.4618137776851654,-1.3267983198165894,-1.962708592414856
1772903212925621000,6.97862109375,2.001694679260254,-1.4699888229370115,-0.8432211875915527,0.6444623470306396,-1.386052131652832,-1.9761475324630735
1772903212944607500,6.997607421875,2.918516159057617,-1.5761408805847168,0.1109685897827148,0.7550288438796997,-1.525940179824829,-1.954767346382141
1772903212963594000,7.016593994140625,3.8027868270874015,-1.5047012567520142,0.7383646965026855,0.8368847370147705,-1.5625921487808228,-1.9077306985855105
1772903212982580500,7.03558056640625,4.665882110595703,-0.8175010681152344,0.8573675155639648,0.8784235715866089,-1.4752384424209597,-1.8197661638259888
1772903213001567000,7.05456689453125,5.080410480499268,-0.1041958332061767,0.9544553756713868,0.8655954003334045,-1.2932007312774658,-1.747684121131897
1772903213020553500,7.073553466796875,5.193944931030273,0.3316349983215332,1.245485782623291,0.832608699798584,-1.0873392820358276,-1.7220277786254885
1772903213039540000,7.0925400390625,5.278951168060303,0.7024116516113281,1.5058212280273438,0.8045089244842529,-1.0311397314071655,-1.68659770488739
1772903213058526500,7.1115263671875,5.310268878936768,1.340185284614563,1.5562400817871094,0.7739656567573547,-1.0867284536361694,-1.6041308641433716
1772903213077512700,7.1305126953125,4.898996829986572,2.3278005123138428,1.4949069023132324,0.7147117853164673,-1.156977891921997,-1.5308271646499634
1772903213096499200,7.149499267578125,4.437981128692627,3.442552089691162,2.2726149559021,0.5131264328956604,-0.9370665550231934,-1.5399900674819946
1772903213115486000,7.16848583984375,4.672553062438965,4.023580074310303,3.425021171569824,0.1569922417402267,-0.2021962404251098,-1.5143338441848757
1772903213134472200,7.18747216796875,4.644222259521484,4.592101573944092,3.246858596801758,-0.2235765159130096,0.5400044918060303,-1.386052131652832
1772903213153458700,7.206458740234375,3.582610607147217,5.429169654846191,1.7857999801635742,-0.4434878230094909,0.7977893948554993,-1.2186752557754517
1772903213172445200,7.225445068359375,2.649910449981689,5.930404186248779,1.035637378692627,-0.5583304166793823,0.5424479246139526,-1.0134246349334717
1772903213191431700,7.244431640625,2.3980226516723637,5.787965297698975,1.0844759941101074,-0.6267472505569458,0.2083048969507217,-0.7984002828598022
1772903213210418200,7.263418212890625,2.469024658203125,5.412893295288086,1.7938804626464844,-0.6939423680305481,0.0733037739992141,-0.6322450637817383
1772903213229404700,7.28240478515625,2.6156201362609863,4.961480140686035,2.739175796508789,-0.8307760953903198,0.2040288299322128,-0.5387827157974243
1772903213248391200,7.30139111328125,2.713423252105713,4.698165416717529,3.341315746307373,-1.003650784492493,0.4379900395870209,-0.4880809485912323
1772903213267377700,7.320377685546875,2.957242965698242,4.366399765014648,3.823780059814453,-1.2162318229675293,0.6517927050590515,-0.4111120104789734
1772903213286364200,7.3393642578125,3.272700786590576,3.92407488822937,3.855160713195801,-1.4453060626983645,0.851545512676239,-0.2455676347017288
1772903213305350400,7.358350341796875,3.21457576751709,3.2984485626220703,3.534029006958008,-1.620624303817749,1.0348049402236938,-0.0244345907121896
1772903213324337200,7.377337158203125,2.697784423828125,2.5011160373687744,3.198729515075684,-1.7110322713851929,1.201570987701416,0.1698204129934311
1772903213343323600,7.39632373046875,2.282650947570801,1.560983180999756,3.222548484802246,-1.7666209936141968,1.33290696144104,0.3512472510337829
1772903213362310000,7.415309814453125,1.867313861846924,0.6742062568664551,3.2303032875061035,-1.8344268798828125,1.398269534111023,0.5155698657035828
1772903213381296400,7.43429638671875,1.2565836906433103,-0.1301333904266357,2.8263063430786133,-1.8802417516708372,1.423314929008484,0.62857985496521
1772903213400283000,7.453282958984375,0.5614376068115234,-0.7814027070999146,2.3107786178588867,-1.8784091472625728,1.4306453466415403,0.6707295179367065
1772903213419269400,7.472269287109375,-0.1852321624755859,-1.4887521266937256,2.0244040489196777,-1.8539745807647705,1.4850122928619385,0.6206386089324951
1772903213438255900,7.491255859375,-0.909553050994873,-2.133446216583252,1.78281831741333,-1.8472551107406616,1.581528902053833,0.4795288443565368
1772903213457242400,7.510242431640625,-1.5460400581359863,-2.5304956436157227,1.0674920082092283,-1.796553373336792,1.674991250038147,0.2852738499641418
1772903213476228900,7.529228759765625,-1.7571992874145508,-2.78612756729126,0.1593685150146484,-1.6908737421035769,1.6756020784378052,0.1246164143085479
1772903213495215400,7.54821533203125,-1.5751643180847168,-3.109181880950928,-0.3325843811035156,-1.580307126045227,1.6071852445602417,0.0598647482693195
1772903213514201900,7.567201904296875,-1.065166473388672,-3.4999167919158936,-0.4936108589172363,-1.4996730089187622,1.5558725595474243,0.1423314958810806
1772903213533188400,7.586188232421875,-1.1740455627441406,-3.809855699539185,-0.4731559753417969,-1.4373648166656494,1.4923427104949951,0.2742782831192016
1772903213552174800,7.6051748046875,-1.6517720222473145,-4.126000881195068,-0.2655830383300781,-1.3823870420455933,1.359174132347107,0.3457494676113128
1772903213571161300,7.624161376953125,-2.2146544456481934,-4.739379405975342,0.3676648139953613,-1.4104868173599243,1.1313215494155884,0.2993237376213074
1772903213590147600,7.643147705078125,-2.5409960746765137,-5.234736442565918,0.8034634590148926,-1.4740166664123535,0.8582650423049927,0.1478292793035507
1772903213609134000,7.662134033203125,-2.770070552825928,-5.872284412384033,1.053880214691162,-1.527161955833435,0.638353705406189,-0.1007926911115646
1772903213628120600,7.68112060546875,-2.4333295822143555,-5.490732669830322,0.3611187934875488,-1.4440842866897583,0.7006618976593018,-0.3005454838275909
1772903213647107000,7.700107177734375,-2.005115509033203,-4.582810401916504,-0.3685674667358398,-1.2834268808364868,0.8222240209579468,-0.3646862804889679
1772903213666093600,7.719093505859375,-2.186202049255371,-3.6741907596588135,-0.7596049308776855,-1.0983349084854126,0.8943060636520386,-0.3640754222869873
1772903213685080000,7.738080078125,-2.396739959716797,-2.8410205841064453,-1.1073317527770996,-0.8851430416107178,0.8741474747657776,-0.2981020212173462
1772903213704066600,7.757066650390625,-2.64084529876709,-2.214805603027344,-1.2034969329833984,-0.7061597108840942,0.7086031436920166,-0.1649334877729416
1772903213723053000,7.776052978515625,-2.998075485229492,-1.9228785037994385,-1.0254721641540527,-0.5766563415527344,0.4288270771503448,-0.036651886999607
1772903213742039600,7.79503955078125,-3.5733327865600586,-2.1126601696014404,-0.7105889320373535,-0.4740310609340668,0.078190691769123,-0.0317649692296981
1772903213761026000,7.814026123046875,-3.926176071166992,-2.551128387451172,-0.2259025573730468,-0.3872882723808288,-0.1936441361904144,-0.1777616441249847
1772903213780012500,7.833012451171875,-3.876341819763184,-2.802438974380493,0.2578444480895996,-0.3207040131092071,-0.3280344009399414,-0.398283839225769
1772903213798999000,7.8519990234375,-3.372295379638672,-2.800677537918091,0.5589694976806641,-0.3035998046398163,-0.3457494676113128,-0.6078104376792908
1772903213817985500,7.870985595703125,-2.86307144165039,-2.4024691581726074,0.4644722938537597,-0.3127627670764923,-0.296269416809082,-0.7519745230674744
1772903213836971800,7.8899716796875,-2.747242927551269,-1.9250338077545168,0.1182355880737304,-0.3029889166355133,-0.2669478952884674,-0.8759800791740417
1772903213855958500,7.90895849609375,-2.6078977584838867,-1.6237984895706177,-0.0605506896972656,-0.2480110973119735,-0.3207040131092071,-1.003650784492493
1772903213874945000,7.927945068359375,-2.4905967712402344,-1.5831432342529297,0.1893982887268066,-0.2254091054201126,-0.4593703150749206,-1.1496474742889404
1772903213893931300,7.94693115234375,-1.9372034072875977,-1.5321478843688965,0.5418205261230469,-0.2516762912273407,-0.5705476999282837,-1.2846486568450928
1772903213912917800,7.965917724609375,-1.3598904609680176,-1.6174945831298828,0.9438529014587402,-0.3646862804889679,-0.5803215503692627,-1.4147628545761108
1772903213931904300,7.984904296875,-1.1980390548706057,-1.6135714054107666,0.9804978370666504,-0.5149590373039246,-0.4520399272441864,-1.6016874313354492
1772903213950890800,8.003890869140625,-1.005293846130371,-1.6444240808486938,0.723294734954834,-0.6438514590263367,-0.3384190797805786,-1.8191553354263303
1772903213969877200,8.022877197265625,-0.3317775726318359,-1.709934949874878,0.4400210380554199,-0.7263182401657104,-0.3035998046398163,-1.9498803615570068
1772903213988863700,8.04186376953125,0.3521757125854492,-1.7424432039260864,0.4465594291687011,-0.8124501705169678,-0.2755000293254852,-1.971260666847229
1772903214007850200,8.060850341796876,0.6575489044189453,-1.7973569631576538,0.3550167083740234,-0.9004147052764893,-0.2388481348752975,-1.9425499439239504
1772903214026836700,8.079836669921875,0.5449008941650391,-1.75478994846344,0.0166192054748535,-0.9541707634925842,-0.2492328286170959,-1.921780586242676
1772903214045823200,8.0988232421875,0.4111723899841308,-1.619712471961975,-0.810117244720459,-0.91751891374588,-0.3463603258132934,-1.8802417516708372
1772903214064809700,8.117809814453125,0.5094919204711914,-1.1187419891357422,-1.8443732261657717,-0.7202095985412598,-0.5668824911117554,-1.7708970308303833
1772903214083796200,8.136796142578126,1.1285123825073242,-0.504467248916626,-2.152646780014038,-0.3940077722072601,-0.8765909671783447,-1.5442661046981812
1772903214102782700,8.15578271484375,1.057147979736328,-0.3348188400268554,-0.9535360336303712,-0.2003636509180069,-1.073289394378662,-1.370169758796692
1772903214121769000,8.17476904296875,0.4468050003051758,-0.0329046249389648,-0.1316971778869629,-0.1985310465097427,-1.0476330518722534,-1.4062107801437378
1772903214140755500,8.19375537109375,0.2987527847290039,0.3429820537567138,-0.2001137733459472,-0.1973093301057815,-0.8772017955780029,-1.5931353569030762
1772903214159742200,8.2127421875,0.8389158248901367,0.6639652252197266,-0.7739930152893066,-0.0891862586140632,-0.6212494969367981,-1.7751730680465698
1772903214178728400,8.231728515625,1.665870189666748,1.0349736213684082,-1.195490837097168,0.1710421442985534,-0.2669478952884674,-1.894291639328003
1772903214197715000,8.25071484375,1.9087438583374023,1.052486777305603,-1.1766533851623535,0.4459312856197357,0.1991419196128845,-2.0628902912139893
1772903214216701400,8.269701416015625,2.6184401512146,1.295870065689087,-1.032724380493164,0.5955931544303894,0.5424479246139526,-2.206443548202514
1772903214235688000,8.28868798828125,3.851248264312744,1.7697901725769043,0.053328514099121,0.5473348498344421,0.2596175372600555,-2.0916008949279785
1772903214254674400,8.30767431640625,5.11245584487915,1.5499436855316162,0.3112502098083496,0.4410443603992462,0.1612683087587356,-1.7800599336624146
1772903214273661000,8.326660888671874,5.78809928894043,1.1687641143798828,1.1664385795593262,0.4050033390522003,-0.1624900251626968,-1.4801253080368042
1772903214292647400,8.3456474609375,6.4701104164123535,1.3723835945129397,1.7397098541259766,0.2852738499641418,0.0348192937672138,-1.1209368705749512
1772903214311634000,8.364634033203124,5.580399513244629,1.782911777496338,2.539008617401123,-0.0439822636544704,0.4440986812114715,-0.9334014058113098
1772903214330620400,8.383620361328125,4.166880130767822,2.493905067443848,2.165818691253662,-0.3811796307563782,0.8497129082679749,-1.003650784492493
1772903214349606700,8.402606689453124,3.797475814819336,3.2350025177001958,1.2555127143859863,-0.5949822664260864,1.0696241855621338,-1.065959095954895
1772903214368593400,8.421593505859375,4.110917091369629,3.660666465759277,0.7095279693603516,-0.7483093738555908,1.1154390573501587,-0.9211840629577636
1772903214387580000,8.440579833984375,4.2259955406188965,3.87874436378479,0.3175783157348633,-0.8167262077331543,1.0262528657913208,-0.5968148708343506
1772903214406566100,8.459566162109375,3.9066648483276367,4.133077621459961,0.2884411811828613,-0.8399390578269958,0.934623122215271,-0.1820377111434936
1772903214425552600,8.478552734375,2.95238733291626,4.412284851074219,0.0207939147949218,-0.7525854110717773,0.94439697265625,0.1478292793035507
1772903214444539100,8.4975390625,1.415874481201172,4.356115341186523,-0.0244703292846679,-0.5913171172142029,1.1826342344284058,0.2156352698802948
1772903214463525600,8.516525634765625,0.4613776206970215,3.991443634033203,0.4216237068176269,-0.4948004782199859,1.2705987691879272,0.1105665266513824
1772903214482512100,8.53551220703125,0.7098088264465332,3.2823381423950195,0.7923722267150879,-0.4214966893196106,0.998153030872345,0.015882484614849
1772903214501498600,8.55449853515625,2.1333765983581543,2.1316256523132324,1.4944710731506348,-0.3640754222869873,0.4996874034404754,0.0519235059618949
1772903214520485000,8.573485107421876,3.757132053375244,0.962183713912964,2.472029685974121,-0.3652971386909485,0.2816086709499359,0.2370155304670334
1772903214539471600,8.5924716796875,4.8230390548706055,-0.0846107006072998,3.464284896850586,-0.4770853817462921,0.5491674542427063,0.4966330528259277
1772903214558458000,8.6114580078125,5.143413066864014,-0.6640105247497559,3.813242912292481,-0.7037162184715271,1.0989457368850708,0.861319363117218
1772903214577444600,8.630444580078125,4.109228134155273,-0.4831776618957519,3.2330985069274902,-0.924849271774292,1.5406010150909424,1.2779290676116943
1772903214596431000,8.64943115234375,1.996138572692871,-0.4385662078857422,2.2969565391540527,-1.0574069023132324,1.630398154258728,1.544877052307129
1772903214615417600,8.66841748046875,0.1603879928588867,-0.8253710269927979,1.5713200569152832,-1.1160500049591064,1.4440842866897583,1.657886981964111
1772903214634403800,8.68740380859375,-0.5952625274658203,-1.3952608108520508,1.044358253479004,-1.1142174005508425,1.033583164215088,1.7446298599243164
1772903214653390300,8.706390380859375,-1.142624855041504,-2.105765581130981,0.8262624740600586,-1.0848958492279053,0.6450732350349426,1.8008294105529783
1772903214672377000,8.725377197265624,-1.3961615562438965,-2.619462013244629,1.0141777992248535,-1.1013891696929932,0.315206229686737,1.7886121273040771
1772903214691363300,8.74436328125,-1.611037254333496,-2.9992928504943848,1.3390603065490725,-1.2101231813430786,0.1270598769187927,1.7318016290664673
1772903214710349800,8.763349853515624,-2.240326404571533,-3.078307867050171,1.227257251739502,-1.334128737449646,0.0189368072897195,1.588248372077942
1772903214729336300,8.78233642578125,-2.742957592010498,-3.0414650440216064,0.8223891258239746,-1.4049890041351318,-0.0048869182355701,1.361006736755371
1772903214748322800,8.80132275390625,-2.99319076538086,-2.9608242511749268,0.3932867050170898,-1.4098758697509766,-0.0238237269222736,1.0965023040771484
1772903214767309300,8.820309326171875,-3.073423385620117,-2.9895827770233154,0.2098569869995117,-1.3823870420455933,0.0,0.8210022449493408
1772903214786295800,8.8392958984375,-2.9676074981689453,-2.8792872428894043,0.1481275558471679,-1.36772620677948,0.0293215103447437,0.5748237371444702
1772903214805282300,8.8582822265625,-2.5404415130615234,-2.7566146850585938,0.0274162292480468,-1.3573415279388428,0.0659733936190605,0.4111120104789734
1772903214824268800,8.877268798828124,-2.37937593460083,-2.7410671710968018,-0.271951675415039,-1.3041963577270508,0.1056796088814735,0.2840521335601806
1772903214843255300,8.89625537109375,-2.139493942260742,-2.6603307723999023,-0.3681588172912597,-1.227838158607483,0.0635299384593963,0.1881463527679443
1772903214862241800,8.91524169921875,-2.0131630897521973,-2.5129361152648926,-0.2683396339416504,-1.1856884956359863,-0.0439822636544704,0.1032361462712287
1772903214881228300,8.934228271484375,-1.663158893585205,-2.4291367530822754,-0.1924805641174316,-1.1398736238479614,-0.1453858166933059,0.0183259434998035
1772903214900214800,8.95321484375,-1.3514270782470703,-2.3548178672790527,-0.1993565559387207,-1.073289394378662,-0.1551596522331237,-0.0464257225394248
1772903214919201000,8.972200927734375,-1.04119873046875,-2.0066885948181152,-0.269782543182373,-0.9938769936561584,-0.1881463527679443,-0.067805990576744
1772903214938187500,8.9911875,-0.9301214218139648,-2.128854274749756,0.328554630279541,-0.9932661056518556,-0.3304778337478637,-0.1007926911115646
1772903214957174000,9.010174072265626,-0.9340543746948242,-2.581761598587036,1.0569443702697754,-1.1026109457015991,-0.4599811732769012,-0.2156352698802948
1772903214976160500,9.029160400390625,-0.7762594223022461,-2.708869457244873,0.8480563163757324,-1.1508692502975464,-0.3359756171703338,-0.3738492429256439
1772903214995147000,9.04814697265625,-0.4994974136352539,-2.133326530456543,0.3476190567016601,-1.1239912509918213,-0.0586430206894874,-0.4752528071403503
1772903215014133500,9.067133544921877,-0.6443691253662109,-2.0583815574646,0.544318675994873,-1.1594213247299194,0.0720820426940918,-0.5564978122711182
1772903215033120000,9.0861201171875,-0.7264823913574219,-2.0547542572021484,0.1892671585083007,-1.1246020793914795,0.0959057733416557,-0.5882627964019775
1772903215052106500,9.1051064453125,-0.720738410949707,-1.8608698844909668,-0.4193525314331054,-0.9596685767173768,-0.0006108647794462,-0.5338957905769348
1772903215071093000,9.124093017578126,-0.8892383575439453,-1.4156463146209717,-0.6550276279449463,-0.7574723362922668,-0.1429423540830612,-0.4355465769767761
1772903215090079500,9.14307958984375,-1.303703784942627,-1.1313138008117676,-0.2191700935363769,-0.6346884965896606,-0.2700022459030151,-0.3671297430992126
1772903215109065700,9.162065673828126,-1.8638710975646973,-1.0216376781463623,0.3050293922424316,-0.6175842881202698,-0.4135554432868957,-0.3933969140052795
1772903215128052500,9.181052490234377,-2.162713050842285,-1.079543113708496,0.8044567108154297,-0.6982184648513794,-0.5522217750549316,-0.5051851868629456
1772903215147039000,9.2000390625,-2.1975574493408203,-1.2327629327774048,1.068429946899414,-0.8503237962722778,-0.6181951761245728,-0.6695078015327454
1772903215166025200,9.219025146484377,-1.9774627685546875,-1.4688353538513184,0.8475279808044434,-0.943786084651947,-0.5974257588386536,-0.8460476994514465
1772903215185012000,9.238011962890624,-1.678865909576416,-1.790403127670288,0.6492152214050293,-0.962722897529602,-0.5057960152626038,-1.018311619758606
1772903215203998200,9.256998291015623,-1.4200496673583984,-1.9700993299484253,0.4647178649902344,-0.9456186890602112,-0.3433060050010681,-1.1777472496032717
1772903215222984700,9.275984619140624,-1.3542718887329102,-1.909761428833008,0.2731461524963379,-0.9138537049293518,-0.21319180727005,-1.313359260559082
1772903215241971200,9.29497119140625,-1.048691749572754,-1.7364983558654783,-0.0776910781860351,-0.8558215498924255,-0.1820377111434936,-1.351232886314392
1772903215260957700,9.313957763671874,-0.616816520690918,-1.5394797325134275,-0.1940116882324218,-0.7861829996109009,-0.2846629917621612,-1.2858703136444092
1772903215279944200,9.332944091796875,-0.6221919059753418,-1.3153876066207886,-0.3724832534790039,-0.7018836140632629,-0.4031707644462585,-1.240666389465332
1772903215298930700,9.3519306640625,-0.700930118560791,-0.981248378753662,-0.3411498069763183,-0.637742817401886,-0.4447095692157745,-1.2828160524368286
1772903215317917200,9.370917236328124,-0.3207988739013672,-0.7917691469192505,-0.097808837890625,-0.618806004524231,-0.4245510101318359,-1.3536763191223145
1772903215336903700,9.389903564453125,0.3006277084350586,-0.6686347126960754,-0.0093388557434082,-0.6078104376792908,-0.407446801662445,-1.3842196464538574
1772903215355890200,9.40889013671875,0.7958011627197266,-0.435042530298233,-0.0585904121398925,-0.5919279456138611,-0.3915643095970154,-1.36772620677948
1772903215374876700,9.427876708984376,1.0603904724121094,-0.0567651987075805,-0.1285338401794433,-0.6059778332710266,-0.3787361681461334,-1.339626431465149
1772903215393863200,9.44686328125,1.244586944580078,0.4358642995357513,-0.3175816535949707,-0.6151408553123474,-0.347582072019577,-1.3292417526245115
1772903215412849700,9.465849609375,1.494842529296875,0.8684189319610596,-0.1583023071289062,-0.6524035930633545,-0.2492328286170959,-1.3249657154083252
1772903215431836200,9.484836181640626,1.7243595123291016,1.2756292819976809,0.0038247108459472,-0.7250964641571045,-0.1802051067352295,-1.3170244693756104
1772903215450822400,9.503822509765625,2.112512588500977,1.6070162057876587,0.0601973533630371,-0.8155044913291931,-0.119729496538639,-1.2846486568450928
1772903215469809000,9.522808837890626,2.390887260437012,1.738849401473999,-0.1123828887939453,-0.880256175994873,0.0708603113889694,-1.2235621213912964
1772903215488795600,9.541795654296877,2.638702392578125,1.948199152946472,-0.3814702033996582,-0.9199623465538024,0.2767217457294464,-1.1087195873260498
1772903215507782000,9.560781982421876,2.840456962585449,2.14851713180542,-0.4604115486145019,-0.9602794051170348,0.328645259141922,-0.91751891374588
1772903215526768400,9.579768310546877,2.6722774505615234,2.265120029449463,-0.3637018203735351,-1.0317505598068235,0.3237583339214325,-0.6902772188186646
1772903215545755000,9.5987548828125,2.245438575744629,2.259589195251465,-0.410560131072998,-1.117882490158081,0.2895499169826507,-0.4923570156097412
1772903215564741400,9.617741455078123,1.721487045288086,2.21509313583374,-0.675626277923584,-1.1740821599960327,0.1826485693454742,-0.3530798554420471
1772903215583727900,9.636727783203124,1.405034065246582,1.9766449928283687,-0.5360655784606934,-1.2284491062164309,-0.098960094153881,-0.2803869247436523
1772903215602714400,9.65571435546875,1.6140050888061523,1.3963249921798706,-0.4583234786987304,-1.1924080848693848,-0.4685332775115967,-0.2816086709499359
1772903215621700900,9.674700927734374,2.07168960571289,1.331939697265625,-0.8772473335266113,-1.0054833889007568,-0.4526508152484894,-0.2241873741149902
1772903215640687400,9.693687255859375,2.1293115615844727,1.6972100734710691,-1.0232596397399902,-0.7892373204231262,-0.2211330533027649,-0.1789833754301071
1772903215659673900,9.712673828125,1.7888545989990234,1.9514305591583248,-0.8235955238342285,-0.6255255341529846,0.1123991161584854,-0.1759290546178817
1772903215678660000,9.73166015625,1.5915794372558594,1.7585139274597168,-0.2565078735351562,-0.5827649831771851,0.3249800503253937,-0.1423314958810806
1772903215697646800,9.750646728515624,1.447737693786621,1.5565974712371826,-0.039520263671875,-0.6249146461486816,0.2846629917621612,-0.0641408041119575
1772903215716633300,9.76963330078125,1.3920392990112305,1.484290361404419,0.0110435485839843,-0.6841685771942139,0.1569922417402267,0.0421496704220771
1772903215735619600,9.78861962890625,1.3817758560180664,1.3765742778778076,0.096107006072998,-0.7476984858512878,0.0519235059618949,0.1337793916463852
1772903215754606000,9.807606201171875,1.2157964706420898,1.1683489084243774,0.2746295928955078,-0.8026763200759888,0.0629190728068351,0.1771507859230041
1772903215773592600,9.826592529296876,0.9963912963867188,0.8781236410140991,0.3977317810058594,-0.8277217745780945,0.152716189622879,0.150883600115776
1772903215792579000,9.8455791015625,0.8251371383666992,0.6187407374382019,0.2968425750732422,-0.813671886920929,0.347582072019577,0.1069013327360153
1772903215811565600,9.864565673828125,0.9992141723632812,0.5330917835235596,0.0891180038452148,-0.7837395071983337,0.5204567909240723,0.1148425787687301
1772903215830552000,9.883552001953126,1.045405387878418,0.57478266954422,-0.019838809967041,-0.778241753578186,0.6401863098144531,0.1985310465097427
1772903215849538600,9.90253857421875,0.5523281097412109,0.4469584226608276,-0.3468780517578125,-0.7568614482879639,0.6633991599082947,0.268169641494751
1772903215868525000,9.921525146484376,0.2268972396850586,0.39505735039711,-0.6377830505371094,-0.6774490475654602,0.5473348498344421,0.3365865051746368
1772903215887511600,9.940511474609377,0.0143623352050781,0.2580890655517578,-0.5740270614624023,-0.6004800796508789,0.3323104381561279,0.3995055556297302
1772903215906498000,9.959498046875,-0.0848636627197265,0.0596165060997009,-0.2122416496276855,-0.5980366468429565,0.0922405794262886,0.4386008977890014
1772903215925484500,9.978484619140623,-0.3100519180297851,-0.2147250771522522,0.2536482810974121,-0.6817250847816467,-0.0818558782339096,0.3995055556297302
1772903215944471000,9.997470947265626,-0.3235139846801758,-0.3617388606071472,0.3487086296081543,-0.7715222239494324,-0.1398880332708358,0.3359756171703338
1772903215963457300,10.016457275390623,-0.0490140914916992,-0.4706695079803467,0.2921209335327148,-0.8533781170845032,-0.1466075479984283,0.3439168632030487
1772903215982443800,10.03544384765625,-0.007765769958496,-0.5858556032180786,0.1116986274719238,-0.9279035925865172,-0.1814268380403518,0.3903425931930542
1772903216001430300,10.05443017578125,-0.2133436203002929,-0.7288486361503601,-0.0452637672424316,-0.970053255558014,-0.2278525680303573,0.4068359434604645
1772903216020416800,10.073416748046874,-0.6295013427734375,-0.9108517169952391,-0.10819673538208,-1.0048725605010986,-0.215024396777153,0.3237583339214325
1772903216039403300,10.0924033203125,-1.1149282455444336,-1.1310086250305176,-0.1601152420043945,-1.0012073516845703,-0.0751363709568977,0.1417206227779388
1772903216058389800,10.1113896484375,-1.2353744506835938,-1.314367651939392,-0.4355254173278808,-0.934623122215271,0.1252272725105285,-0.0390953458845615
1772903216077376300,10.130376220703123,-0.9136514663696288,-1.5769340991973877,-0.7127914428710938,-0.8258891701698303,0.1899789422750473,-0.1142317131161689
1772903216096362800,10.14936279296875,-0.4250297546386719,-1.603088140487671,-0.9401216506958008,-0.6969966888427734,0.0983492285013198,-0.0598647482693195
1772903216115349200,10.168349365234375,-0.4651899337768554,-1.560711145401001,-0.911740779876709,-0.5907062292098999,0.0030543238390237,0.0476474538445472
1772903216134335700,10.187335693359374,-0.8772497177124023,-1.4801080226898191,-0.7829544544219971,-0.535728394985199,-0.0623082071542739,0.0934623107314109
1772903216153322000,10.206322021484375,-1.3511428833007812,-1.3930460214614868,-0.7960572242736816,-0.4819723069667816,-0.0525343716144561,0.0635299384593963
1772903216172308700,10.225308837890625,-1.5988483428955078,-1.2531193494796753,-0.8305950164794922,-0.411722868680954,-0.0500909127295017,0.0232128612697124
1772903216191295200,10.244295166015624,-1.750546932220459,-1.2441333532333374,-0.635465145111084,-0.3683514595031738,-0.1771507859230041,-0.0128281600773334
1772903216210281500,10.263281494140625,-1.8710198402404783,-1.426921844482422,-0.2385320663452148,-0.3549124300479889,-0.4471530318260193,-0.0836884751915931
1772903216229268200,10.282268310546876,-1.9685730934143064,-1.9177939891815183,0.3388829231262207,-0.3824013471603393,-0.7654135823249817,-0.2419024556875229
1772903216248254500,10.30125439453125,-1.7367324829101562,-2.1646037101745605,0.9589858055114746,-0.4453204274177551,-1.0519092082977295,-0.4764745235443115
1772903216267241000,10.320240966796876,-1.5805377960205078,-2.4003214836120605,1.1595487594604492,-0.5320632457733154,-1.061682939529419,-0.7770199775695801
1772903216286227500,10.3392275390625,-0.6772003173828125,-1.884029507637024,0.3522324562072754,-0.5051851868629456,-0.5772672295570374,-0.915686309337616
1772903216305214000,10.3582138671875,-0.119145393371582,-1.5188568830490112,-0.0681242942810058,-0.4153880476951599,-0.1899789422750473,-0.8930842876434326
1772903216324200400,10.377200439453125,-0.3203730583190918,-1.6895639896392822,-0.0792412757873535,-0.3543015718460083,-0.2657261788845062,-0.8277217745780945
1772903216343187000,10.39618701171875,-0.6394333839416504,-1.8017653226852417,0.085911750793457,-0.2797760665416717,-0.6322450637817383,-0.7776308655738831
1772903216362173400,10.41517333984375,-0.5818099975585938,-1.654260754585266,0.0997772216796875,-0.1679878085851669,-0.9553925395011902,-0.7263182401657104
1772903216381160000,10.434159912109376,-0.3781375885009765,-1.3677088022232056,0.2029333114624023,-0.0806341543793678,-1.1478148698806765,-0.6866120100021362
1772903216400146400,10.453146484375,-0.4720339775085449,-1.145573377609253,0.4109711647033691,-0.0244345907121896,-1.130099892616272,-0.6927206516265869
1772903216419133000,10.4721328125,-0.7498030662536621,-1.0945134162902832,0.7992963790893555,0.0073303775861859,-1.0024291276931765,-0.7641918659210205
1772903216438119200,10.491119140625,-0.9045662879943848,-1.1267393827438354,1.0896801948547363,-0.0097738364711403,-0.8570432662963867,-0.8698714375495911
1772903216457106000,10.51010595703125,-1.104952335357666,-0.9967383146286012,0.8796844482421875,-0.0323758348822593,-0.7049379348754883,-1.0042617321014404
1772903216476092400,10.529092529296875,-1.165764331817627,-0.6912969350814819,0.4844050407409668,-0.0012217295588925,-0.5485565662384033,-1.1246020793914795
1772903216495078700,10.54807861328125,-0.9739665985107422,-0.3261535763740539,0.1394433975219726,0.0494800470769405,-0.4923570156097412,-1.2357794046401978
1772903216514065200,10.567065185546875,-0.4685759544372558,-0.1038792133331298,0.1338491439819336,0.0952949076890945,-0.5619956254959106,-1.2797616720199585
1772903216533051600,10.5860517578125,0.2260956764221191,0.037843182682991,0.2481288909912109,0.1105665266513824,-0.720820426940918,-1.219896912574768
1772903216552038100,10.6050380859375,0.7014832496643066,0.1562707126140594,0.3988847732543945,0.0830776095390319,-0.8900299668312073,-1.119104266166687
1772903216571024600,10.624024658203124,0.7222161293029785,0.2989077270030975,0.3761186599731445,0.0549778304994106,-0.9761618971824646,-1.0873392820358276
1772903216590011100,10.64301123046875,0.8222169876098633,0.4473077058792114,0.0774116516113281,0.0830776095390319,-0.9169080257415771,-1.1160500049591064
1772903216608997600,10.66199755859375,1.163111686706543,0.6557813882827759,-0.2265419960021972,0.150883600115776,-0.7800742983818054,-1.1313215494155884
1772903216627984100,10.680984130859375,1.6782913208007812,0.9803271293640136,-0.3806390762329101,0.2138026654720306,-0.6805033683776855,-1.103221774101257
1772903216646970600,10.699970703125,2.043385505676269,1.273146390914917,-0.3103342056274414,0.2449567764997482,-0.564439058303833,-1.0091485977172852
1772903216665957000,10.71895703125,2.0539679527282715,1.5201176404953003,-0.3859086036682129,0.2449567764997482,-0.472198486328125,-0.9089667797088624
1772903216684943600,10.737943603515625,1.8304896354675293,1.783482551574707,-0.5393552780151367,0.2614501118659973,-0.411722868680954,-0.8466585874557495
1772903216703930000,10.75693017578125,1.7134637832641602,2.15817928314209,-0.6494903564453125,0.2974911332130432,-0.3512472510337829,-0.8057306408882141
1772903216722916400,10.775916259765625,1.7086634635925293,2.5322265625,-0.6279516220092773,0.3262017965316772,-0.2858847081661224,-0.7648026943206787
1772903216741902800,10.79490283203125,1.8594884872436523,2.797980308532715,-0.5847554206848145,0.3237583339214325,-0.2498437017202377,-0.7055488228797913
1772903216760889300,10.813889404296877,2.0943398475646973,2.985595226287842,-0.6055383682250977,0.2846629917621612,-0.2419024556875229,-0.637742817401886
1772903216779875800,10.832875732421876,2.31142807006836,3.143054962158203,-0.748779296875,0.2498437017202377,-0.173485592007637,-0.5345066785812378
1772903216798862300,10.8518623046875,2.4951095581054688,3.3596763610839844,-0.7628297805786133,0.2235765159130096,-0.119729496538639,-0.4349357187747955
1772903216817848800,10.870848876953126,2.459040641784668,3.446054697036743,-0.6582493782043457,0.1918115466833114,-0.0219911318272352,-0.3488037884235382
1772903216836835300,10.88983544921875,2.231823444366455,3.4783430099487305,-0.7166476249694824,0.1466075479984283,0.1123991161584854,-0.3011563420295715
1772903216855821800,10.90882177734375,2.117675304412842,3.5025668144226074,-0.8294596672058105,0.1221729591488838,0.235793799161911,-0.2431241869926452
1772903216874808300,10.927808349609377,2.091557502746582,3.5737037658691406,-0.8143677711486816,0.1069013327360153,0.2803869247436523,-0.1484401375055313
1772903216893794800,10.946794921875,2.13455867767334,3.642986297607422,-0.5676450729370117,0.0684168562293052,0.2596175372600555,-0.0250454563647508
1772903216912781300,10.96578125,1.998045921325684,3.495591163635254,-0.0837750434875488,-0.0238237269222736,0.1820377111434936,0.0623082071542739
1772903216931767800,10.984767822265624,1.9476008415222168,2.801934242248535,0.8232011795043945,-0.1759290546178817,-0.0824667438864708,0.0482583157718181
1772903216950754000,11.003754150390623,2.654873847961426,2.469191074371338,1.3446063995361328,-0.3408625423908233,-0.1655443608760833,0.0476474538445472
1772903216969740500,11.022740478515624,3.1802854537963867,2.063455104827881,1.2964143753051758,-0.4453204274177551,0.0030543238390237,0.0726929083466529
1772903216988727300,11.041727294921875,3.6349592208862314,1.7602161169052124,0.9947004318237304,-0.4679224193096161,0.2089157551527023,0.1343902498483657
1772903217007713500,11.060713623046874,3.887753486633301,1.2977585792541504,1.109696865081787,-0.4752528071403503,0.4752528071403503,0.2632827162742615
1772903217026700000,11.079699951171875,3.9610772132873535,0.9598737955093384,0.9234108924865724,-0.4746419191360473,0.6798924803733826,0.4361574649810791
1772903217045686500,11.0986865234375,3.6448235511779785,0.5835492610931396,0.6999001502990723,-0.4752528071403503,0.7568614482879639,0.6133082509040833
1772903217064673000,11.117673095703124,3.229067802429199,0.3204020261764526,0.4218387603759765,-0.4471530318260193,0.7391464114189148,0.7794634699821472
1772903217083659500,11.136659423828124,2.924057006835937,0.1705358028411865,0.49127197265625,-0.4343248605728149,0.7770199775695801,0.9578359723091124
1772903217102646000,11.15564599609375,2.3734288215637207,-0.0099682211875915,0.5156235694885254,-0.45875945687294,0.9364557266235352,1.1148282289505005
1772903217121632500,11.174632568359376,1.499283790588379,-0.1008001863956451,0.1912288665771484,-0.4862483739852905,1.110552191734314,1.1869102716445925
1772903217140619000,11.193618896484375,0.740623950958252,-0.209546685218811,0.0277872085571289,-0.5338957905769348,1.2131774425506592,1.199738383293152
1772903217159605500,11.21260546875,0.3810281753540039,-0.547159731388092,-0.1620950698852539,-0.5674933791160583,1.18446683883667,1.2107340097427368
1772903217178592000,11.231592041015626,0.4304800033569336,-1.0014985799789429,-0.183997631072998,-0.5809323787689209,1.0115920305252075,1.2797616720199585
1772903217197578500,11.25057861328125,0.6157426834106445,-1.551341891288757,0.0318727493286132,-0.5907062292098999,0.7476984858512878,1.4043781757354736
1772903217216565000,11.26956494140625,0.3650860786437988,-1.9584646224975584,0.2889108657836914,-0.6120865345001221,0.5314523577690125,1.4550799131393433
1772903217235551200,11.28855126953125,-0.2092370986938476,-2.3225831985473637,0.1909584999084472,-0.6065887212753296,0.4819723069667816,1.3750566244125366
1772903217254537700,11.307537841796876,-0.2143926620483398,-2.571507453918457,0.1101264953613281,-0.5528326034545898,0.5119046568870544,1.2760965824127195
1772903217273524200,11.326524169921877,-0.0499420166015625,-2.795804023742676,-0.1262059211730957,-0.4361574649810791,0.5491674542427063,1.227838158607483
1772903217292510700,11.3455107421875,0.2303705215454101,-2.7586183547973637,-0.0578079223632812,-0.3170388340950012,0.5619956254959106,1.2547162771224976
1772903217311497200,11.364497314453123,0.0533943176269531,-2.7296595573425293,0.1963729858398437,-0.2571740746498108,0.5919279456138611,1.2699878215789795
1772903217330483700,11.383483642578126,-0.4614696502685547,-2.740673303604126,0.208683967590332,-0.2015853822231292,0.5998691916465759,1.204014539718628
1772903217349470200,11.40247021484375,-0.8193426132202148,-2.747159957885742,0.1015787124633789,-0.1203403621912002,0.4954113364219665,1.0952805280685425
1772903217368456700,11.421456787109374,-0.8391017913818359,-2.654954671859741,0.2402596473693847,-0.0592538826167583,0.3756818473339081,1.0048725605010986
1772903217387443200,11.440443115234377,-0.7640933990478516,-2.5606656074523926,0.5245132446289062,-0.0757472291588783,0.2816086709499359,0.9126319885253906
1772903217406429700,11.4594296875,-0.911630630493164,-2.486654043197632,0.6252021789550781,-0.1258381456136703,0.3121519088745117,0.7837395071983337
1772903217425416200,11.478416259765623,-1.1701130867004397,-2.4216830730438232,0.3120193481445312,-0.1288924664258957,0.4135554432868957,0.5998691916465759
1772903217444402700,11.497402587890624,-1.1022329330444336,-2.300667524337769,-0.0958375930786132,-0.0818558782339096,0.4941896200180053,0.439822643995285
1772903217463389200,11.51638916015625,-0.8985319137573242,-2.237778663635254,-0.1845684051513672,-0.0323758348822593,0.565049946308136,0.3720166385173797
1772903217482375400,11.53537548828125,-0.8374509811401367,-2.0693602561950684,-0.3088011741638183,0.0287106446921825,0.526565432548523,0.3659079968929291
1772903217501362200,11.554362060546875,-0.9410772323608398,-1.8812470436096191,-0.2622342109680176,0.0671951249241828,0.4954113364219665,0.3652971386909485
1772903217520348400,11.573348388671874,-1.015972137451172,-1.632632851600647,-0.6329717636108398,0.1099556609988212,0.4783071279525757,0.3561341762542724
1772903217539335000,11.5923349609375,-1.0398612022399902,-1.354272723197937,-1.021139144897461,0.2247982323169708,0.4459312856197357,0.3518581092357635
1772903217558321400,11.6113212890625,-0.9644041061401368,-1.1713039875030518,-0.9829034805297852,0.3714057803153991,0.4294379353523254,0.3848448097705841
1772903217577308000,11.630307861328124,-0.8713922500610352,-1.0650897026062012,-0.3211574554443359,0.4862483739852905,0.268169641494751,0.4416552484035492
1772903217596294400,11.64929443359375,-0.3314375877380371,-1.4652127027511597,1.2407069206237793,0.4752528071403503,-0.233961209654808,0.5662716627120972
1772903217615281000,11.668281005859376,-0.0830554962158203,-1.8332889080047607,2.828339099884033,0.2168570011854171,-0.7330377101898193,0.5674933791160583
1772903217634267400,11.687267333984376,-0.4818677902221679,-1.8474985361099243,2.4401354789733887,-0.067805990576744,-0.6438514590263367,0.3280344009399414
1772903217653254000,11.70625390625,-0.5505666732788086,-1.3612160682678225,0.8779902458190918,-0.0635299384593963,-0.119729496538639,-0.0048869182355701
1772903217672240400,11.725240478515625,-0.3837513923645019,-1.5413284301757812,1.1521821022033691,0.0109955659136176,0.1588248461484909,-0.2083048969507217
1772903217691227000,11.744226806640626,-0.0401973724365234,-1.4531433582305908,1.2585511207580566,-0.0543669648468494,0.0152716198936104,-0.2822195291519165
1772903217710213400,11.76321337890625,-0.0793819427490234,-0.9426333904266356,0.6916289329528809,-0.0861319303512573,-0.1203403621912002,-0.3390299379825592
1772903217729199900,11.782199951171876,-0.3951907157897949,-0.5486562252044678,-0.1128339767456054,-0.0238237269222736,-0.057421289384365,-0.4581485986709595
1772903217748186400,11.801186279296877,0.0260381698608398,-0.5946295261383057,-0.5245933532714844,0.0610864795744419,0.0616973415017128,-0.4740310609340668
