time,seconds_elapsed,acc_z,acc_y,acc_x,gyro_z,gyro_y,gyro_x
1772903232452169700,0.098169677734375,0.1040887832641601,0.0517075061798095,0.0228216648101806,0.3573558926582336,0.1600465774536132,0.0293215103447437
1772903232471156200,0.11715625,0.2758283615112304,0.0565104484558105,-0.0243401527404785,0.3787361681461334,0.1514944583177566,0.098960094153881
1772903232490142500,0.136142578125,0.4317235946655273,0.0261955261230468,-0.0598723888397216,0.3970620930194855,0.0806341543793678,0.232128620147705
1772903232509128700,0.155128662109375,0.4425344467163086,0.0389285087585449,-0.1259527206420898,0.4233292937278747,0.0213802680373191,0.370184063911438
1772903232528115200,0.174115234375,0.2328357696533203,0.1134092807769775,-0.0779857635498046,0.439822643995285,0.0116064306348562,0.4581485986709595
1772903232547101400,0.193101318359375,0.0858144760131836,0.1594712734222412,-0.1073110103607177,0.4508182108402252,0.0219911318272352,0.5094612240791321
1772903232566087700,0.212087646484375,0.4805536270141601,0.1737375259399414,-0.1739811897277832,0.4929678738117218,0.0335975624620914,0.618806004524231
1772903232585074200,0.23107421875,0.9419193267822266,0.0877547264099121,-0.3766703605651855,0.6035344004631042,0.1026252806186676,0.8539889454841614
1772903232604060400,0.250060302734375,0.7125711441040039,-0.0959196090698242,-0.5776383876800537,0.7342594861984253,0.1111773923039436,1.112384796142578
1772903232623046700,0.269046630859375,0.0231428146362304,-0.4019808769226074,-0.8495481014251709,0.8625410795211792,0.0329866968095302,1.3078614473342896
1772903232642033000,0.288032958984375,-0.8458309173583984,-0.7454590797424316,-0.928452730178833,0.9663881063461304,-0.233961209654808,1.3994911909103394
1772903232661019400,0.307019287109375,-1.4103703498840332,-1.2988157272338867,-0.9397182464599608,1.0598503351211548,-0.5247328281402588,1.4159845113754272
1772903232680005600,0.326005615234375,-1.5435514450073242,-1.1100521087646484,-0.6091856956481934,1.0769546031951904,-0.471587598323822,1.3646719455718994
1772903232698991900,0.344991943359375,-1.738542556762695,-1.1482691764831543,-0.4689257144927978,1.099556565284729,-0.3115410506725311,1.296255111694336
1772903232717978400,0.363978271484375,-2.319624900817871,-1.4827075004577637,-0.1845602989196777,1.1319323778152466,-0.0280997790396213,1.1624757051467896
1772903232736964600,0.382964599609375,-2.948570251464844,-1.9501490592956543,0.1026957035064697,1.1447606086730957,0.0482583157718181,0.9505056142807008
1772903232755950800,0.401950927734375,-2.751585960388184,-2.120370388031006,0.660118579864502,1.0403027534484863,-0.1704312711954116,0.7721330523490906
1772903232774937300,0.420937255859375,-2.5724096298217773,-2.429534435272217,1.0294108390808103,0.9169080257415771,-0.4673115611076355,0.6695078015327454
1772903232793923600,0.439923583984375,-2.697839736938477,-2.670682907104492,1.0490870475769043,0.7764091491699219,-0.9291253089904784,0.5797106623649597
1772903232812909800,0.458909912109375,-2.856665134429932,-2.3903167247772217,0.9810910224914552,0.5662716627120972,-1.5974113941192627,0.4728093445301056
1772903232831896300,0.477896240234375,-2.4632692337036133,-1.84218168258667,1.3057804107666016,0.2235765159130096,-1.868024468421936,0.2755000293254852
1772903232850882600,0.496882568359375,-3.0131421089172363,-2.068636894226074,0.5548863410949707,0.1820377111434936,-1.1979057788848877,-0.1912006735801696
1772903232869869000,0.515869140625,-3.531757354736328,-1.6086225509643557,-0.3415150642395019,0.5406153202056885,-0.0818558782339096,-0.9663881063461304
1772903232888855300,0.534855224609375,-1.7171869277954102,-1.0270988941192627,0.4145574569702148,0.8625410795211792,0.7959567904472351,-1.740964651107788
1772903232907841300,0.55384130859375,0.6066255569458008,-0.7507474422454834,1.9710350036621092,0.9621120095252992,1.5754202604293823,-2.2223260402679443
1772903232926827800,0.572827880859375,2.8861985206604004,-0.3482346534729004,2.7456812858581543,0.8155044913291931,1.868024468421936,-2.3011276721954346
1772903232945814000,0.59181396484375,4.293941974639893,0.0271017551422119,2.671746253967285,0.6029235124588013,1.5699224472045898,-1.96148681640625
1772903232964800300,0.61080029296875,4.524909973144531,-0.0026135444641113,2.268467426300049,0.45875945687294,0.8833104968070984,-1.4190388917922974
1772903232983786800,0.629786865234375,3.241021156311035,-0.0229861736297607,2.040180206298828,0.4269944727420807,0.9621120095252992,-0.915075421333313
1772903233002773000,0.64877294921875,2.677082061767578,-0.0382478237152099,2.1694211959838867,0.3988946974277496,1.3286309242248535,-0.5815432667732239
1772903233021759200,0.66775927734375,1.7645015716552734,0.1696974039077758,1.5644755363464355,0.4343248605728149,1.543655276298523,-0.4801397025585174
1772903233040745700,0.686745849609375,0.6728992462158203,0.7673848867416382,0.6069855690002441,0.5583304166793823,1.525940179824829,-0.490524411201477
1772903233059732000,0.70573193359375,-0.0020723342895507,1.5619630813598633,0.2036290168762207,0.5381718873977661,1.1771364212036133,-0.4948004782199859
1772903233078718200,0.72471826171875,-0.3020868301391601,1.5014592409133911,0.6800169944763184,0.3274235129356384,0.7507528066635132,-0.4893026947975158
1772903233097704400,0.743704345703125,-0.1462564468383789,0.9693855047225952,1.189432144165039,0.0048869182355701,0.3237583339214325,-0.4557051360607147
1772903233116691000,0.76269091796875,0.1892013549804687,0.2285511493682861,1.3697290420532229,-0.2669478952884674,0.2528980076313019,-0.3573558926582336
1772903233135677200,0.78167724609375,0.8489542007446289,-0.3950852155685425,0.5490875244140625,-0.3042106628417969,0.3109301626682281,-0.2388481348752975
1772903233154663400,0.800663330078125,1.0799331665039062,-0.3003180027008056,-0.5377302169799805,-0.1478292793035507,0.5583304166793823,-0.0696385875344276
1772903233173650000,0.81964990234375,0.542780876159668,-0.7176284193992615,-0.6746926307678223,0.0959057733416557,0.8881973624229431,0.1221729591488838
1772903233192636200,0.83863623046875,0.0456342697143554,-0.8747668266296387,-0.4959425926208496,0.2968802750110626,0.8472694754600525,0.2730565667152405
1772903233211622400,0.857622314453125,-0.096231460571289,-0.373337984085083,-0.4843099117279053,0.3976729810237884,0.5497782826423645,0.3744601011276245
1772903233230609000,0.87660888671875,-0.1548376083374023,0.1479195356369018,-0.3462986946105957,0.4214966893196106,0.3451386094093323,0.4459312856197357
1772903233249595100,0.89559521484375,-0.2045803070068359,0.3423049449920654,0.0469999313354492,0.3347539007663727,0.2822195291519165,0.4685332775115967
1772903233268581400,0.914581298828125,-0.4957847595214844,-0.0473530292510986,0.4232981204986572,0.1698204129934311,0.3555232882499695,0.411722868680954
1772903233287567600,0.933567626953125,-0.8059635162353516,-0.3774967193603515,0.100644826889038,0.1221729591488838,0.3023780584335327,0.2944368124008178
1772903233306554000,0.95255419921875,-0.7968959808349609,-0.2884621620178222,-0.4423069953918457,0.254730612039566,0.1123991161584854,0.1918115466833114
1772903233325540400,0.971540283203125,-0.3367815017700195,-0.2178010940551757,-0.2472865581512451,0.3707949221134186,0.0904079899191856,0.1753181964159011
1772903233344526600,0.990526611328125,-0.2898769378662109,-0.3997585773468017,-0.2205476760864257,0.4532616734504699,0.2437350451946258,0.2510654330253601
1772903233363512800,1.009512939453125,-0.1953239440917968,-0.1460063457489013,-0.8479788303375244,0.4465421438217163,0.0659733936190605,0.328645259141922
1772903233382499300,1.028499267578125,0.2083501815795898,-0.3905783891677856,0.0758731365203857,0.315206229686737,-0.2693913578987121,0.3909534513950348
1772903233401485600,1.047485595703125,0.2284774780273437,-0.3860864639282226,0.3008463382720947,0.2834412455558777,-0.3555232882499695,0.4532616734504699
1772903233420471800,1.066471923828125,-0.3292293548583984,-0.208030104637146,0.4266235828399658,0.337808221578598,-0.3158170878887176,0.4654789566993713
1772903233439458300,1.085458251953125,-1.8430862426757808,-0.1732376813888549,0.5460691452026367,0.3720166385173797,-0.2492328286170959,0.3878991305828094
1772903233458444500,1.104444580078125,-2.703175544738769,-0.3148813247680664,0.7614073753356934,0.2394589930772781,-0.4050033390522003,0.2083048969507217
1772903233477430800,1.1234306640625,-2.738220691680908,-0.2327744960784912,0.9698848724365234,0.0671951249241828,-0.6059778332710266,0.0610864795744419
1772903233496417300,1.142417236328125,-2.596735000610352,-0.6034358739852905,1.0534498691558838,-0.0580321550369262,-0.6414080262184143,-0.047036588191986
1772903233515403500,1.161403564453125,-2.4358272552490234,-1.0427817106246948,0.8252906799316406,-0.1453858166933059,-0.5937605500221252,-0.1227838173508644
1772903233534389800,1.1803896484375,-2.525203227996826,-1.333359718322754,0.2297220230102539,-0.1069013327360153,-0.5216785073280334,-0.1576031148433685
1772903233553376300,1.199376220703125,-3.031932830810547,-1.322102427482605,-0.1812429428100586,-0.026267185807228,-0.4422661066055298,-0.2364046722650528
1772903233572362500,1.218362548828125,-3.485276222229004,-0.9569835662841796,-0.3640565872192383,0.0311541035771369,-0.4288270771503448,-0.4483747482299804
1772903233591348700,1.2373486328125,-3.345505714416504,-0.4610611200332641,-0.589055061340332,0.0855210721492767,-0.4654789566993713,-0.7476984858512878
1772903233610335000,1.2563349609375,-2.257780075073242,-0.1343437433242797,-0.7275605201721191,0.1600465774536132,-0.62857985496521,-0.9407317638397216
1772903233629321500,1.275321533203125,-0.8548755645751953,0.0071679353713989,-0.3451967239379883,0.1777616441249847,-0.8350521326065063,-0.9639446139335632
1772903233648307700,1.2943076171875,-0.0504474639892578,0.0622888207435607,0.1599273681640625,0.1356119811534881,-0.7605266571044922,-0.8888082504272461
1772903233667294000,1.3132939453125,1.0085172653198242,0.1996561884880066,0.3997759819030761,0.057421289384365,-0.5803215503692627,-0.739757239818573
1772903233686280400,1.332280517578125,1.7744016647338867,0.4124494194984436,0.2155556678771972,-0.0079412423074245,-0.5106829404830933,-0.6273581385612488
1772903233705266700,1.3512666015625,2.011141777038574,0.6845411658287048,0.050384521484375,-0.0189368072897195,-0.6017017960548401,-0.6206386089324951
1772903233724253000,1.3702529296875,2.673079490661621,0.6060311794281006,0.0586452484130859,0.0433713980019092,-0.7788525819778442,-0.6872228980064392
1772903233743239200,1.3892392578125,4.023465156555176,1.1971278190612793,-0.0333013534545898,0.150883600115776,-0.6994401812553406,-0.6249146461486816
1772903233762225700,1.4082255859375,4.48023796081543,1.7998830080032349,0.0030879974365234,0.1087339296936988,-0.2284634262323379,-0.407446801662445
1772903233781212000,1.4272119140625,3.4477319717407227,1.3698980808258057,-0.1054267883300781,-0.0867427960038185,-0.0500909127295017,-0.1863137632608413
1772903233800198100,1.4461982421875,2.514188766479492,1.1115787029266355,-1.024583339691162,-0.2480110973119735,-0.5784889459609985,0.0238237269222736
1772903233819184400,1.465184326171875,2.332707405090332,1.5004857778549194,-2.426975727081299,-0.2119700759649276,-1.662163019180298,0.2981020212173462
1772903233838171000,1.4841708984375,3.561312198638916,1.855583667755127,-3.20747709274292,-0.0335975624620914,-2.6554291248321533,0.7165443897247314
1772903233857157000,1.5031572265625,4.831976890563965,1.4672656059265137,-2.6747519969940186,0.1453858166933059,-2.95963978767395,1.2162318229675293
1772903233876143400,1.522143310546875,5.2492547035217285,0.8776035308837891,-0.9728360176086426,0.1374445706605911,-2.478889226913452,1.6053526401519775
1772903233895129600,1.541129638671875,4.086908340454102,1.0011682510375977,-0.915977954864502,0.150883600115776,-2.014631986618042,1.7140865325927734
1772903233914116000,1.5601162109375,2.9450836181640625,1.1589477062225342,-1.164620876312256,0.1227838173508644,-1.7880011796951294,1.8228205442428589
1772903233933102300,1.579102294921875,1.8237810134887693,0.9388031959533693,-1.52410888671875,0.0213802680373191,-1.827707409858704,1.990808367729187
1772903233952088600,1.598088623046875,1.492821216583252,0.589929461479187,-1.480573654174805,0.0299323741346597,-1.8912373781204224,2.1722352504730225
1772903233971074800,1.61707470703125,1.2465577125549316,-0.0625641345977783,-1.2076563835144043,0.1673769503831863,-1.8723005056381223,2.293797254562378
1772903233990061300,1.636061279296875,0.6849145889282227,-0.6729156970977783,-0.6203498840332031,0.264504462480545,-1.868024468421936,2.2791364192962646
1772903234009047600,1.655047607421875,0.2519760131835937,-1.0187338590621948,-0.1345186233520507,0.2700022459030151,-1.884517788887024,2.1704025268554688
1772903234028033800,1.67403369140625,-0.0450105667114257,-1.2284321784973145,0.3764410018920898,0.2193004488945007,-1.731190800666809,1.9761475324630735
1772903234047020000,1.69302001953125,-0.2465553283691406,-1.6570086479187012,1.222696304321289,0.1044578775763511,-1.2797616720199585,1.6890411376953125
1772903234066006500,1.712006591796875,-0.7257118225097656,-2.285406351089477,1.3384675979614258,0.002443459117785,-0.8265000581741333,1.369558811187744
1772903234084992800,1.73099267578125,-0.8694610595703125,-2.7046148777008057,0.3476219177246094,-0.0122172953560948,-0.6860011219978333,1.1404845714569092
1772903234103979000,1.74997900390625,-0.8865647315979004,-2.953496217727661,-0.9481439590454102,0.0983492285013198,-0.84177166223526,1.0207550525665283
1772903234122965500,1.768965576171875,-0.4579331874847412,-3.027887344360352,-1.056312084197998,0.205861434340477,-0.9279035925865172,0.962722897529602
1772903234141951700,1.78795166015625,-0.2256503105163574,-3.6982927322387695,-0.7852649688720703,0.2614501118659973,-0.6365211009979248,0.9272927641868592
1772903234160938000,1.80693798828125,-0.8994557857513428,-4.137969970703125,-1.2081670761108398,0.3176496922969818,-0.3628536760807037,0.8558215498924255
1772903234179924200,1.82592431640625,-1.602078199386597,-4.125344753265381,-1.8886594772338867,0.3964512348175049,-0.4422661066055298,0.7739656567573547
1772903234198910700,1.84491064453125,-1.6453197002410889,-4.153693675994873,-2.5947265625,0.5668824911117554,-0.7849612236022949,0.7733548283576965
1772903234217897000,1.86389697265625,-1.3619990348815918,-4.181304931640625,-2.3448939323425293,0.7189878225326538,-1.1197150945663452,0.833219587802887
1772903234236883200,1.88288330078125,-1.2778339385986328,-4.405940532684326,-1.8201093673706052,0.8692606091499329,-1.0855066776275637,0.8698714375495911
1772903234255869400,1.901869384765625,-1.7504938840866089,-4.979192733764648,-0.8371992111206055,1.01708984375,-0.8295543789863586,0.7904590368270874
1772903234274856000,1.92085595703125,-2.4949820041656494,-5.074941635131836,-0.5150127410888672,1.148425817489624,-0.667064368724823,0.5790998339653015
1772903234293842200,1.93984228515625,-2.916225910186768,-4.588405609130859,-0.5946168899536133,1.286481261253357,-0.988990068435669,0.2968802750110626
1772903234312828400,1.958828369140625,-2.890040874481201,-4.431432247161865,0.252354621887207,1.4636319875717163,-1.3811652660369873,-0.0745255053043365
1772903234331815000,1.97781494140625,-2.439082622528076,-4.825389862060547,2.03627872467041,1.592524528503418,-1.25715970993042,-0.5473348498344421
1772903234350801200,1.99680126953125,-2.086714029312134,-4.419373989105225,3.4607248306274414,1.4935643672943115,-0.7910698652267456,-1.0677915811538696
1772903234369787400,2.015787353515625,-1.8088141679763796,-3.4286859035491943,3.015231132507324,1.32985258102417,-0.3591884970664978,-1.5760310888290403
1772903234388773600,2.034773681640625,-1.1133556365966797,-2.83359694480896,1.5416765213012695,1.3866630792617798,-0.0922405794262886,-1.9657628536224363
1772903234407760100,2.053760009765625,0.0305198431015014,-2.4215731620788574,1.0767574310302734,1.5192207098007202,0.0824667438864708,-2.118479013442993
1772903234426746400,2.072746337890625,1.1168451309204102,-1.638912558555603,0.9057607650756836,1.5497639179229736,0.1258381456136703,-2.0237951278686523
1772903234445732600,2.091732666015625,1.892682433128357,-0.6806197762489319,0.7064657211303711,1.479514479637146,0.0390953458845615,-1.7886121273040771
1772903234464718800,2.11071875,2.2289326190948486,-0.272507905960083,0.6579055786132812,1.3921607732772827,0.002443459117785,-1.5308271646499634
1772903234483705300,2.129705322265625,2.339983463287353,-0.0516358613967895,0.6931591033935547,1.3915499448776243,-0.0073303775861859,-1.3286309242248535
1772903234502691600,2.148691650390625,2.6117191314697266,0.2190581560134887,1.0874176025390625,1.4208714962005615,-0.0390953458845615,-1.1099413633346558
1772903234521677800,2.167677734375,2.9257521629333496,0.7948724031448364,1.4747543334960938,1.432477951049805,0.0219911318272352,-0.8619301915168762
1772903234540664000,2.1866640625,2.543549060821533,1.712578535079956,2.0918922424316406,1.3555089235305786,0.0763580948114395,-0.6792816519737244
1772903234559650600,2.205650634765625,2.0362448692321777,2.2142698764801025,2.485468864440918,1.1575887203216553,0.0659733936190605,-0.6139190793037415
1772903234578636800,2.22463671875,2.113555908203125,2.696815490722656,1.8344764709472656,1.053741693496704,0.0610864795744419,-0.5662716627120972
1772903234597623000,2.243623046875,2.906001567840576,3.3881685733795166,0.8013515472412109,1.1423171758651731,0.0445931293070316,-0.3524689674377441
1772903234616609300,2.262609375,3.57160758972168,4.26677942276001,0.7943115234375,1.2461642026901243,-0.0183259434998035,0.0769689604640007
1772903234635595800,2.281595703125,3.03375506401062,4.82119083404541,1.400299072265625,1.2205078601837158,-0.1398880332708358,0.5119046568870544
1772903234654582000,2.30058203125,2.3159775733947754,5.171438217163086,1.9641180038452148,1.0555742979049685,-0.277332603931427,0.8399390578269958
1772903234673568300,2.319568359375,1.9143643379211424,5.499949455261231,1.7965784072875977,0.8753692507743835,-0.3249800503253937,1.092226266860962
1772903234692554500,2.338554443359375,1.6602301597595217,5.690811634063721,1.5296306610107422,0.7531962990760803,-0.3512472510337829,1.3017528057098389
1772903234711540700,2.357540771484375,1.1282992362976074,5.792012691497803,1.3935346603393557,0.6633991599082947,-0.4245510101318359,1.434921383857727
1772903234730527200,2.37652734375,0.7120176553726196,5.827332496643066,1.6832008361816406,0.5510000586509705,-0.4935787320137024,1.4886775016784668
1772903234749513500,2.395513427734375,0.7255591154098511,5.813127517700195,2.450495719909668,0.3414734005928039,-0.4679224193096161,1.50028395652771
1772903234768499700,2.414499755859375,0.8118729591369629,5.616425514221191,2.90655517578125,0.0342084281146526,-0.4098902642726898,1.4886775016784668
1772903234787486000,2.43348583984375,0.8762532472610474,5.334856033325195,2.618660926818848,-0.296269416809082,-0.3640754222869873,1.4715732336044312
1772903234806472200,2.45247216796875,0.8959094285964966,4.749746322631836,1.912745475769043,-0.5308414697647095,-0.3207040131092071,1.441640853881836
1772903234825458700,2.471458740234375,1.08650803565979,3.668866634368897,1.5971097946166992,-0.7049379348754883,-0.3164279460906982,1.4001020193099976
1772903234844445000,2.49044482421875,1.8720965385437007,2.7489500045776367,1.167402267456055,-0.8814778923988342,-0.4184423685073852,1.4465278387069702
1772903234863431200,2.50943115234375,3.1316850185394287,1.5591590404510498,0.7172164916992188,-0.8863648176193237,-0.6334667801856995,1.6365067958831787
1772903234882417400,2.52841748046875,4.350132465362549,0.2715580463409424,0.7709846496582031,-0.6835576891899109,-0.7977893948554993,1.9523237943649288
1772903234901404000,2.54740380859375,5.056741237640381,-0.0317249298095703,1.6348695755004885,-0.6108647584915161,-0.9621120095252992,2.323729515075684
1772903234920390100,2.56639013671875,4.866791725158691,-0.2663452625274658,2.5120859146118164,-0.8759800791740417,-1.1026109457015991,2.568686485290528
1772903234939376400,2.58537646484375,4.304049015045166,-1.0566622018814087,2.5458993911743164,-1.2889246940612793,-1.137430191040039,2.5827362537384038
1772903234958362600,2.604362548828125,4.422450065612793,-2.1846718788146973,1.778606414794922,-1.6084070205688477,-1.0934479236602783,2.4856088161468506
1772903234977348900,2.623348876953125,5.063596725463867,-3.217264175415039,0.3773174285888672,-1.6829324960708618,-0.9358448386192322,2.430630922317505
1772903234996335400,2.64233544921875,5.506626605987549,-3.650068283081055,-0.9349861145019532,-1.472795009613037,-0.7440332770347595,2.42574405670166
1772903235015321600,2.661321533203125,5.626972675323486,-3.650732517242432,-0.9980459213256836,-1.26021409034729,-0.6200277805328369,2.420246362686157
1772903235034307800,2.680307861328125,5.526021480560303,-3.6788642406463614,-0.2255992889404297,-1.2064579725265503,-0.4868592321872711,2.4049746990203857
1772903235053294000,2.699294189453125,5.424551963806152,-3.972790956497192,0.4238386154174804,-1.258992314338684,-0.3072649836540222,2.394589900970459
1772903235072280600,2.718280517578125,5.35219669342041,-4.378756523132324,0.3743267059326172,-1.3029745817184448,-0.0830776095390319,2.406196355819702
1772903235091266800,2.737266845703125,5.227984428405762,-4.558873653411865,-0.2498273849487304,-1.2651009559631348,0.1618791669607162,2.4709479808807373
1772903235110253000,2.756253173828125,4.772049427032471,-4.614171028137207,-0.9799737930297852,-1.1612539291381836,0.3457494676113128,2.534477949142456
1772903235129239300,2.7752392578125,4.034241676330566,-4.481847286224365,-1.5495920181274414,-1.0470222234725952,0.4324922561645508,2.578460216522217
1772903235148225800,2.794225830078125,3.3933677673339844,-4.541738986968994,-1.6878995895385742,-0.916297197341919,0.3762927055358886,2.623053312301636
1772903235167212000,2.8132119140625,2.944523572921753,-5.014226913452148,-1.198556900024414,-0.7690787315368652,0.192422404885292,2.601673126220703
1772903235186198300,2.8321982421875,2.661560535430908,-5.047717094421387,-0.6306552886962891,-0.7055488228797913,0.2455676347017288,2.515541076660156
1772903235205184500,2.8511845703125,2.4910085201263428,-4.936727046966553,-0.6723518371582031,-0.6579013466835022,0.4239401519298553,2.4043638706207275
1772903235224170800,2.870170654296875,2.166224479675293,-4.791328430175781,-1.0927200317382812,-0.5687150955200195,0.536339282989502,2.296851634979248
1772903235243157200,2.8891572265625,1.9097639322280884,-4.79853630065918,-1.4060134887695312,-0.4221075773239136,0.5326740741729736,2.2033891677856445
1772903235262143500,2.9081435546875,1.67283296585083,-4.922536849975586,-1.264299392700195,-0.2492328286170959,0.5021308660507202,2.100764036178589
1772903235281129700,2.927129638671875,1.812683582305908,-4.903625011444092,-0.907456398010254,-0.1264490038156509,0.5235111117362976,2.06594467163086
1772903235300116000,2.946115966796875,1.8799196481704712,-4.744281768798828,-0.9153213500976562,-0.0280997790396213,0.5852084755897522,2.1215333938598637
1772903235319102500,2.9651025390625,1.4781302213668823,-4.531464576721191,-1.068744659423828,0.0671951249241828,0.6041452884674072,2.1972806453704834
1772903235338088700,2.984088623046875,0.669089674949646,-4.312919616699219,-1.2947149276733398,0.1722638607025146,0.5797106623649597,2.193615436553955
1772903235357075000,3.003074951171875,-0.1997712850570678,-4.149248123168945,-1.3054485321044922,0.2944368124008178,0.5473348498344421,2.0744967460632324
1772903235376061200,3.022061279296875,-0.7454638481140137,-4.121734619140625,-1.0898933410644531,0.389120876789093,0.5259546041488647,1.8918482065200808
1772903235395047400,3.04104736328125,-1.1711796522140503,-4.20784854888916,-0.9583845138549804,0.4324922561645508,0.555276095867157,1.6682716608047483
1772903235414034000,3.060033935546875,-1.6348989009857178,-4.402143478393555,-1.3430891036987305,0.4660898149013519,0.907134175300598,1.4868448972702026
1772903235433020200,3.079020263671875,-1.9685901403427124,-4.889247894287109,-2.038473129272461,0.6090322136878967,1.0983349084854126,1.4104868173599243
1772903235452006400,3.09800634765625,-2.671139478683472,-4.815593719482422,-2.9391040802001958,0.8442151546478271,0.8949168920516968,1.3481786251068115
1772903235470992600,3.11699267578125,-3.3262171745300293,-4.509651184082031,-3.564695358276367,1.2467750310897827,0.3903425931930542,1.1398736238479614
1772903235489979100,3.135979248046875,-3.5650434494018555,-4.424648761749268,-3.0488739013671875,1.796553373336792,0.1252272725105285,0.7800742983818054
1772903235508965400,3.15496533203125,-3.2339625358581543,-4.248666763305664,-1.1006650924682615,2.224769592285156,0.2553414702415466,0.3769035637378692
1772903235527951600,3.17395166015625,-2.7046656608581543,-3.8224868774414062,0.5692596435546875,2.4660611152648926,0.5442805290222168,0.0720820426940918
1772903235546937900,3.192937744140625,-1.5399787425994873,-2.754969358444214,1.813663482666016,2.509432554244995,0.6530144214630127,0.0604756139218807
1772903235565924000,3.211924072265625,-0.1997326612472534,-1.649033784866333,2.405380249023437,2.4373505115509038,0.38850998878479,0.4013381600379944
1772903235584910600,3.23091064453125,0.4900805950164795,-0.8641682863235474,2.612985610961914,2.357938051223755,-0.1099556609988212,0.9034690260887146
1772903235603896800,3.249896728515625,0.16297447681427,-0.2384142875671386,2.7418174743652344,2.27424955368042,-0.4795288443565368,1.3127484321594238
1772903235622883000,3.268883056640625,-0.466427206993103,0.4370781183242798,2.665776252746582,2.178954601287842,-0.583375871181488,1.505781650543213
1772903235641869300,3.287869384765625,-0.7982406616210938,1.17963445186615,2.585780143737793,2.1001532077789307,-0.5430588126182556,1.536324977874756
1772903235660855800,3.306855712890625,-0.8581850528717041,1.6304572820663452,2.6632566452026367,2.0525057315826416,-0.4581485986709595,1.4715732336044312
1772903235679842000,3.325842041015625,-0.6009649038314819,2.108388662338257,3.206772804260254,1.9578216075897217,-0.4679224193096161,1.4227041006088257
1772903235698828300,3.344828369140625,-0.2137074470520019,2.508386850357056,3.5385398864746094,1.813657522201538,-0.5748237371444702,1.4257583618164062
1772903235717814500,3.363814453125,0.0565959215164184,2.9568309783935547,3.848149299621582,1.617569923400879,-0.6609556674957275,1.431867003440857
1772903235736800800,3.38280078125,0.2357600927352905,3.4918222427368164,3.69766616821289,1.369558811187744,-0.6585122346878052,1.416595458984375
1772903235755787300,3.401787353515625,0.3319580554962158,3.9628984928131104,3.1181583404541016,1.1074978113174438,-0.5296197533607483,1.3646719455718994
1772903235774773500,3.4207734375,0.5333558320999146,4.084341049194336,2.5438623428344727,0.8503237962722778,-0.407446801662445,1.3304635286331177
1772903235793759700,3.439759765625,0.8661638498306274,3.954869747161865,1.8059768676757808,0.6420188546180725,-0.3714057803153991,1.3836086988449097
1772903235812746000,3.45874609375,0.9418418407440186,3.830986261367798,0.9943456649780272,0.5210676789283752,-0.481361448764801,1.492953538894653
1772903235831732200,3.477732177734375,0.7728023529052734,3.622178077697754,0.4650697708129883,0.4557051360607147,-0.648127555847168,1.5583161115646362
1772903235850718700,3.49671875,0.6581032276153564,3.442523241043091,0.2507877349853515,0.430048793554306,-0.7079922556877136,1.5387684106826782
1772903235869705000,3.515705078125,0.8249447345733643,3.4282894134521484,0.4360923767089844,0.3817904889583587,-0.6633991599082947,1.4776818752288818
1772903235888691200,3.534691162109375,1.0841790437698364,3.5264711380004883,0.7544126510620117,0.2693913578987121,-0.6035344004631042,1.423925757408142
1772903235907677400,3.553677490234375,1.2904130220413208,3.5838406085968018,1.1071643829345703,0.0800232887268066,-0.6071996092796326,1.3964369297027588
1772903235926663700,3.57266357421875,1.348713994026184,3.486584424972534,1.040973663330078,-0.1136208474636077,-0.6505709886550903,1.3530654907226562
1772903235945650200,3.591650146484375,1.4308550357818604,3.2214763164520264,0.8986110687255859,-0.2687804996967315,-0.6249146461486816,1.265711784362793
1772903235964636400,3.610636474609375,1.660766839981079,2.83957314491272,1.0318946838378906,-0.4386008977890014,-0.4929678738117218,1.1630865335464478
1772903235983622700,3.62962255859375,1.8546632528305051,2.0935816764831543,1.29168701171875,-0.5699368119239807,-0.3720166385173797,1.0494656562805176
1772903236002609000,3.64860888671875,2.241088628768921,1.0214955806732178,1.7735567092895508,-0.5693259835243225,-0.3164279460906982,0.9712749719619752
1772903236021595400,3.667595458984375,2.7891180515289307,0.2317807674407959,2.509829521179199,-0.5100721120834351,-0.3310887217521667,0.9828814268112184
1772903236040581600,3.68658154296875,3.5886802673339844,0.2848026752471924,3.12190055847168,-0.6267472505569458,-0.4080576598644256,1.1527018547058103
1772903236059567900,3.70556787109375,4.005781650543213,0.6957447528839111,3.1424951553344727,-1.0067051649093628,-0.4691441655158996,1.4062107801437378
1772903236078554000,3.72455419921875,3.6399364471435542,0.3777402639389038,2.198145866394043,-1.4404191970825195,-0.3817904889583587,1.6053526401519775
1772903236097540400,3.743540283203125,2.8645310401916504,-0.3141865730285644,0.3890800476074219,-1.666439175605774,-0.1893680840730667,1.6859867572784424
1772903236116526800,3.76252685546875,2.1477866172790527,-0.8602291345596313,-1.213397979736328,-1.5864158868789673,-0.0659733936190605,1.673769474029541
1772903236135513000,3.78151318359375,1.5480529069900513,-1.5268571376800537,-1.5096759796142578,-1.3194679021835327,-0.1252272725105285,1.5625921487808228
1772903236154499300,3.800499267578125,1.4208166599273682,-1.8564434051513672,-0.5210037231445312,-1.1099413633346558,-0.2302960157394409,1.4190388917922974
1772903236173485600,3.819485595703125,1.7842130661010742,-1.7261149883270264,0.7218694686889648,-1.0848958492279053,-0.2785543501377105,1.3084723949432373
1772903236192471800,3.838471923828125,1.9762495756149288,-1.7034016847610474,1.5322914123535156,-1.1869102716445925,-0.1997527778148651,1.194240689277649
1772903236211458300,3.857458251953125,1.7906041145324707,-1.8940683603286743,1.663482666015625,-1.2944225072860718,0.0238237269222736,1.0177006721496582
1772903236230444500,3.876444580078125,1.6277164220809937,-2.179243803024292,1.439483642578125,-1.3634501695632937,0.2803869247436523,0.832608699798584
1772903236249430800,3.8954306640625,1.600304126739502,-2.5505175590515137,0.9970922470092772,-1.3811652660369873,0.4508182108402252,0.7055488228797913
1772903236268417000,3.9144169921875,1.693373680114746,-2.98425817489624,0.6904153823852539,-1.3726131916046145,0.5540543794631958,0.6688969135284424
1772903236287403300,3.9334033203125,1.6362924575805664,-3.379236459732056,0.5107383728027344,-1.3811652660369873,0.62857985496521,0.6939423680305481
1772903236306389800,3.9523896484375,1.1369636058807373,-3.7412009239196777,0.1119976043701171,-1.3854413032531738,0.6994401812553406,0.6933315396308899
1772903236325376000,3.9713759765625,0.5171759128570557,-4.085988998413086,-0.5247154235839844,-1.3347395658493042,0.7599157691001892,0.6310232877731323
1772903236344362200,3.9903623046875,0.1286351680755615,-4.310793876647949,-1.2686023712158203,-1.194240689277649,0.7898481488227844,0.5485565662384033
1772903236363348500,4.009348388671875,-0.0630645751953125,-4.436424255371094,-1.6628355979919434,-1.0067051649093628,0.7568614482879639,0.4978547990322113
1772903236382334700,4.028334716796875,-0.5053384304046631,-4.440104007720947,-1.6254568099975586,-0.8503237962722778,0.7617483735084534,0.4178315103054046
1772903236401321000,4.047321044921875,-1.2107491493225098,-4.575088024139404,-1.59193754196167,-0.7159335017204285,0.8723149299621582,0.235793799161911
1772903236420307500,4.066307373046875,-1.6685434579849243,-4.565773010253906,-1.5850090980529783,-0.6023126840591431,0.9663881063461304,-0.0006108647794462
1772903236439293700,4.085293701171875,-1.7597870826721191,-4.526411056518555,-1.5972957611083984,-0.5112938284873962,0.9859357476234436,-0.2015853822231292
1772903236458280000,4.104280029296875,-1.555405616760254,-4.459558486938477,-1.525611400604248,-0.4367683231830597,0.9926552772521972,-0.3158170878887176
1772903236477266200,4.12326611328125,-1.6656923294067385,-4.326635360717773,-1.7642059326171875,-0.3323104381561279,1.0067051649093628,-0.3988946974277496
1772903236496252400,4.14225244140625,-2.171520709991455,-4.131442070007324,-2.0193495750427246,-0.1771507859230041,1.1264346837997437,-0.5406153202056885
1772903236515239000,4.161239013671875,-2.36745285987854,-3.926200389862061,-1.977345943450928,-0.0268780495971441,1.2131774425506592,-0.6860011219978333
1772903236534225200,4.18022509765625,-2.182091236114502,-3.60840916633606,-1.938772201538086,0.078190691769123,1.119104266166687,-0.7373138070106506
1772903236553211400,4.19921142578125,-1.929606914520264,-3.28560209274292,-1.9313039779663088,0.1857028901576995,0.7953459620475769,-0.6695078015327454
1772903236572197600,4.21819775390625,-1.5661592483520508,-3.265576124191284,-1.850769519805908,0.3371973633766174,0.3231474757194519,-0.5235111117362976
1772903236591184000,4.237183837890625,-1.6045784950256348,-3.6345043182373047,-1.2744836807250977,0.5564978122711182,-0.1233946830034256,-0.4294379353523254
1772903236610170400,4.25617041015625,-1.8744301795959477,-4.340651512145996,-0.1612510681152343,0.7660244107246399,-0.4428769648075104,-0.4447095692157745
1772903236629156600,4.275156494140625,-1.7307140827178955,-4.543328285217285,0.5921058654785156,0.8979712128639221,-0.5540543794631958,-0.5149590373039246
1772903236648142800,4.294142822265625,-1.2284064292907717,-3.647607326507568,0.3357524871826172,0.9492838382720948,-0.4581485986709595,-0.5277871489524841
1772903236667129000,4.313129150390625,-0.7084689140319824,-2.339951515197754,-0.2750930786132812,0.972496747970581,-0.430048793554306,-0.4471530318260193
1772903236686115300,4.332115234375,-0.6894488334655762,-1.839433193206787,-0.5684909820556641,1.0122029781341553,-0.5949822664260864,-0.3420842885971069
1772903236705101600,4.3511015625,-0.8221685886383057,-1.9425344467163088,-0.2817659378051758,1.0671807527542114,-0.8240565657615662,-0.2889390289783478
1772903236724088000,4.370088134765625,-0.6804792881011963,-2.3663253784179688,0.3495340347290039,1.1514800786972046,-0.9230166673660278,-0.2901607751846313
1772903236743074300,4.38907421875,-0.2249519824981689,-2.504890918731689,0.9449729919433594,1.2486076354980469,-0.934623122215271,-0.2944368124008178
1772903236762060500,4.408060546875,0.1105194091796875,-2.07790470123291,1.1204557418823242,1.303585410118103,-0.9016364216804504,-0.2907716333866119
1772903236781046800,4.427046875,0.3412470817565918,-1.3605531454086304,0.9219341278076172,1.3322961330413818,-0.8393282294273376,-0.2877173125743866
1772903236800033300,4.446033203125,0.6532933712005615,-0.7761149406433105,0.8218345642089844,1.3469568490982056,-0.8063415288925171,-0.2559523284435272
1772903236819019500,4.46501953125,1.1840262413024902,-0.3154910206794739,0.9463949203491212,1.3463460206985474,-0.8594867587089539,-0.1429423540830612
1772903236838005800,4.484005859375,1.6966884136199951,0.0316479206085205,1.2121782302856443,1.3347395658493042,-0.9498947262763976,0.0500909127295017
1772903236856992000,4.502991943359375,1.713714838027954,0.4200453758239746,1.3091039657592771,1.3255765438079834,-0.9547816514968872,0.1881463527679443
1772903236875978200,4.521978271484375,1.3975660800933838,0.9430484771728516,1.2731094360351562,1.3274091482162476,-0.8277217745780945,0.1985310465097427
1772903236894964700,4.54096484375,1.202923059463501,1.48612380027771,1.3416767120361328,1.3194679021835327,-0.6414080262184143,0.1160643100738525
1772903236913951000,4.559950927734375,1.2825539112091064,1.9958198070526123,1.5880393981933594,1.2431098222732544,-0.5082395076751709,0.0397062115371227
1772903236932937200,4.578937255859375,1.3793559074401855,2.4169280529022217,1.577810287475586,1.1490366458892822,-0.4703658819198608,-0.013439024798572
1772903236951923500,4.59792333984375,1.1889934539794922,2.7306783199310303,1.7259368896484375,1.0604612827301023,-0.4031707644462585,-0.1172860413789749
1772903236970909700,4.61690966796875,1.0413250923156738,2.9957072734832764,2.152606010437012,0.924849271774292,-0.2748891413211822,-0.2791652083396911
1772903236989896200,4.635896240234375,1.147447109222412,3.293713092803955,2.2198610305786133,0.8100066781044006,-0.1295033395290374,-0.4495964646339416
1772903237008882400,4.65488232421875,1.3883745670318604,3.6218338012695312,2.2603816986083984,0.7189878225326538,-0.0164933484047651,-0.5864301919937134
1772903237027868700,4.67386865234375,1.7400765419006348,4.060740470886231,2.511904716491699,0.5797106623649597,0.0818558782339096,-0.6524035930633545
1772903237046855000,4.69285498046875,1.7591004371643066,4.507037162780762,2.621633529663086,0.3659079968929291,0.1692095398902893,-0.6963858604431152
1772903237065841200,4.711841064453125,1.587482213973999,4.839808940887451,2.371901512145996,0.1380554437637329,0.2791652083396911,-0.7513636946678162
1772903237084827600,4.73082763671875,1.780429124832153,5.097105026245117,2.042111396789551,-0.0555886961519718,0.3915643095970154,-0.720820426940918
1772903237103814000,4.74981396484375,1.7772550582885742,5.142449378967285,1.6231184005737305,-0.2156352698802948,0.4141663312911987,-0.6163625717163086
1772903237122800000,4.768800048828125,1.4047372341156006,5.187992572784424,1.3574199676513672,-0.3518581092357635,0.3854556679725647,-0.5235111117362976
1772903237141786400,4.787786376953125,0.9716839790344238,5.2562761306762695,1.2705202102661133,-0.4831940531730652,0.4092794060707092,-0.4844157695770263
1772903237160772600,4.806772705078125,0.724083662033081,4.974401473999023,1.4277420043945312,-0.565049946308136,0.3915643095970154,-0.4691441655158996
1772903237179758800,4.8257587890625,0.8757798671722412,4.364256858825684,1.809762954711914,-0.4557051360607147,0.3023780584335327,-0.3970620930194855
1772903237198745300,4.844745361328125,1.3958919048309326,4.429477691650391,2.9852066040039062,-0.4532616734504699,0.1918115466833114,-0.2394589930772781
1772903237217731600,4.863731689453125,1.2352721691131592,5.161103248596191,4.041328430175781,-0.8460476994514465,0.1667660921812057,-0.1215620934963226
1772903237236717800,4.8827177734375,-0.1339538097381591,5.261655807495117,4.041900634765625,-1.508836030960083,0.3854556679725647,-0.2247982323169708
1772903237255704000,4.9017041015625,-1.511613368988037,4.41698169708252,2.1305294036865234,-2.0488405227661133,0.7843503952026367,-0.500298261642456
1772903237274690300,4.920690185546875,-1.837852478027344,3.318344116210937,-0.2619953155517578,-2.215606451034546,1.0323615074157717,-0.720820426940918
1772903237293676500,4.939676513671875,-0.9533346891403198,1.97773015499115,-1.2345561981201172,-1.956599831581116,1.0213658809661863,-0.6731730103492737
1772903237312663000,4.9586630859375,0.5400547981262207,0.508357048034668,0.2796220779418945,-1.5393792390823364,0.7226530313491821,-0.2675587832927704
1772903237331649300,4.977649169921875,1.5207850933074951,-0.2525918483734131,3.042448043823242,-1.3671153783798218,0.2913824915885925,0.3408625423908233
1772903237350635500,4.996635498046875,0.9213602542877196,-0.6453870534896851,5.35440731048584,-1.6377284526824951,-0.0855210721492767,0.7428115606307983
1772903237369621800,5.015621826171875,-0.9701356887817384,-0.873706579208374,5.671998977661133,-2.07510757446289,-0.1514944583177566,0.62857985496521
1772903237388608000,5.03460791015625,-2.5313262939453125,-1.3116343021392822,4.4351301193237305,-2.342055559158325,0.215024396777153,0.1111773923039436
1772903237407594200,5.05359423828125,-2.780820846557617,-1.9471102952957156,3.146347999572754,-2.3561055660247803,0.7367029190063477,-0.4288270771503448
1772903237426580700,5.072580810546875,-1.8758656978607176,-2.696300983428955,3.012181282043457,-2.288299560546875,0.9828814268112184,-0.6817250847816467
1772903237445567000,5.09156689453125,-1.2948393821716309,-3.478053569793701,3.2576398849487305,-2.29318642616272,1.0488548278808594,-0.7134900689125061
1772903237464553200,5.11055322265625,-1.5441348552703855,-4.026730537414551,2.9290828704833984,-2.3206753730773926,1.103221774101257,-0.7476984858512878
1772903237483539500,5.12953955078125,-2.092890501022339,-4.419902324676514,2.060746192932129,-2.276693105697632,1.1429280042648315,-0.8436042666435242
1772903237502525700,5.148525634765625,-2.212754726409912,-4.699628829956055,1.1528940200805664,-2.1416919231414795,1.1905754804611206,-0.9419534802436828
1772903237521512000,5.167511962890625,-2.164254903793335,-4.832200527191162,0.5466508865356445,-1.940106511116028,1.29197895526886,-0.9944878816604614
1772903237540498400,5.18649853515625,-2.147290706634521,-4.997751235961914,0.3420295715332031,-1.7360776662826538,1.3292417526245115,-0.9963204264640808
1772903237559484700,5.205484619140625,-2.130763053894043,-5.052370071411133,0.27545166015625,-1.556483507156372,1.2925899028778076,-0.9309579133987428
1772903237578471000,5.224470947265625,-2.1588540077209477,-5.018007755279541,0.2464246749877929,-1.3988803625106812,1.2168426513671875,-0.8265000581741333
1772903237597457200,5.24345703125,-2.4460010528564453,-5.146692276000977,0.4748611450195312,-1.3371829986572266,0.9773836731910706,-0.7134900689125061
1772903237616443400,5.262443359375,-2.7935423851013184,-5.103714466094971,0.2409019470214843,-1.331685185432434,0.6175842881202698,-0.638353705406189
1772903237635429600,5.2814296875,-3.33576774597168,-4.985723495483398,-0.2301712036132812,-1.2907572984695437,0.3628536760807037,-0.6963858604431152
1772903237654416000,5.300415771484375,-3.815171003341675,-5.129961967468262,-0.4812307357788086,-1.1966841220855713,0.3042106628417969,-0.9040798544883728
1772903237673402400,5.31940234375,-3.7663536071777344,-5.194493293762207,-0.2563061714172363,-1.109330415725708,0.3494146466255188,-1.1441497802734375
1772903237692388600,5.338388671875,-2.988445281982422,-5.096707344055176,0.0587782859802246,-1.0458004474639893,0.2535088956356048,-1.2284491062164309
1772903237711374800,5.357374755859375,-2.187734365463257,-4.903518199920654,0.1190090179443359,-0.991433560848236,-0.0684168562293052,-1.137430191040039
1772903237730361000,5.376361083984375,-1.766256332397461,-4.5754876136779785,-0.1521186828613281,-0.9107993841171264,-0.4495964646339416,-0.9859357476234436
1772903237749347300,5.395347412109375,-1.9696049690246584,-4.367653846740723,-0.460416316986084,-0.7550288438796997,-0.6896663308143616,-0.924238383769989
1772903237768333600,5.41433349609375,-2.279405117034912,-4.354822158813477,-0.3203163146972656,-0.6017017960548401,-0.739757239818573,-0.9663881063461304
1772903237787320000,5.433320068359375,-2.3652899265289307,-4.661734580993652,0.4984240531921386,-0.5045742988586426,-0.8930842876434326,-1.0787872076034546
1772903237806306300,5.452306396484375,-2.6812453269958496,-5.460310935974121,1.334256649017334,-0.448985606431961,-1.0592395067214966,-1.3151918649673462
1772903237825292500,5.47129248046875,-2.777378559112549,-5.686678886413574,1.4079198837280271,-0.4221075773239136,-1.0653481483459473,-1.654221773147583
1772903237844278800,5.49027880859375,-2.0499963760375977,-5.129168510437012,0.6327576637268066,-0.3500255048274994,-1.008537769317627,-1.9278892278671265
1772903237863265000,5.50926513671875,-1.112696647644043,-4.712034225463867,0.0163002014160156,-0.1960875988006591,-1.0286962985992432,-2.042120933532715
1772903237882251300,5.528251220703125,-0.4387860298156738,-4.489815711975098,-0.0373210906982421,-0.0873536616563797,-1.1911863088607788,-2.0274600982666016
1772903237901237800,5.54723779296875,0.151766300201416,-4.255860805511475,0.0139966011047363,-0.0287106446921825,-1.4801253080368042,-1.9303326606750488
1772903237920224000,5.56622412109375,0.7928318977355957,-4.299569606781006,-0.0711493492126464,0.0684168562293052,-1.7611231803894043,-1.820376992225647
1772903237939210200,5.585210205078125,0.8816885948181152,-4.61073112487793,0.2741947174072265,0.1997527778148651,-1.8570289611816408,-1.8551963567733765
1772903237958196500,5.604196533203125,0.7793769836425781,-4.908323764801025,0.4969415664672851,0.3457494676113128,-1.6530001163482666,-2.0824379920959477
1772903237977182700,5.6231826171875,1.2567434310913086,-4.381736755371094,0.1129741668701171,0.4563159942626953,-1.3823870420455933,-2.3292274475097656
1772903237996169200,5.642169189453125,2.213542938232422,-3.730825901031494,-0.4488945007324219,0.5290089249610901,-1.3585633039474487,-2.426965713500977
1772903238015155500,5.661155517578125,3.207772254943848,-3.152472257614136,-0.6895475387573242,0.5766563415527344,-1.5045599937438965,-2.363435745239258
1772903238034141700,5.6801416015625,3.469757556915283,-2.721669912338257,-0.4763164520263672,0.6017017960548401,-1.5375466346740725,-2.345720767974853
1772903238053128000,5.6991279296875,3.1708221435546875,-2.4832682609558105,-0.1506977081298828,0.6371319890022278,-1.3292417526245115,-2.5387539863586426
1772903238072114200,5.7181142578125,3.2423014640808105,-2.2326555252075195,0.0381555557250976,0.6585122346878052,-1.0372483730316162,-2.8539602756500244
1772903238091100400,5.737100341796875,3.989819288253784,-1.8897926807403564,0.3216896057128906,0.6194168925285339,-0.8081740736961365,-3.1172430515289307
1772903238110086700,5.756086669921875,4.664454460144043,-1.492683172225952,0.5948524475097656,0.5296197533607483,-0.5784889459609985,-3.2901177406311035
1772903238129073200,5.7750732421875,5.344902515411377,-0.9578261375427246,0.3246259689331054,0.4856374859809875,-0.3524689674377441,-3.3316564559936523
1772903238148059400,5.794059326171875,5.856700897216797,-0.3801660537719726,0.1031942367553711,0.4856374859809875,-0.2687804996967315,-3.210705280303955
1772903238167045600,5.813045654296875,6.233163833618164,0.273503303527832,0.3516950607299804,0.4544833898544311,-0.2999345958232879,-2.9626941680908203
1772903238186031900,5.832031982421875,5.871246337890625,0.7890627384185791,0.5957832336425781,0.4037816226482391,-0.2675587832927704,-2.7537784576416016
1772903238205018000,5.85101806640625,5.20756196975708,1.337792158126831,0.5775480270385742,0.3597993552684784,-0.1496618688106537,-2.649320602416992
1772903238224004400,5.87000439453125,4.757827281951904,2.04643988609314,0.3307247161865234,0.3500255048274994,0.0293215103447437,-2.5998404026031494
1772903238242990600,5.888990478515625,4.496891021728516,2.5767531394958496,0.3881101608276367,0.3536907136440277,0.233961209654808,-2.556469202041626
1772903238261977000,5.90797705078125,4.215735912322998,3.0384671688079834,0.7252922058105469,0.3084867000579834,0.3811796307563782,-2.47644591331482
1772903238280963300,5.92696337890625,3.8777244091033936,3.499148368835449,1.0968942642211914,0.2089157551527023,0.4593703150749206,-2.3548836708068848
1772903238299949600,5.945949462890625,3.290426254272461,3.939168691635132,1.5522937774658203,0.0561995580792427,0.5491674542427063,-2.256534576416016
1772903238318935800,5.964935791015625,2.534817695617676,4.137187004089356,2.01284122467041,-0.1826485693454742,0.6701186895370483,-2.240652084350586
1772903238337922000,5.983922119140625,1.849637746810913,4.364241600036621,1.810799598693848,-0.4294379353523254,0.8142827749252319,-2.268141031265259
1772903238356908300,6.002908203125,1.6243517398834229,4.600802421569824,1.1192398071289062,-0.5528326034545898,0.8833104968070984,-2.2455389499664307
1772903238375894500,6.02189453125,1.7313530445098877,4.4801225662231445,0.979644775390625,-0.5412262082099915,0.8020654320716858,-2.123976945877075
1772903238394880800,6.040880859375,2.102526426315308,4.417338371276856,1.5855026245117188,-0.5351175665855408,0.6499601006507874,-1.896124243736267
1772903238413867300,6.0598671875,2.2250077724456787,4.591073036193848,2.4287147521972656,-0.6126973628997803,0.5894845128059387,-1.6432262659072876
1772903238432853500,6.078853515625,2.001118421554565,4.795321464538574,3.1437158584594727,-0.8710931539535522,0.6939423680305481,-1.425147533416748
1772903238451839700,6.09783984375,1.4764986038208008,4.64962100982666,2.985189437866211,-1.2284491062164309,0.822834849357605,-1.2760965824127195
1772903238470826000,6.116825927734375,0.9156997203826904,4.220962047576904,1.7798919677734375,-1.40559983253479,0.9034690260887146,-1.1685843467712402
1772903238489812200,6.135812255859375,0.7470521926879883,3.7223246097564697,0.9920415878295898,-1.4062107801437378,0.9474512934684752,-1.064737319946289
1772903238508798500,6.154798583984375,0.9258887767791748,3.306030750274658,1.0687589645385742,-1.369558811187744,1.0054833889007568,-0.9425643682479858
1772903238527784700,6.17378466796875,0.9742281436920166,2.981905937194824,1.7832155227661133,-1.3817760944366455,1.1588104963302612,-0.8503237962722778
1772903238546771000,6.19277099609375,0.9031167030334472,2.3995184898376465,2.6835899353027344,-1.5063925981521606,1.3897173404693604,-0.7977893948554993
1772903238565757400,6.21175732421875,0.7529399394989014,1.621631383895874,3.1143836975097656,-1.6994258165359497,1.5430444478988647,-0.778241753578186
1772903238584743700,6.23074365234375,0.8144717216491699,0.7365914583206177,2.995798110961914,-1.8356486558914185,1.6126830577850342,-0.758083164691925
1772903238603730000,6.24972998046875,1.0425128936767578,-0.0780673623085022,2.742889404296875,-1.8765766620635984,1.6255111694335938,-0.7043271064758301
1772903238622716200,6.268716064453125,1.3137273788452148,-0.5257581472396851,2.512659072875977,-1.8930699825286863,1.619402527809143,-0.5974257588386536
1772903238641702400,6.287702392578125,1.2958641052246094,-0.687522292137146,2.34231948852539,-1.954767346382141,1.7024801969528198,-0.471587598323822
1772903238660688600,6.306688720703125,0.8321738243103027,-1.130373477935791,2.0065126419067383,-2.059225082397461,1.8142683506011963,-0.3988946974277496
1772903238679675100,6.325675048828125,0.2165231704711914,-1.6697863340377808,1.258920669555664,-2.0854923725128174,1.916893720626831,-0.3720166385173797
1772903238698661400,6.344661376953125,-0.1192917823791503,-2.023943424224853,0.341313362121582,-1.9651520252227783,1.960875988006592,-0.3035998046398163
1772903238717647600,6.363647705078125,-0.3197212219238281,-2.2185845375061035,-0.0871844291687011,-1.8044945001602173,1.8649702072143557,-0.1814268380403518
1772903238736633900,6.3826337890625,-0.6739225387573242,-2.3630852699279785,-0.1596970558166504,-1.667050004005432,1.684765100479126,-0.088575392961502
1772903238755620000,6.4016201171875,-1.0770034790039062,-2.5447216033935547,0.0312285423278808,-1.561981201171875,1.5179989337921145,-0.0665842592716217
1772903238774606300,6.4206064453125,-1.250871658325195,-2.7535219192504883,0.1936116218566894,-1.5137228965759275,1.3964369297027588,-0.0836884751915931
1772903238793592600,6.439592529296875,-1.3051295280456543,-2.825120210647583,0.1490378379821777,-1.489288330078125,1.303585410118103,-0.1001818254590034
1772903238812578800,6.458578857421875,-1.432695388793945,-3.0690102577209477,-0.134188175201416,-1.4257583618164062,1.2541054487228394,-0.1258381456136703
1772903238831565000,6.47756494140625,-1.5143804550170898,-3.072535514831543,-0.5084104537963867,-1.2956441640853882,1.2070688009262085,-0.1514944583177566
1772903238850551300,6.49655126953125,-1.660447597503662,-3.0495567321777344,-0.637702465057373,-1.1520910263061523,1.135597586631775,-0.1722638607025146
1772903238869537800,6.515537841796875,-1.8507752418518064,-2.974818706512451,-0.5878543853759766,-1.0586286783218384,1.0396918058395386,-0.1966984570026397
1772903238888524000,6.53452392578125,-2.0337719917297363,-2.9812703132629395,-0.8139042854309082,-0.951727330684662,0.9395100474357604,-0.2186895906925201
1772903238907510300,6.55351025390625,-2.124711036682129,-2.8955812454223637,-1.086223602294922,-0.822834849357605,0.7715222239494324,-0.2144135385751724
1772903238926496500,6.57249658203125,-2.1262731552124023,-2.831822633743286,-1.3674187660217283,-0.6560688018798828,0.5137372612953186,-0.1661552190780639
1772903238945482800,6.591482666015625,-2.0483102798461914,-2.8024027347564697,-1.3802838325500488,-0.4819723069667816,0.2119700759649276,-0.0751363709568977
1772903238964469000,6.610468994140625,-2.025750637054444,-2.719179153442383,-1.2186317443847656,-0.3549124300479889,-0.0128281600773334,0.0128281600773334
1772903238983455200,6.629455322265625,-2.353723526000977,-2.5329930782318115,-1.1869783401489258,-0.2412915825843811,-0.1612683087587356,0.0201585385948419
1772903239002441500,6.64844140625,-2.653250217437744,-2.43022894859314,-0.8566145896911621,-0.1417206227779388,-0.3433060050010681,-0.0659733936190605
1772903239021428000,6.667427978515625,-2.706735134124756,-2.677770137786865,-0.1581549644470214,-0.0910188555717468,-0.5882627964019775,-0.2333503514528274
1772903239040414200,6.686414306640625,-2.3596715927124023,-2.7043943405151367,0.2039093971252441,-0.0916297137737274,-0.685390293598175,-0.4123337268829345
1772903239059400400,6.705400390625,-1.8492794036865237,-2.22407341003418,-0.1829500198364257,-0.0500909127295017,-0.5998691916465759,-0.5381718873977661
1772903239078386700,6.72438671875,-1.471428394317627,-1.6582504510879517,-0.2109689712524414,-0.0097738364711403,-0.5094612240791321,-0.6145299673080444
1772903239097373000,6.743373046875,-1.673161506652832,-1.984248399734497,0.2066588401794433,-0.0274889152497053,-0.500298261642456,-0.7415898442268372
1772903239116359200,6.762359130859375,-1.826014518737793,-2.218048572540283,0.0569324493408203,-0.0097738364711403,-0.6524035930633545,-0.8943060636520386
1772903239135345400,6.781345458984375,-1.2996907234191897,-1.972694039344788,-0.4994759559631347,0.119729496538639,-0.9865466356277466,-0.971885859966278
1772903239154331600,6.80033154296875,-0.4204707145690918,-1.644351363182068,-0.6034970283508301,0.2657261788845062,-1.4257583618164062,-0.9272927641868592
1772903239173318000,6.81931787109375,0.6768875122070312,-1.4705578088760376,-0.0428552627563476,0.3207040131092071,-1.6426154375076294,-0.721431314945221
1772903239192304000,6.83830419921875,1.0606231689453125,-1.4824552536010742,0.4041223526000976,0.3488037884235382,-1.5039490461349487,-0.4526508152484894
1772903239211290400,6.857290283203125,0.6314258575439453,-1.7218230962753296,0.3842401504516601,0.4001164436340332,-1.2461642026901243,-0.3145953714847564
1772903239230276900,6.87627685546875,-0.3160147666931152,-1.8799340724945068,0.089367389678955,0.481361448764801,-1.0610721111297607,-0.3897317349910736
1772903239249263000,6.89526318359375,-1.0106472969055176,-1.639850616455078,-0.2563295364379883,0.5937605500221252,-1.0384701490402222,-0.6029235124588013
1772903239268249300,6.914249267578125,-1.3800115585327148,-1.0399218797683716,-0.3898038864135742,0.7330377101898193,-1.0965023040771484,-0.8619301915168762
1772903239287235600,6.933235595703125,-1.1140666007995603,-0.3940343558788299,0.0046596527099609,0.7953459620475769,-1.148425817489624,-1.099556565284729
1772903239306221800,6.952221923828125,-0.3783063888549804,0.1930363327264785,0.8081588745117188,0.7043271064758301,-1.0604612827301023,-1.237612009048462
1772903239325208000,6.9712080078125,0.3239264488220215,0.516283392906189,1.118275165557861,0.5919279456138611,-0.860708475112915,-1.321911334991455
1772903239344194300,6.9901943359375,1.2466444969177246,0.9937777519226074,1.0747580528259275,0.5473348498344421,-0.6579013466835022,-1.2913681268692017
1772903239363180500,7.0091806640625,2.003523826599121,1.6930322647094729,1.0679073333740234,0.5009090900421143,-0.4642572402954101,-1.1673625707626345
1772903239382166800,7.028166748046875,2.362870216369629,2.4246485233306885,1.1980047225952148,0.4007273018360138,-0.3506363928318023,-1.0690133571624756
1772903239401153300,7.0471533203125,2.5585107803344727,2.9972853660583496,1.0280065536499023,0.3017672002315521,-0.2816086709499359,-1.0409135818481443
1772903239420139500,7.066139404296875,2.4733424186706543,3.295548439025879,0.6947698593139648,0.2522871494293213,-0.2009745091199875,-1.0574069023132324
1772903239439125800,7.085125732421875,2.2933945655822754,3.4178640842437744,0.4381227493286133,0.2247982323169708,-0.0983492285013198,-1.1184934377670288
1772903239458112000,7.104112060546875,2.4044322967529297,3.566610336303711,0.3079071044921875,0.2284634262323379,-0.0317649692296981,-1.1447606086730957
1772903239477098200,7.12309814453125,2.686619281768799,3.713815212249756,0.3219690322875976,0.2278525680303573,0.0427605360746383,-1.0574069023132324
1772903239496084500,7.14208447265625,2.798379898071289,3.7116947174072266,0.3986501693725586,0.1887572109699249,0.0873536616563797,-0.861319363117218
1772903239515070700,7.16107080078125,2.65018367767334,3.757047176361084,0.390660285949707,0.1270598769187927,0.0507017783820629,-0.6395754218101501
1772903239534057000,7.180056884765625,2.4680843353271484,3.592236042022705,0.3180971145629883,0.0800232887268066,0.0592538826167583,-0.4422661066055298
1772903239553043200,7.199043212890625,2.2386536598205566,3.4763288497924805,0.3026790618896484,0.0464257225394248,0.1539379209280014,-0.2724456787109375
1772903239572029400,7.218029541015625,1.8498449325561523,3.3297364711761475,0.3221426010131836,-0.0012217295588925,0.2791652083396911,-0.1649334877729416
1772903239591015700,7.237015625,1.3813247680664062,3.173830032348633,0.1618576049804687,-0.0299323741346597,0.3897317349910736,-0.1026252806186676
1772903239610002000,7.256001953125,1.0758328437805176,2.918121337890625,0.20556640625,-0.0549778304994106,0.3665188550949096,-0.0397062115371227
1772903239628988200,7.27498828125,0.708765983581543,2.1486988067626958,0.5681514739990234,-0.0598647482693195,-0.0018325943965464,-0.0745255053043365
1772903239647974400,7.293974365234375,1.2437868118286133,1.8652734756469729,0.5630731582641602,0.0146607551723718,-0.1936441361904144,-0.1087339296936988
1772903239666960600,7.312960693359375,2.089904308319092,2.1663365364074707,0.8113517761230469,0.0079412423074245,0.0879645273089408,-0.0122172953560948
1772903239685947000,7.33194677734375,2.5463900566101074,2.448747396469116,0.9921374320983888,-0.1331685185432434,0.4337140023708343,0.1569922417402267
1772903239704933400,7.350933349609375,2.208312511444092,2.0105743408203125,1.247422218322754,-0.3090975880622864,0.6633991599082947,0.3549124300479889
1772903239723919600,7.369919677734375,1.3223557472229004,1.1673402786254885,1.0805096626281738,-0.448985606431961,0.7195987105369568,0.4893026947975158
1772903239742905900,7.38890576171875,0.8171062469482422,0.6388211250305176,0.5809407234191895,-0.526565432548523,0.4880809485912323,0.5210676789283752
1772903239761892000,7.40789208984375,0.5656604766845703,0.5048338174819946,0.3321328163146972,-0.5491674542427063,0.2327394783496856,0.4612029194831848
1772903239780878300,7.42687841796875,0.572932243347168,0.3469612598419189,0.650670051574707,-0.5974257588386536,0.1105665266513824,0.2822195291519165
1772903239799864600,7.445864501953125,0.8482146263122559,-0.0984452962875366,0.7980809211730957,-0.6322450637817383,0.2351829409599304,0.0519235059618949
1772903239818850800,7.464850830078125,1.569687843322754,-0.4040735960006714,0.5548052787780762,-0.6017017960548401,0.5540543794631958,-0.0696385875344276
1772903239837837000,7.483837158203125,2.448458194732666,-0.4639157056808471,0.1334095001220703,-0.5534434914588928,0.8545998334884644,0.0232128612697124
1772903239856823300,7.5028232421875,2.7898736000061035,-0.56252521276474,-0.0499024391174316,-0.4984656572341919,1.0519092082977295,0.328645259141922
1772903239875809500,7.5218095703125,2.3263893127441406,-0.696198046207428,-0.1699666976928711,-0.4654789566993713,1.0610721111297607,0.6890554428100586
1772903239894795800,7.540795654296875,1.32997465133667,-0.6919620037078857,-0.2660551071166992,-0.4618137776851654,0.9676098227500916,0.9450078010559082
1772903239913782000,7.559781982421875,0.3318324089050293,-0.6414843797683716,-0.5994582176208496,-0.4166097939014435,0.8118392825126648,1.036637544631958
1772903239932768300,7.578768310546875,-0.3241190910339355,-0.7251463532447815,-0.4511904716491699,-0.3897317349910736,0.676227331161499,1.023198485374451
1772903239951754500,7.59775439453125,-0.8238763809204102,-0.8921306133270264,-0.2398056983947754,-0.3927860558032989,0.5693259835243225,0.9046907424926758
1772903239970740700,7.61674072265625,-0.9410090446472168,-1.065851092338562,-0.2356395721435547,-0.3762927055358886,0.5082395076751709,0.7544180154800415
1772903239989727200,7.635727294921875,-0.6736626625061035,-1.2805781364440918,-0.1329813003540039,-0.3714057803153991,0.4679224193096161,0.6695078015327454
1772903240008713500,7.65471337890625,-0.5459318161010742,-1.369161605834961,0.1128807067871093,-0.4147771894931793,0.4532616734504699,0.6126973628997803
1772903240027699700,7.67369970703125,-0.6873703002929688,-1.4665906429290771,0.2216634750366211,-0.4581485986709595,0.4838049113750458,0.5229002237319946
1772903240046686000,7.69268603515625,-0.8053274154663086,-1.4894719123840332,-0.0455074310302734,-0.4605920314788818,0.5088503360748291,0.4245510101318359
1772903240065672200,7.711672119140625,-0.8152408599853516,-1.5625735521316528,-0.1528544425964355,-0.4453204274177551,0.4984656572341919,0.3408625423908233
1772903240084658400,7.730658447265625,-0.9161701202392578,-1.6179277896881104,-0.2593073844909668,-0.4269944727420807,0.4288270771503448,0.2712239623069763
1772903240103644700,7.749644775390625,-1.0506792068481443,-1.5938904285430908,-0.421605110168457,-0.4190532267093658,0.2657261788845062,0.1954767256975174
1772903240122631000,7.768630859375,-1.2320928573608398,-1.5592416524887085,-0.6263132095336914,-0.4141663312911987,0.0555886961519718,0.1007926911115646
1772903240141617200,7.7876171875,-1.2007756233215332,-1.6095335483551023,-0.7887825965881348,-0.3634645342826843,-0.0042760535143315,0.0128281600773334
1772903240160603400,7.806603271484375,-0.973928928375244,-1.6887943744659424,-0.7510457038879395,-0.2828303873538971,0.1502727419137954,-0.0152716198936104
1772903240179589600,7.825589599609375,-0.9767446517944336,-1.7233712673187256,-0.6298837661743164,-0.2278525680303573,0.3720166385173797,-0.0207694023847579
1772903240198575900,7.844575927734375,-1.3300409317016602,-1.517301321029663,-0.8570175170898438,-0.1582139730453491,0.5241219997406006,-0.057421289384365
1772903240217562000,7.86356201171875,-1.601191520690918,-1.1861845254898071,-1.1342229843139648,-0.0592538826167583,0.4685332775115967,-0.1087339296936988
1772903240236548400,7.88254833984375,-1.4910802841186523,-0.9259549975395204,-0.950861930847168,-0.0097738364711403,0.2394589930772781,-0.152716189622879
1772903240255534600,7.90153466796875,-1.2712416648864746,-0.8126851320266724,-0.6458163261413574,-0.0122172953560948,0.0085521070286631,-0.1905898153781891
1772903240274520800,7.920520751953125,-0.9680781364440918,-0.7638508677482605,-0.4447283744812011,-0.0219911318272352,-0.1771507859230041,-0.2162461280822754
1772903240293507000,7.939507080078125,-0.5517826080322266,-0.8820486068725586,-0.0808877944946289,-0.0250454563647508,-0.2748891413211822,-0.2101374864578247
1772903240312493300,7.958493408203125,-0.234142780303955,-1.0610235929489136,0.7549033164978027,-0.0598647482693195,-0.2834412455558777,-0.185092031955719
1772903240331479600,7.9774794921875,-0.6362509727478027,-1.5657082796096802,1.49725341796875,-0.1123991161584854,-0.2730565667152405,-0.2345720827579498
1772903240350465800,7.9964658203125,-0.6353011131286621,-1.396493911743164,1.1972002983093262,-0.1606574356555938,-0.2260199636220932,-0.3243691921234131
1772903240369452000,8.0154521484375,-0.3568711280822754,-1.1716225147247314,0.6002359390258789,-0.1655443608760833,-0.2987128794193268,-0.4013381600379944
1772903240388438300,8.034438232421875,-0.1542549133300781,-1.2228891849517822,0.1023006439208984,-0.1203403621912002,-0.3585776388645172,-0.4184423685073852
1772903240407424500,8.053424560546874,-0.1956419944763183,-1.5980010032653809,0.1022496223449707,-0.0354301556944847,-0.3579667508602142,-0.3775144219398498
1772903240426410800,8.07241064453125,-0.3422055244445801,-1.5276340246200562,-0.0996203422546386,0.1050687432289123,-0.3353647589683532,-0.2932150959968567
1772903240445397000,8.09139697265625,-0.4719171524047851,-1.1844182014465332,-0.2110819816589355,0.2260199636220932,-0.3622428178787231,-0.1582139730453491
1772903240464383500,8.110383544921875,-0.8914575576782227,-0.9306784272193908,-0.1351933479309082,0.2437350451946258,-0.4880809485912323,-0.0232128612697124
1772903240483369700,8.12936962890625,-1.4458928108215332,-1.0467281341552734,0.1905817985534668,0.1728747338056564,-0.6542361974716187,0.0152716198936104
1772903240502356000,8.14835595703125,-2.0984110832214355,-1.5092248916625977,0.1617145538330078,0.1386663019657135,-0.7623592615127563,-0.0671951249241828
1772903240521342200,8.16734228515625,-2.355672836303711,-1.9769071340560915,0.0323677062988281,0.1826485693454742,-0.8668171167373657,-0.2345720827579498
1772903240540328400,8.186328369140625,-1.8995919227600095,-2.180457592010498,-0.2919702529907226,0.3200931549072265,-0.9334014058113098,-0.3714057803153991
1772903240559314700,8.205314697265624,-1.1223621368408203,-2.0995352268218994,-0.3175597190856933,0.4770853817462921,-0.8772017955780029,-0.4050033390522003
1772903240578301000,8.224301025390625,-1.0411791801452637,-1.831884860992432,-0.2724175453186035,0.6359102129936218,-0.7159335017204285,-0.4141663312911987
1772903240597287200,8.243287109375,-1.0114717483520508,-1.3550277948379517,-0.2786397933959961,0.7654135823249817,-0.7525854110717773,-0.4392117857933044
1772903240616273400,8.2622734375,-0.801854133605957,-1.059107542037964,-0.3927803039550781,0.8845322132110596,-0.981048822402954,-0.4544833898544311
1772903240635259600,8.281259765625,-0.2677822113037109,-0.8264936208724976,-0.284177303314209,0.9944878816604614,-1.2528836727142334,-0.4465421438217163
1772903240654246000,8.300245849609375,0.1874146461486816,-0.6298248767852783,0.2713932991027832,1.035415768623352,-1.2895355224609375,-0.4337140023708343
1772903240673232100,8.319232177734374,0.529083251953125,-0.4680866599082947,0.6118464469909668,1.0494656562805176,-1.09283709526062,-0.4141663312911987
1772903240692218400,8.33821826171875,0.83294677734375,-0.2916325330734253,0.6465921401977539,1.053741693496704,-0.8967494964599609,-0.379347026348114
1772903240711204600,8.35720458984375,0.7543187141418457,-0.0700525045394897,0.4727201461791992,1.0567960739135742,-0.7000510096549988,-0.3390299379825592
1772903240730190800,8.37619091796875,0.5920066833496094,0.2730557918548584,0.2704982757568359,1.0739002227783203,-0.6493492722511292,-0.3268126547336578
1772903240749177000,8.395177001953124,0.5622200965881348,0.6940242052078247,0.1980276107788086,1.083674073219299,-0.7250964641571045,-0.3555232882499695
1772903240768163300,8.414163330078125,0.981520652770996,1.1580092906951904,0.224705696105957,1.1160500049591064,-0.7959567904472351,-0.3726275265216827
1772903242942087200,10.588087158203123,-0.0941967964172363,-0.7681633234024048,-0.0846657752990722,0.1441640853881836,0.1631008982658386,-0.0109955659136176
1772903242961073400,10.607073486328124,-0.0931916236877441,-0.6719902753829956,-0.2102799415588379,0.1685986816883087,0.1624900251626968,0.0244345907121896
1772903242980059400,10.626059326171877,-0.1089763641357421,-0.5020207166671753,-0.3169097900390625,0.1973093301057815,0.0946840420365333,0.0507017783820629
1772903242999045600,10.645045654296876,-0.1796960830688476,-0.4329588413238525,-0.1935009956359863,0.2223547846078872,0.0507017783820629,0.0561995580792427
1772903243018032000,10.6640322265625,-0.1484293937683105,-0.3460499048233032,0.0543370246887207,0.2217439115047454,0.0323758348822593,0.0458148568868637
1772903243037018400,10.683018310546874,-0.2355546951293945,-0.2497068643569946,0.1292715072631836,0.2229656428098678,0.0879645273089408,0.0213802680373191
1772903243056004400,10.70200439453125,-0.1865582466125488,-0.1643075942993164,0.22662353515625,0.2138026654720306,0.1276707351207733,0.0048869182355701
1772903243074990600,10.720990478515626,-0.1445260047912597,-0.0910036563873291,0.1891193389892578,0.2009745091199875,0.1276707351207733,0.0012217295588925
1772903243093976800,10.739976806640623,-0.0739412307739257,-0.0487034320831298,0.1139984130859375,0.1966984570026397,0.0891862586140632,0.0171042140573263
1772903243112963000,10.758963134765626,-0.1180129051208496,-0.015553593635559,0.1133265495300293,0.1832594275474548,0.0458148568868637,0.0274889152497053
1772903243131949300,10.77794921875,-0.171574592590332,-0.0587596893310546,0.1361584663391113,0.1673769503831863,0.0299323741346597,0.0097738364711403
1772903243150935600,10.796935546875,-0.1332430839538574,-0.0761400461196899,0.1115980148315429,0.1728747338056564,0.0623082071542739,-0.0238237269222736
1772903243169921800,10.815921875,-0.1450138092041015,-0.0813629627227783,0.1031651496887207,0.192422404885292,0.1441640853881836,-0.0635299384593963
1772903243188908000,10.834907958984376,-0.0272216796875,-0.0882784128189086,0.2904906272888183,0.1912006735801696,0.2431241869926452,-0.0720820426940918
1772903243207894300,10.853894287109377,-0.0092620849609375,-0.0852566957473754,0.4421806335449219,0.1667660921812057,0.3170388340950012,-0.0824667438864708
1772903243226880500,10.872880615234376,-0.4493846893310547,-0.0802093744277954,0.1990623474121093,0.185092031955719,0.401949018239975,-0.1490510106086731
1772903243245866800,10.89186669921875,-0.4481320381164551,-0.1130203008651733,0.058112621307373,0.2083048969507217,0.42088583111763,-0.1960875988006591
1772903243264853000,10.91085302734375,0.2564091682434082,-0.1008318662643432,0.2761011123657226,0.1551596522331237,0.1973093301057815,-0.1704312711954116
1772903243283839000,10.9298388671875,0.5200638771057129,-0.1480275392532348,0.4029717445373535,0.1185077652335167,0.0873536616563797,-0.0519235059618949
1772903243302825200,10.9488251953125,-0.0050759315490722,-0.2146809101104736,0.3393549919128418,0.1001818254590034,0.0427605360746383,0.0030543238390237
1772903243321811500,10.9678115234375,-0.4765114784240722,-0.1512187719345092,0.1044197082519531,0.1117882579565048,-0.0348192937672138,-0.0268780495971441
1772903243340798000,10.9867978515625,-0.7874135971069336,-0.234485387802124,0.0439534187316894,0.1270598769187927,-0.0690277218818664,-0.0995709598064422
1772903243359784000,11.005783935546877,-0.8498997688293457,-0.5013867616653442,0.1191878318786621,0.0879645273089408,-0.0940731763839721,-0.1545487940311432
1772903243378770200,11.024770263671876,-0.5267758369445801,-0.5190513134002686,0.0488848686218261,0.067805990576744,-0.1594357043504715,-0.0904079899191856
