time,seconds_elapsed,acc_z,acc_y,acc_x,gyro_z,gyro_y,gyro_x
1772650316573910500,0.06791064453125,0.1180553015381097,0.02030979757905,0.2195733097732067,0.1572909504175186,0.123175173997879,-0.0256027486175298
1772650316583883500,0.077883544921875,0.0757084441959857,-0.0849400906607508,0.0770019911378622,0.1307098269462585,0.1087621226906776,-0.0472447015345096
1772650316593855500,0.08785546875,0.0577536853104829,-0.1316065647676587,0.0082904200918972,0.0955869928002357,0.0952977091073989,-0.0515172109007835
1772650316603828000,0.097827880859375,0.0853700065106153,-0.0896925458848476,-0.0302386325277388,0.0687398537993431,0.0641371756792068,-0.067487396299839
1772650316613801000,0.107801025390625,0.1427910988658666,-0.034668577799201,0.0038989071346819,0.0706400126218795,0.038978561758995,-0.0989145636558532
1772650316623773000,0.11777294921875,0.1989917095154523,0.0274292741954326,0.1465852304518222,0.0880639031529426,0.0427937060594558,-0.1395005732774734
1772650316633746000,0.127745849609375,0.1449281108945608,0.0911971052289009,0.226569306140393,0.1011797040700912,0.0696381032466888,-0.1747624278068542
1772650316643718000,0.1377177734375,0.0155833535790443,0.1495408653870225,0.2484527827769517,0.1055614054203033,0.102959506213665,-0.2007969170808792
1772650316653691100,0.147691162109375,-0.1323000999897718,0.1936477181389927,0.2705510712079703,0.1174614802002906,0.1508716344833374,-0.2091850787401199
1772650316663663900,0.157663818359375,-0.3230348532915115,0.2456017772600054,0.2368450548306107,0.1361628472805023,0.2006960809230804,-0.1968017071485519
1772650316673635800,0.1676357421875,-0.3754775727123022,0.2298644021630287,0.195538354191184,0.1559804826974868,0.2100842595100402,-0.1732915788888931
1772650316683609000,0.177609130859375,-0.2627162859290838,0.2178100994929671,0.1712589223287999,0.1668977588415146,0.1650374829769134,-0.1353319585323333
1772650316693580800,0.187580810546875,-0.0848480284631252,0.1746650775104761,0.1805883300796151,0.1651328802108764,0.0790815502405166,-0.1096886545419693
1772650316703553800,0.1975537109375,0.1176245089054107,0.1191185468554496,0.2507775724627077,0.1455911844968795,0.0051086689345538,-0.1040520966053009
1772650316713527000,0.207527099609375,0.2237964804261922,0.066129299467802,0.3327861397162079,0.1296724081039428,-0.0337258130311965,-0.1246873289346695
1772650316723499000,0.2174990234375,0.3042413054943084,0.0896288329988718,0.4135949757911265,0.1324751824140548,-0.0425190851092338,-0.1774480044841766
1772650316733471700,0.2274716796875,0.3691320030778646,0.1670084252774715,0.4358091456867754,0.1577480584383011,-0.0326880253851413,-0.2415686696767807
1772650316743444000,0.23744384765625,0.2807949634552001,0.2365948794618249,0.3198779966957867,0.1876677274703979,0.0051723662763834,-0.2986207902431488
1772650316753417000,0.2474169921875,0.1859089405804872,0.2476511110052466,0.2501964115738868,0.2117163389921188,0.0397244840860366,-0.3485713005065918
1772650316763390000,0.257389892578125,0.1863578533917665,0.2018894767835736,0.2269087672278285,0.2104423940181732,0.0398895554244518,-0.3973541855812073
1772650316773362000,0.26736181640625,0.1821300065636634,0.1614575131520629,0.2010837133586406,0.1959207206964492,0.0422134324908256,-0.4296980202198028
1772650316783335000,0.2773349609375,0.1058569142222404,0.150813661801815,0.1138287698842585,0.1743118911981582,0.0289908591657876,-0.4509761929512024
1772650316793307100,0.28730712890625,0.0968108534574508,0.1803489683657884,0.1499396554462611,0.177184909582138,-0.040990624576807,-0.4555360674858093
1772650316803280000,0.29727978515625,0.2160503963440656,0.2055021143227815,0.2493817341901361,0.1861090511083603,-0.0624733045697212,-0.4979517161846161
1772650316813252000,0.307252197265625,0.4282353494316339,0.2339855737462639,0.4446783885799348,0.2238399088382721,-0.0846537053585052,-0.5190761685371399
1772650316823225000,0.31722509765625,0.5375520487189293,0.2687035436451435,0.556716329524666,0.2665543258190155,-0.128861591219902,-0.5263201594352722
1772650316833197800,0.32719775390625,0.6650842036545276,0.2722954306572676,0.5920144373990595,0.309628814458847,-0.2406855970621109,-0.5341948866844177
1772650316843170000,0.337170166015625,0.8110603622972965,0.1725572915762663,0.6879556684151291,0.3506670296192169,-0.3250369727611542,-0.5483254194259644
1772650316853143000,0.34714306640625,0.9089771311700344,0.1430129249230027,0.6762294286556542,0.3701046407222748,-0.2969129085540771,-0.5392876863479614
1772650316863116000,0.357115966796875,0.8456465225100517,0.1548918710261583,0.498023755928874,0.3677825331687927,-0.2184969633817672,-0.5091816782951355
1772650316873088000,0.367087890625,0.7903758861869573,0.1089800146788358,0.3427997303389012,0.3578401803970337,-0.1875755339860916,-0.4708188772201538
1772650316883061000,0.37706103515625,0.6918149741917848,-0.0252680045083165,0.1801027385197579,0.3911421298980713,-0.2545627653598785,-0.4408622980117798
1772650316893033000,0.387032958984375,0.7543745984792709,0.090079791636765,0.2620999075964093,0.4150133728981018,-0.3320197463035583,-0.443572074174881
1772650316903006000,0.397005859375,0.6618535511702299,-0.2906637387797236,0.3657246788524091,0.4065778851509094,-0.3504707813262939,-0.4093644917011261
1772650316912978000,0.40697802734375,0.2038683756411075,-0.7295806412234902,0.1277089728072285,0.3166930079460144,-0.3540793657302856,-0.3513707220554352
1772650316922951000,0.416950927734375,-0.0362117155879735,-0.8043646640509367,-0.0652501785457134,0.2020886987447738,-0.3759226500988006,-0.2833288908004761
1772650316932924200,0.426924072265625,-0.1224181729227304,-0.710856359270215,-0.0601369271852076,0.1385747045278549,-0.4306695461273193,-0.2297495603561401
1772650316942895900,0.436895751953125,-0.1287292557656764,-0.6261629368469118,0.1671197766974568,0.1270257085561752,-0.4826307892799377,-0.2053478062152862
1772650316952868900,0.446868896484375,-0.1563449924439191,-0.5281579051688313,0.4422463391274213,0.1672237366437912,-0.5031954646110535,-0.2043246179819107
1772650316962841000,0.456841064453125,-0.1949398037761449,-0.3921504750937223,0.5638216314852237,0.2234464883804321,-0.4975037276744842,-0.2332658022642135
1772650316972813800,0.466813720703125,-0.1101981582969427,-0.3280643718913197,0.5041454536795615,0.26906618475914,-0.4465372264385223,-0.3046867549419403
1772650316982786800,0.476786865234375,-0.1175870995044708,-0.3759358378738164,0.3709099725358188,0.3127315044403076,-0.3365091383457184,-0.375238835811615
1772650316992759000,0.486759033203125,-0.2760486457109451,-0.4471645063072442,0.3497754145704209,0.3504796922206878,-0.208055317401886,-0.4117968678474426
1772650317002732000,0.49673193359375,-0.3176087365895509,-0.4646498941153287,0.3240017986275255,0.3605802059173584,-0.114429585635662,-0.4094433486461639
1772650317012704000,0.5067041015625,-0.344276378762722,-0.4902855628922581,0.2627396668046712,0.3516887128353119,-0.0861271098256111,-0.3497312664985657
1772650317022677000,0.516677001953125,-0.3744499832302331,-0.5535004362180829,0.2836488915815949,0.3305050432682037,-0.1093518882989883,-0.2616840302944183
1772650317032650000,0.52664990234375,-0.3305418679207563,-0.7071414304003119,0.3753774733386933,0.3039977848529815,-0.1377329230308532,-0.1543807238340377
1772650317042622000,0.5366220703125,-0.1530897900402545,-0.8368117664083838,0.496183827150613,0.2732154428958893,-0.1752014458179474,-0.0468053184449672
1772650317052595000,0.546594970703125,0.1643348221540451,-0.9160559835150838,0.6097450321398675,0.233036607503891,-0.239376962184906,0.030820233747363
1772650317062567000,0.55656689453125,0.5881839193254709,-0.9488190199539064,0.6502412201140075,0.1863431930541992,-0.3592606782913208,0.0510616227984428
1772650317072540200,0.5665400390625,0.8803431573599576,-0.9986147319972516,0.7265762717757374,0.1589680165052414,-0.4725243747234344,0.0153230652213096
1772650317082513000,0.576512939453125,1.0993564951628445,-1.1073232362583278,0.8524220810595899,0.1352522671222686,-0.5495661497116089,-0.0716751366853714
1772650317092484900,0.58648486328125,1.3247872987926006,-1.0557266122728586,0.7425584154140203,0.1133192777633667,-0.5577093362808228,-0.1701601594686508
1772650317102458000,0.5964580078125,1.2537737344145774,-1.078012678360939,0.8249335509575902,0.1292997747659683,-0.5374695062637329,-0.2528051137924194
1772650317112429800,0.606429931640625,1.1322744299024343,-1.067253383937478,0.8627046248167752,0.1599817872047424,-0.48285573720932,-0.3409783840179443
1772650317122402800,0.61640283203125,1.1479904699504375,-0.9781333772435784,0.8231403839305043,0.1984240263700485,-0.4656888842582702,-0.4282043874263763
1772650317132376000,0.6263759765625,1.0794091011554,-0.9107321581438184,0.6905224501632153,0.2250007838010788,-0.4678926467895508,-0.5066624283790588
1772650317142348000,0.63634814453125,0.9195879570335148,-0.9379062885344028,0.6045339464280755,0.2279354035854339,-0.453967422246933,-0.5590009093284607
1772650317152320800,0.64632080078125,0.7652700865030289,-1.1331567656949162,0.6336032429154962,0.2353107631206512,-0.3953917324542999,-0.5815967321395874
1772650317162293000,0.65629296875,0.5836123736262321,-1.2526242721185088,0.6381142905991524,0.1807989031076431,-0.3613178133964538,-0.5764243602752686
1772650317172266000,0.666265869140625,0.4472615369409322,-1.082521972478926,0.2425727848276495,0.0991176217794418,-0.3110930025577545,-0.5509200692176819
1772650317182239000,0.676239013671875,0.2401443886369466,-1.0730471649080515,0.0979405881397426,0.0251440871506929,-0.1907573193311691,-0.5005984306335449
1772650317192211000,0.6862109375,0.0462415266931056,-1.0976926536038518,0.1817914222590625,-0.0168073568493127,-0.0452824085950851,-0.4535946846008301
1772650317202184000,0.696183837890625,0.1079834048569202,-0.9886299290776251,0.2835774703131988,-0.0277950949966907,0.0288828779011964,-0.4369277656078338
1772650317212156200,0.70615625,0.3531318853914738,-0.6571244768217206,0.3769706973468885,-0.022884227335453,0.0756836757063865,-0.4498627483844757
1772650317222129000,0.71612890625,0.4251408905476331,-0.5601587250635027,0.6008878450106829,0.0170542169362306,0.1168855875730514,-0.4339135587215423
1772650317232102000,0.726101806640625,0.2622609433770179,-0.6498597465157508,0.9423628295518456,0.0686127468943595,0.120386317372322,-0.3921868801116943
1772650317242074000,0.73607421875,0.0124660983413457,-0.6053313073508441,1.0994005535002798,0.1280619204044342,0.0641512647271156,-0.3235985934734344
1772650317252047000,0.746047119140625,-0.3384977953612804,-0.5852224391713738,1.108800761464983,0.1901029199361801,0.074636660516262,-0.2352924197912216
1772650317262018800,0.756018798828125,-0.4241612318605184,-0.5812970824211835,1.1393860154733062,0.2467418015003204,0.1419925540685653,-0.1633310914039611
1772650317271992000,0.765991943359375,-0.2733604295402765,-0.4602931602105498,1.1256241782329977,0.3000282049179077,0.201808214187622,-0.098226398229599
1772650317281965000,0.775965087890625,-0.1680634872883558,-0.4605851288944482,1.0713200488545,0.3323385119438171,0.2962855398654938,-0.0277284998446702
1772650317291936800,0.785936767578125,-0.2503711836189031,-0.6645839990474284,1.1317386425253002,0.3242733776569366,0.3078998625278473,0.0351170450448989
1772650317301910000,0.795909912109375,-0.1214548808485269,-0.7016650448158382,0.6731963445700705,0.2773509919643402,0.3193974196910858,0.0761320516467094
1772650317311882000,0.805882080078125,-0.0116343236923217,-0.8716226752877235,0.4040050904732197,0.2087085545063018,0.3363742530345917,0.1199256032705307
1772650317321854700,0.815854736328125,0.0540121606945991,-0.9791184427581728,0.3288159209109842,0.1369453072547912,0.3507961928844452,0.1600653678178787
1772650317331828000,0.825827880859375,0.1167144083231687,-0.9836045021310448,0.4533124344777315,0.0751591771841049,0.3155362010002136,0.2080163955688476
1772650317341800000,0.835800048828125,0.1699339573353528,-0.996070746602863,0.6343707201566546,0.0164916813373565,0.2662277221679687,0.2327225357294082
1772650317351773000,0.84577294921875,0.2986281417876482,-0.9251146115005016,0.7684553654756396,-0.0332023724913597,0.2817073464393616,0.2220898568630218
1772650317361745000,0.855744873046875,0.3720832540988922,-0.7426026198819279,0.9618237552165984,-0.0509890206158161,0.3760567605495453,0.2018087804317474
1772650317371718000,0.8657177734375,0.3879021699994802,-0.5741819897189736,1.1234446422368287,-0.0328531637787818,0.4925689995288849,0.1723164021968841
1772650317381691000,0.87569091796875,0.528574377015233,-0.5243979681134223,1.18333950429447,0.0106722172349691,0.5429463386535645,0.1373771280050277
1772650317391662800,0.885662841796875,0.6455132417440415,-0.4906190326303243,1.1613142810996622,0.0670521333813667,0.4892043173313141,0.1623237431049347
1772650317401635800,0.8956357421875,0.334084070572257,-0.4033049063146114,1.2901381563462315,0.149484246969223,0.3322473168373108,0.3227590024471283
1772650317411608000,0.905608154296875,-0.1503781929939985,-0.2911421699464321,1.4695938291341066,0.1840709894895553,0.1176023930311203,0.4891522526741028
1772650317421581000,0.9155810546875,-0.2997387333780527,-0.4819055648207664,1.4740211440570652,0.1682914644479751,-0.0698040425777435,0.586236834526062
1772650317431553800,0.9255537109375,-0.2464917118370533,-0.7090642151564359,1.4090654184132814,0.1319483667612075,-0.2003790885210037,0.6477571725845337
1772650317441526000,0.935526123046875,-0.0598018500119447,-0.867654940700531,1.2871465733148155,0.0835924223065376,-0.2647285759449005,0.6124961972236633
1772650317451499000,0.9454990234375,0.2544523154526948,-0.8434802843868732,1.2505796145483852,0.0776703506708145,-0.2835190296173095,0.5495055317878723
1772650317461470700,0.955470703125,0.3860223476022482,-0.6014341537818312,1.3568001013860105,0.126934066414833,-0.2967243790626526,0.4782408475875854
1772650317471444000,0.96544384765625,0.4048217406183481,-0.4778957446575164,1.4944146743968127,0.2073037475347519,-0.3343196809291839,0.3778410255908966
1772650317481417000,0.9754169921875,0.3130816145539283,-0.5422010435685515,1.5268240750923752,0.2997806668281555,-0.3333748281002044,0.2986936271190643
1772650317491389000,0.985388916015625,0.1401367849647998,-0.578482025000453,1.4459220077760515,0.3729709684848785,-0.2678014039993286,0.2284522205591201
1772650317501362000,0.99536181640625,0.1356371354579925,-0.5188201679810881,1.26403589297086,0.3938566744327545,-0.2178254127502441,0.118362121284008
1772650317511334000,1.005333984375,0.2734615518271923,-0.6177727096423506,0.9123163585953414,0.379032701253891,-0.155853658914566,-0.0410765372216701
1772650317521307000,1.015306884765625,0.4261848466426134,-0.8764891122803091,0.61161462540403,0.3253414630889892,-0.1368894279003143,-0.2251648604869842
1772650317531280100,1.025280029296875,0.4795540332585573,-1.0630538864210248,0.3545135490082204,0.2093216627836227,-0.2035520821809768,-0.4091951549053192
1772650317541251800,1.035251953125,0.2783382179528474,-1.0555986019790171,-0.0103150577872991,0.047436386346817,-0.2949877679347992,-0.5533060431480408
1772650317551224800,1.045224853515625,-0.1771948882490396,-0.9113923756182192,-0.4236753480397164,-0.1179957166314125,-0.3223336637020111,-0.624866783618927
1772650317561197000,1.055197021484375,-0.7396750419974326,-0.7152399811819196,-0.7115854041971266,-0.2460007518529892,-0.2861988544464111,-0.6413309574127197
1772650317571169800,1.065169677734375,-1.1795780328691006,-0.4536436391934752,-0.7232128597572446,-0.3329468369483948,-0.2380078881978988,-0.6303457021713257
1772650317581142800,1.075142822265625,-1.3329250125408172,-0.2128583223044872,-0.6798685888756066,-0.410247802734375,-0.1990285515785217,-0.5913013219833374
1772650317591115000,1.085114990234375,-1.3019897760510444,-0.1074991284713149,-0.6528253183230758,-0.4772356152534485,-0.1865087747573852,-0.5202367305755615
1772650317601088000,1.095087890625,-1.174134965032339,-0.0712421124368906,-0.5142597281977535,-0.4958418011665344,-0.2161396294832229,-0.4304847419261932
1772650317611059700,1.105059814453125,-1.0646101759523152,-0.0089390932589769,-0.3058662032824009,-0.4711798727512359,-0.2819700241088867,-0.3404123783111572
1772650317621032700,1.11503271484375,-0.9945043740689754,0.0067553194791078,-0.086612700048089,-0.4159962236881256,-0.3234986364841461,-0.2715232968330383
1772650317631004700,1.125004638671875,-0.8403028233945369,0.0193657947272062,0.079392576068826,-0.35308837890625,-0.3415889739990234,-0.2404321879148483
1772650317640977700,1.134977783203125,-0.7255740359306335,0.0238511234477162,0.2002453263057395,-0.2925777435302734,-0.3315808475017547,-0.2574285268783569
1772650317650950700,1.14495068359375,-0.6563058539152145,0.0534374295465648,0.2683924318693578,-0.2494814246892929,-0.298272967338562,-0.2851991653442383
1772650317660922600,1.154922607421875,-0.6759411132335662,0.0655472617961466,0.2102814575538039,-0.2349705398082733,-0.238454982638359,-0.3146950900554657
1772650317670895600,1.1648955078125,-0.8039876474320888,0.04524491687119,0.0409086777651682,-0.2340698540210724,-0.1995358169078827,-0.3344490826129913
1772650317680867600,1.17486767578125,-1.0449562119334936,-0.0052327860869467,-0.1264248147482052,-0.2333980500698089,-0.1711693257093429,-0.3163877129554748
1772650317690840800,1.1848408203125,-1.3390642459481954,-0.0443289710700511,-0.2502636681238189,-0.2385060042142868,-0.1602130830287933,-0.248004138469696
1772650317700813600,1.1948134765625,-1.624880836957693,-0.0094702775262296,-0.498281274353899,-0.2541431188583374,-0.1586171388626098,-0.1328205466270446
1772650317710785500,1.20478564453125,-1.8951713575333355,0.0242808931671082,-0.757530870553106,-0.2729282677173614,-0.1593686789274215,0.0165127553045749
1772650317720758800,1.2147587890625,-2.044070710146427,0.0958731342159211,-0.907482581763342,-0.2979229688644409,-0.1562086790800094,0.1836761087179184
1772650317730730500,1.22473046875,-1.9945102681636808,0.2526581255123019,-1.0938254567816852,-0.3184809684753418,-0.1594265699386596,0.3668672144412994
1772650317740703500,1.234703369140625,-1.7713596844255923,0.4167833965688943,-1.1999893911264836,-0.3329759240150451,-0.155595600605011,0.551917552947998
1772650317750676700,1.2446767578125,-1.4351082066863774,0.5067283097796141,-1.1968227437891066,-0.3541243374347687,-0.1529316306114196,0.7127876877784729
1772650317760648700,1.254648681640625,-1.0331453626304865,0.5665582168422639,-1.172255434896052,-0.3833661079406738,-0.1740351170301437,0.8177037835121155
1772650317770621400,1.264621337890625,-0.5474883363217115,0.6927110462486743,-1.1476456020355223,-0.4032498002052307,-0.1952767670154571,0.8501589298248291
1772650317780593700,1.27459375,-0.0218979435533285,0.8124132382109761,-1.03292894340083,-0.3805809020996094,-0.1880350112915039,0.8207104206085205
1772650317790566700,1.284566650390625,0.3837345289260149,0.8832996690779924,-0.9109529612876476,-0.3371484577655792,-0.1496261060237884,0.7420984506607056
1772650317800539600,1.29453955078125,0.7100193239241838,0.906829305486381,-0.8109140856944024,-0.2812029421329498,-0.0818634927272796,0.6265924572944641
1772650317810511600,1.30451171875,0.8419073359817266,0.9766861010447144,-0.7644365582883358,-0.2156865149736404,-0.010720606893301,0.5026947855949402
1772650317820484600,1.314484619140625,0.8788432741910218,1.118466269302368,-0.7489357684262097,-0.142455592751503,0.0613048076629638,0.4026654660701751
1772650317830456600,1.32445654296875,0.8010130155354738,1.1753396646469831,-0.8125358416773378,-0.0748696252703666,0.1363210082054138,0.3562899827957153
1772650317840429600,1.3344296875,0.6784440359652042,1.1223992248371242,-0.8703593042884021,-0.0355630032718181,0.1951056718826294,0.3485055267810821
1772650317850402600,1.344402587890625,0.6468459516525268,1.022836442323029,-0.9590377046946436,-0.0321054235100746,0.229292407631874,0.3635031282901764
1772650317860374800,1.354374755859375,0.6739309424549341,0.8919175675585865,-1.0590030035950242,-0.053008422255516,0.2360468804836273,0.3961963951587677
1772650317870347500,1.364347412109375,0.7506383345603942,0.822383720344305,-1.0637507826440036,-0.0794770494103431,0.199341595172882,0.4279606938362121
1772650317880319500,1.374319580078125,0.8667594531655312,0.7412804313674569,-0.9444044183820486,-0.0978104770183563,0.1518565118312835,0.4565736651420593
1772650317890292700,1.384292724609375,0.9389677802860736,0.6743117584660648,-0.7380474407956004,-0.0961755663156509,0.1250890791416168,0.4751311242580414
1772650317900265700,1.394265625,1.1393185031950472,0.6974132325902581,-0.505231385752745,-0.0819029584527015,0.1004397124052047,0.4738211035728454
1772650317910237400,1.404237548828125,1.3621516915470362,0.6737886113747954,-0.4154636922724545,-0.0690731853246688,0.0608659386634826,0.446433961391449
1772650317920210700,1.414210693359375,1.4981810411930083,0.6051075815975666,-0.40231669899486,-0.0417952202260494,0.0482180528342723,0.3872587978839874
1772650317930182700,1.4241826171875,1.606235173198581,0.5314207063570618,-0.3776857137484475,-0.0161420572549104,0.0621759444475173,0.3057112097740173
1772650317940155400,1.4341552734375,1.7298036852002143,0.4865773560240864,-0.428900791070424,-1.07875093817e-05,0.0781523063778877,0.1893905252218246
1772650317950128600,1.444128662109375,1.8332500311493876,0.4146697654157876,-0.4638856317445635,0.0103334635496139,0.0976591631770134,0.0408335328102111
1772650317960100600,1.4541005859375,1.865427376654744,0.298908127772808,-0.5020280231341719,0.0222074333578348,0.1306200325489044,-0.1065884158015251
1772650317970073600,1.464073486328125,1.6528700831234455,0.2054328484788536,-0.5383276362013072,0.0366095416247844,0.1727528423070907,-0.2244042605161667
1772650317980045600,1.474045654296875,1.3928741620689629,0.1658966646432876,-0.5879506220262497,0.0516156554222106,0.2144915014505386,-0.3037704527378082
1772650317990018600,1.4840185546875,1.2230255449295042,0.1319853349521756,-0.643813525154069,0.054877758026123,0.2485506683588028,-0.3601583838462829
1772650317999990800,1.49399072265625,1.0068787024736403,0.0599488572672009,-0.7015326506078243,0.0542481169104576,0.2864737808704376,-0.3746669590473175
1772650318009963500,1.503963623046875,0.7642080102294683,-0.0790790896728634,-0.7013295292511582,0.0591874793171882,0.3476457893848419,-0.3399611711502075
1772650318019936500,1.5139365234375,0.5133037426471709,-0.1988417796507477,-0.6676560269039123,0.0571716129779815,0.4197903573513031,-0.279150903224945
1772650318029908700,1.52390869140625,0.3691811029165983,-0.3100660661250353,-0.6496775218166411,0.0450124219059944,0.4955745935440063,-0.2033512145280838
1772650318039881700,1.5338818359375,0.2680839504420757,-0.3760129947632551,-0.6559046527031809,0.0316265076398849,0.6053036451339722,-0.1246981173753738
1772650318049853400,1.543853515625,0.1798579699784517,-0.4252002195194363,-0.5640288444951176,-0.0074777528643608,0.6836048364639282,-0.0473828241229057
1772650318059826700,1.55382666015625,0.2591670690149069,-0.522680935062468,-0.6267343069940805,-0.0347562506794929,0.5854051113128662,0.0446056351065635
1772650318069799700,1.563799560546875,0.3706020756304264,-0.7670698294013738,-0.7000319637212902,-0.0917798578739166,0.3392361104488373,0.1047363430261612
1772650318079771400,1.573771484375,0.3916775968849659,-1.1003279705435036,-0.9317573374506084,-0.0902475118637085,0.2813955843448639,0.1640854477882385
1772650318089744600,1.58374462890625,0.4826753801494836,-0.9575222586303948,-0.0460959807425737,-0.0993507280945777,0.1731452494859695,0.1692682206630706
1772650318099716600,1.593716552734375,0.7721838114142417,-0.9678872930392622,-0.4766966710660606,-0.0761959850788116,0.1032212749123573,0.1334718465805053
1772650318109689600,1.603689697265625,0.7081523610085249,-0.9803139361530542,-0.2011501296583563,-0.0464673899114131,-0.0010425522923469,0.0940400138497352
1772650318119662600,1.61366259765625,0.5332686723113059,-0.9772393510133028,-0.2059693665083497,-0.0039185620844364,-0.0422902479767799,0.0772168040275573
1772650318129634600,1.623634521484375,0.4191419423937797,-0.9662845340177416,-0.1726627247121185,0.0157076027244329,-0.0230598244816064,0.0603294298052787
1772650318139607600,1.633607666015625,0.363625806877017,-0.9185150671049952,-0.2839548157256096,0.0192203484475612,0.003758349455893,0.0514413751661777
1772650318149579500,1.64357958984375,0.3665846566826105,-0.9195420720651746,-0.3219096486538648,0.0226379819214344,0.0046739447861909,0.053212109953165
1772650318159552500,1.653552490234375,0.3785802149027585,-0.9792287712648512,-0.2939560583233833,0.0212422981858253,-0.0195041429251432,0.0498256422579288
1772650318169525500,1.663525390625,0.5186620548099279,-1.097291379326582,-0.2885424357768148,0.0116453301161527,-0.0619882196187973,0.0290854759514331
1772650318179497700,1.673497802734375,0.6213648889154195,-1.1903665533870458,-0.3582170797012746,-0.0193045549094676,-0.0792765915393829,-0.0017573602963238
1772650318189470500,1.683470458984375,0.5975058744221925,-1.2489604889139532,-0.428601698525995,-0.0538446903228759,-0.0287841204553842,-0.0283285174518823
1772650318199442700,1.693442626953125,0.54407823561728,-1.2333084540128707,-0.4245291153248399,-0.0754666924476623,0.0592611506581306,-0.0396614484488964
1772650318209415700,1.703415771484375,0.529881952482462,-1.1681266645282506,-0.4333161598272621,-0.0838114395737648,0.147757202386856,-0.0506714880466461
1772650318219388700,1.713388671875,0.5345481907278299,-1.1209013874948024,-0.3294099412813782,-0.073448933660984,0.2188258916139602,-0.0526881739497184
1772650318229360600,1.723360595703125,0.6570283229708671,-1.1064581438615917,-0.1952425130497664,-0.0529583133757114,0.2399159967899322,-0.059379369020462
1772650318239333600,1.733333740234375,0.8542588680326938,-1.0930170630082487,-0.1783583790704608,-0.0328725911676883,0.236891284584999,-0.0846708044409751
1772650318249305600,1.7433056640625,0.997173885539174,-1.1629343565821646,-0.1592421021249145,-0.0192976612597703,0.2431869953870773,-0.1141421422362327
1772650318259278600,1.753278564453125,1.0198030659765005,-1.262562605547905,-0.1263124038822949,-0.0052936999127268,0.2424160838127136,-0.1265059262514114
1772650318269251600,1.76325146484375,0.9140408443003892,-1.3778876053392886,-0.1491493818514049,0.0051104710437357,0.2307035028934478,-0.1266598552465438
1772650318279223800,1.773223876953125,0.7518664150506258,-1.4979787966191769,-0.2563130678232759,0.012995021417737,0.1924432665109634,-0.0969241186976432
1772650318289196800,1.78319677734375,0.4788017535865306,-1.6523872680425642,-0.4554026116900145,0.0257433056831359,0.150926187634468,-0.0393718779087066
1772650318299168500,1.79316845703125,0.3283832285821437,-1.7795912139371035,-0.6460995171993971,0.0178745407611131,0.11188206076622,0.0204946584999561
1772650318309141800,1.803141845703125,0.2944640078455209,-1.880990856489539,-0.9434285590872168,-0.013702293857932,0.0503039173781871,0.0426428355276584
1772650318319113700,1.81311376953125,0.1808206775307655,-2.025717015071213,-1.30166668157652,-0.0564425587654113,-0.0210902448743581,0.0336947254836559
1772650318329086500,1.82308642578125,-0.1711497628659009,-2.2132971037343143,-1.4811772994220256,-0.0857008397579193,-0.0456118322908878,0.0168696716427803
1772650318339059700,1.833059814453125,-0.5211643930196762,-2.3388433455497024,-1.3787120734646916,-0.1008106023073196,-0.0388079956173896,0.0016996890772134
1772650318349031700,1.84303173828125,-0.8344687104135752,-2.304666642920673,-1.2089793377898632,-0.1124880313873291,-0.034332551062107,-0.0031917388550937
1772650318359004400,1.85300439453125,-1.1950590951174498,-2.163067384187877,-1.0555331355273725,-0.1165877059102058,-0.0508352927863597,0.0108113726601004
1772650318368976600,1.8629765625,-1.5355705683887004,-2.0706804846525197,-0.88734193020612,-0.0986116304993629,-0.0662728324532508,0.0657023191452026
1772650318378949600,1.87294970703125,-1.7663550080060957,-1.9607900771304965,-0.7258300565183162,-0.0764690786600112,-0.0612673722207546,0.1341104805469513
1772650318388922600,1.882922607421875,-1.8841607186973093,-1.8315987568110224,-0.6662323507763445,-0.0504747629165649,-0.031690839678049,0.1931695491075515
1772650318398894600,1.89289453125,-1.9126374561190604,-1.697614064735174,-0.6689956780098378,-0.025486622005701,0.0213621146976947,0.2454748451709747
1772650318408867600,1.90286767578125,-1.8808833044618367,-1.6049746517434715,-0.6095926180571317,-6.11571595072e-05,0.080853670835495,0.2971673309803009
1772650318418839800,1.91283984375,-1.8595307198315856,-1.5352461587399244,-0.5422042584389448,0.0238231681287288,0.1467250436544418,0.3542552888393402
1772650318428812500,1.9228125,-1.8588152650386092,-1.4695321620747446,-0.3932610666841268,0.0536710768938064,0.2161043882369995,0.4362750649452209
1772650318438785500,1.93278564453125,-1.7923516190499067,-1.4153987130880354,-0.0752669840388,0.0675702393054962,0.2554554641246795,0.5401360988616943
1772650318448757800,1.9427578125,-1.487273278209567,-1.2647905107304451,0.2284558505393564,0.0702565684914588,0.2484604120254516,0.6263785362243652
1772650318458730800,1.952730712890625,-1.0603495958983895,-1.025477019959688,0.4786899637751281,0.07819464802742,0.2033068537712097,0.697162926197052
1772650318468702500,1.962702392578125,-0.6442132650613784,-0.9394044181376696,0.8600652162238955,0.1033985391259193,0.1184098124504089,0.7465887665748596
1772650318478675700,1.97267578125,-0.1734247220605611,-0.9525921087518334,1.2150462366133927,0.1099444329738617,-0.0149355651810765,0.7559207081794739
1772650318488648700,1.982648681640625,0.3395984500795602,-0.9060130206674336,1.3574004053667188,0.0784482881426811,-0.1923367083072662,0.7253897190093994
1772650318498620400,1.992620361328125,0.6759598179340363,-0.772988990317285,1.199486994562298,0.0102370204403996,-0.3274195492267608,0.6591042876243591
1772650318508593700,2.00259375,0.5895218899309634,-0.4728843462362885,0.8318868772268295,-0.0646382868289947,-0.4066818952560425,0.5577020049095154
1772650318518565600,2.012565673828125,0.3118143710970878,-0.0425794970542192,0.3673911507599056,-0.1409812122583389,-0.3945945501327514,0.4318287670612335
1772650318528538600,2.02253857421875,-0.1320399877488613,0.2998787263706326,-0.1136177574820816,-0.2174421697854995,-0.3238223493099212,0.2974318265914917
1772650318538511600,2.03251171875,-0.4231348114222288,0.6155468502864241,-0.5554910255134106,-0.2845697104930877,-0.228241816163063,0.1585662215948104
1772650318548483600,2.042483642578125,-0.5902466970741749,0.9408201301544904,-0.8736618529651313,-0.3619374632835388,-0.1169043704867363,0.0445927828550338
1772650318558456600,2.05245654296875,-0.8823743709266185,1.1832017763242124,-0.9141462043710052,-0.4304344952106476,0.0103304777294397,-0.0208346396684646
1772650318568428500,2.062428466796875,-1.2021095981508492,1.750798834694922,-0.8200305813468992,-0.476652055978775,0.0141979195177555,-0.0192881431430578
1772650318578401500,2.072401611328125,-1.660474712908268,2.0417814301654693,-0.5406472382552922,-0.4383769631385803,0.1163574829697609,0.0697450712323188
1772650318588374500,2.08237451171875,-1.958241853952408,2.1789394915804268,0.3142122260190546,-0.3321874141693115,0.2387899160385131,0.2343055307865142
1772650318598346800,2.0923466796875,-1.8216589620769024,2.3855399225339293,0.8129341933451593,-0.2276098728179931,0.3293997645378113,0.4317389130592346
1772650318608320000,2.102320068359375,-1.5524591593474149,2.470532620164752,1.2028238839000462,-0.1279730200767517,0.4370215833187103,0.6219426393508911
1772650318618292000,2.1122919921875,-0.9885790756732225,2.812749436049163,1.4985243016727268,-0.0485242903232574,0.4216023981571197,0.7726126909255981
1772650318628265000,2.122264892578125,-0.4925421096473932,2.860602489592135,1.855334875576943,0.0691834315657615,0.4243742227554321,0.8850306272506714
1772650318638237000,2.13223681640625,-0.0290513224393129,2.648675895179808,2.418489859846979,0.1956239193677902,0.3894394934177398,0.9492647051811218
1772650318648210200,2.142210205078125,0.4175210631936788,2.513006903278828,2.562562669086456,0.2960892915725708,0.3092232048511505,0.9433165788650512
1772650318658183200,2.15218310546875,0.8521820617586374,2.4100261290147897,2.4607108988523483,0.354467898607254,0.2158999741077423,0.884639322757721
1772650318668155000,2.16215478515625,1.1786498121082782,2.2610911205664275,2.185856139101088,0.3752259016036987,0.1096329241991043,0.7813555598258972
1772650318678128000,2.172128173828125,1.324217974472046,2.100655351677537,1.8142348034255205,0.3859268426895141,-0.0057829311117529,0.6435068845748901
1772650318688100000,2.18210009765625,1.329124451214075,1.959840229059756,1.5590603111781178,0.3498556613922119,-0.0324017591774463,0.4562901258468628
1772650318698072800,2.19207275390625,1.2574854484140872,1.812299013057351,1.2959477194078266,0.2969205379486084,-0.0662845000624656,0.2630395293235779
1772650318708046000,2.202046142578125,1.085049152868986,1.751318766915798,0.9950092548511922,0.2327423393726349,-0.1106493026018142,0.0764259696006774
1772650318718018000,2.21201806640625,0.7576268782734871,1.7032377498358486,0.8832391710624098,0.1611354500055313,-0.1312958002090454,-0.0998517125844955
1772650318727991000,2.221990966796875,0.3520575341582298,1.5656395434379575,0.796473326279223,0.0774919539690017,-0.1877457499504089,-0.2112511992454528
1772650318737963000,2.231962890625,-0.0976934815108776,1.8765885298773648,0.2753271995685994,0.0050074844621121,-0.2783659100532532,-0.2509269416332245
1772650318747936000,2.24193603515625,-0.5655173294872046,2.0635461027279494,0.1906980745531618,-0.0124892182648181,-0.2987814247608185,-0.219152495265007
1772650318757909000,2.251908935546875,-0.7563578812509775,2.087543356648087,0.2295484680816531,-0.0270784683525562,-0.2849652767181396,-0.1811129599809646
1772650318767881000,2.261880859375,-0.7953706257343292,2.0844301930636164,-0.0048379415504634,-0.0700491070747375,-0.2354291528463363,-0.1804956346750259
1772650318777854000,2.27185400390625,-0.6892652897089719,2.0285244737073778,-0.2906849276982248,-0.1088182553648948,-0.161660835146904,-0.2162862867116928
1772650318787826200,2.281826171875,-0.5021300222039222,2.023963449402153,-0.4072029366664588,-0.1325574070215225,-0.0541436970233917,-0.2602904736995697
1772650318797799000,2.291798828125,-0.304825827383995,2.000558608417213,-0.5154249725848437,-0.1483271718025207,0.0773902088403701,-0.3002569675445556
1772650318807772000,2.30177197265625,-0.0718166974544525,1.904118926359713,-0.6545661706410348,-0.1597526669502258,0.2195737212896347,-0.3287200331687927
1772650318817744100,2.311744140625,0.1797626929104328,1.761309999576211,-0.5490507633328437,-0.1638833880424499,0.3043693304061889,-0.3154910206794739
1772650318827717000,2.321717041015625,0.4183218581825494,1.627456824925542,-0.215565681567043,-0.1543513983488083,0.3196984827518463,-0.26138436794281
1772650318837688800,2.331688720703125,0.6136907010257244,1.4838766215085983,0.0467994528368115,-0.1513852775096893,0.335814505815506,-0.184415265917778
1772650318847662000,2.341662109375,0.7720441106826067,1.2787418791934848,0.1016642848379909,-0.1485772430896759,0.3602407276630401,-0.1173541992902755
1772650318857634000,2.351634033203125,1.0682470711499452,1.0222419835612178,0.1296193364731967,-0.1258576214313507,0.3906383812427521,-0.0621506087481975
1772650318867606800,2.361606689453125,1.4341998596698045,0.6506389141947031,0.2417385259605944,-0.101732850074768,0.3791747987270355,-0.0654904767870903
1772650318877580000,2.371580078125,2.040563578808308,0.7115235910072922,-0.0516400247357785,-0.1047713235020637,0.3020127117633819,-0.127436414361
1772650318887552000,2.381552001953125,2.422648002439737,0.3889601546198129,0.1047888465993106,-0.0924755111336708,0.2538694143295288,-0.2282386571168899
1772650318897525000,2.39152490234375,2.673068870419264,-0.0820130972981453,0.4107387095771729,-0.0805020630359649,0.1802008002996444,-0.3531346023082733
1772650318907497000,2.4014970703125,2.7011493019998074,-0.424546139524877,0.5248131247855723,-0.0772210508584976,0.0779098570346832,-0.4909766316413879
1772650318917470000,2.411469970703125,2.7008950349777936,-0.5978749999955296,0.5317164744332432,-0.0957990139722824,0.0011950880289077,-0.6352071762084961
1772650318927443000,2.42144287109375,2.557903445103765,-0.7058002449244261,0.4475717719338834,-0.1150605902075767,0.0061685410328209,-0.7773557901382446
1772650318937415000,2.431414794921875,2.2504952000111342,-0.8539917415291071,0.3808078278243541,-0.116529107093811,0.0362233072519302,-0.9166263341903688
1772650318947388000,2.441387939453125,1.9288509242951868,-0.985538100542128,0.4167480329945683,-0.0981748700141906,0.0423693507909774,-1.0447648763656616
1772650318957360000,2.451360107421875,1.6467384485006331,-1.072792605625093,0.5388701455801725,-0.067760981619358,0.0520339645445346,-1.1502948999404907
1772650318967333000,2.4613330078125,1.3528349971473217,-1.1111486397653818,0.6697583329454064,-0.0323942080140113,0.0838518142700195,-1.2248886823654177
1772650318977305900,2.471305908203125,1.1050590907186268,-1.0649234796851872,0.7796157149806618,0.021394595503807,0.0901210084557533,-1.2608528137207031
1772650318987278000,2.481278076171875,0.8534253398180007,-0.9573968786850572,0.9337252034574748,0.105387233197689,0.0409859530627727,-1.24166738986969
1772650318997251000,2.4912509765625,0.4237216713994741,-0.9760895964562892,1.1129153571769594,0.2117996513843536,-0.0100560691207647,-1.1314067840576172
1772650319007222800,2.501222900390625,-0.0482481903403997,-1.2137629188045858,1.2289841610729693,0.3109118640422821,-0.0311453752219676,-0.9672659039497375
1772650319017196000,2.511196044921875,-0.2043587895065546,-0.8206196332812309,0.8992474720552563,0.3729492127895355,-0.1663238108158111,-0.7881402969360352
1772650319027169000,2.5211689453125,-0.6150105514526367,-0.8068699248701333,0.7082140280678868,0.4357984662055969,-0.1591119766235351,-0.5937049984931946
1772650319037141000,2.53114111328125,-0.9458107780486344,-1.1142430986493823,0.6374003701761365,0.4781896770000458,-0.0399889610707759,-0.4064449369907379
1772650319047114000,2.541114013671875,-1.2929717723369598,-1.73199388872087,0.5007384217150509,0.4922855198383331,0.1678835451602935,-0.2763346135616302
1772650319057086000,2.5510859375,-1.0146721328288315,-1.5783777367189529,0.0926927506141364,0.4591306746006012,0.0765566602349281,-0.2125076353549957
1772650319067059000,2.561058837890625,-0.9610632922381164,-1.5086454443231223,-0.1525154972836375,0.4584728479385376,0.0479218214750289,-0.1139634847640991
1772650319077032200,2.5710322265625,-1.0608183824539184,-1.873049249835312,0.3729161977916955,0.467172235250473,0.0873989015817642,0.0492728091776371
1772650319087004000,2.58100390625,-1.0511562356173991,-1.4542901692792771,0.1320798813678324,0.4118474423885345,-0.0235987287014722,0.2122958153486251
1772650319096977000,2.590976806640625,-1.1661778685480355,-1.1822408223375678,0.0286870191715657,0.3750289976596832,-0.0413278490304946,0.3778038620948791
1772650319106949000,2.60094921875,-0.9747837745547294,-1.3853461046516895,0.4778521977767348,0.3620996177196502,-0.01750960201025,0.5206137299537659
1772650319116921900,2.610921875,-0.7737772180855274,-1.4818892470836638,0.8008142780929803,0.3513096570968628,-0.0135790910571813,0.6263346076011658
1772650319126894000,2.62089404296875,-0.6152887838721275,-1.572116045975685,0.9759763453401624,0.3122956752777099,-0.0436722785234451,0.6660599112510681
1772650319136867000,2.6308671875,-0.232241652688384,-0.9705532973781228,0.4331294050835073,0.2576695680618286,-0.0915162041783332,0.6486976742744446
1772650319146840000,2.640840087890625,-0.0221013571709394,-0.8306076510712503,0.6046326575621962,0.2687078416347503,-0.0272397492080926,0.5885542035102844
1772650319156812000,2.65081201171875,0.195588623073697,-1.0013485408753156,1.0347000447265804,0.3092539310455322,0.0314295627176761,0.4979243576526642
1772650319166785000,2.660784912109375,0.2924222728848457,-1.0303960639223455,1.128812452880293,0.3266299962997436,0.0157808288931846,0.3704127371311188
1772650319176757000,2.670757080078125,0.3344686859756708,-0.9788608147352932,1.1046139772996306,0.3050111830234527,-0.0240659937262535,0.2608526349067688
1772650319186730000,2.68072998046875,0.1861257982015609,-0.9978887558102608,0.95517218837291,0.2579153180122375,-0.0469036661088466,0.1994654387235641
1772650319196703000,2.690702880859375,-0.1380424430340528,-1.0210139030709862,0.7722118684649467,0.1917357146739959,-0.0612803697586059,0.1803992241621017
1772650319206675000,2.700675048828125,-0.4793582184255123,-1.0275985421583056,0.7307226508654654,0.1346356719732284,-0.0926465466618537,0.1886467784643173
1772650319216648200,2.710648193359375,-0.6519681169718503,-0.9814116682618856,0.7771253594696521,0.0980554819107055,-0.1394501626491546,0.2076102793216705
1772650319226620000,2.720619873046875,-0.8002583977758884,-0.894100756816566,0.8151426631748676,0.0768178328871727,-0.1705172657966613,0.2337968796491623
1772650319236593000,2.730593017578125,-1.0253227061808108,-0.824731744775176,0.8658630888476967,0.081223078072071,-0.1618698835372924,0.289362370967865
1772650319246566100,2.740566162109375,-1.2112737323373557,-0.7915709411904215,1.0572051603928208,0.1004716083407402,-0.1220503002405166,0.3553203642368316
1772650319256537900,2.750537841796875,-1.2155179457783698,-0.7788707418322562,1.224282120861858,0.1211158260703086,-0.1081919521093368,0.4160684049129486
1772650319266510800,2.7605107421875,-1.0791583412647248,-0.734922294512391,1.4114106663651764,0.1446094214916229,-0.1347434073686599,0.4499400556087494
1772650319276483000,2.770483154296875,-0.8666764510571956,-0.7289294838383793,1.5642840371757745,0.1716455519199371,-0.1926308274269104,0.4510961771011352
1772650319286456000,2.7804560546875,-0.6055062255263328,-0.7870300828903913,1.4933805090434848,0.1753838211297989,-0.3009527623653412,0.398849219083786
1772650319296428800,2.7904287109375,-0.3562988249897956,-0.8697346695840358,1.229423137012124,0.1494344770908355,-0.4331668615341186,0.2764868438243866
1772650319306401000,2.800401123046875,-0.2588783152014017,-0.9192159088507296,0.8373548603091389,0.1032036021351814,-0.5388637185096741,0.1004638820886612
1772650319316374000,2.8103740234375,-0.5620084445834159,-0.9735308518841862,0.31692981441468,0.0429516360163688,-0.5496412515640259,-0.0666966214776039
1772650319326346000,2.820345947265625,-1.1352093143105506,-0.9549366260513664,-0.2389140431243926,-0.025684418156743,-0.4618626534938812,-0.1681950092315673
1772650319336319000,2.830319091796875,-1.763611262255907,-0.8153422774001956,-0.7763116319339722,-0.1161298230290412,-0.3094089031219482,-0.18425153195858
1772650319346291000,2.840291015625,-2.213517760747671,-0.5200538014292717,-1.2955062592506408,-0.2031581997871399,-0.1592969000339508,-0.1180940866470336
1772650319356264000,2.850263916015625,-2.4485335543245075,-0.171302615340054,-1.445154822795838,-0.2653445303440094,-0.0516988709568977,0.0141503773629665
1772650319366237000,2.86023681640625,-2.5221102471888064,0.1162263325452804,-1.2498913400232792,-0.2817727923393249,0.0181438606232404,0.2107590436935424
1772650319376209000,2.870208984375,-2.3853864855378863,0.3602554536610841,-0.9025555736899376,-0.2682782411575317,0.0511016361415386,0.441288560628891
1772650319386182100,2.88018212890625,-2.012909848207235,0.6623407501652836,-0.5322052808634936,-0.2436077743768692,0.0248266216367483,0.6759218573570251
1772650319396153900,2.89015380859375,-1.584837580382824,0.8818483012259006,-0.2518233551885933,-0.2175267040729522,-0.0254299826920032,0.8987534046173096
1772650319406127000,2.900127197265625,-1.2213467980623245,1.0476619637608529,-0.0097043054778128,-0.1766828596591949,-0.0587772876024246,1.083553433418274
1772650319416100000,2.91010009765625,-0.8274725679159164,1.223585516899824,0.2249081679951399,-0.1253529191017151,-0.0719832479953765,1.2288732528686523
1772650319426071800,2.92007177734375,-0.3567711186766624,1.3943369280979037,0.3061274115018546,-0.0644994154572486,-0.108563631772995,1.3156189918518066
1772650319436045000,2.930045166015625,0.0914572174698114,1.5314040963590143,0.3262246623087674,-0.0012036529369652,-0.1572672873735427,1.3530555963516235
1772650319446017000,2.94001708984375,0.4575111282765865,1.5799448399052023,0.3273405876614153,0.0512536950409412,-0.1874070763587951,1.3420058488845823
1772650319455990000,2.949989990234375,0.8011217366069555,1.5346587142407893,0.3222193721901625,0.0797801464796066,-0.2411331534385681,1.2713465690612793
1772650319465963000,2.959962890625,0.9572989712685346,1.405175717498362,0.3267373610712588,0.1069704890251159,-0.3351914584636688,1.1438978910446167
1772650319475935000,2.96993505859375,0.9695599024266004,1.0394885941773653,0.2676579801149666,0.1389169692993164,-0.4709451198577881,0.9694656133651732
1772650319485908000,2.979907958984375,0.9702081372022628,0.805561180359125,-0.0768118753932416,0.1270627081394195,-0.5844283103942871,0.7974240779876709
1772650319495880000,2.9898798828125,0.7681248914122581,0.756043408474326,-0.6493778082177043,0.0640864446759224,-0.6117731928825378,0.6355829834938049
1772650319505853000,2.99985302734375,0.5690379048287868,0.7289192547053098,-1.1963843523718416,-0.0482499487698078,-0.6244764924049377,0.4797065556049347
1772650319515826000,3.009825927734375,0.3638251288414001,0.6459872889965772,-1.8288059112221,-0.2127070426940918,-0.6015766263008118,0.2886247038841247
1772650319525798100,3.019798095703125,0.271009482499957,0.4779360766679048,-2.392425882655382,-0.3900663554668426,-0.5594510436058044,0.0507162883877754
1772650319535771000,3.02977099609375,0.3707862000256776,0.3252262258559465,-2.726584772029519,-0.555502712726593,-0.4755221307277679,-0.2433057725429535
1772650319545743000,3.0397431640625,0.666883362030983,0.2094417918592691,-2.8569349069952965,-0.7011232972145081,-0.3128341436386108,-0.5460134744644165
1772650319555716000,3.049716064453125,0.8961825315266847,0.2133545813888311,-2.746446825841069,-0.8175215721130371,-0.0815743580460548,-0.7793436050415039
1772650319565687800,3.059687744140625,0.7510387320548295,0.3115744248613715,-2.280097872722894,-0.8855927586555481,0.1640479117631912,-0.8931087851524353
1772650319575661000,3.0696611328125,0.5802250692754983,0.4476046512901783,-1.605726200763136,-0.8912938833236694,0.3362109959125519,-0.8959066271781921
1772650319585634000,3.079634033203125,0.639835196107626,0.5829129931852222,-0.969697338135913,-0.8265630602836609,0.4663508832454681,-0.8548409342765808
1772650319595606000,3.08960595703125,0.9572609773457048,0.4317831050410866,-0.097383465713635,-0.5711701512336731,0.6511034369468689,-0.8254041075706482
1772650319605579300,3.099579345703125,1.4448364044964312,-0.4322311410695314,1.3825184800103305,-0.3347642719745636,0.586082398891449,-0.8878554701805115
1772650319615551500,3.109551513671875,2.073500802770257,0.043327685073018,1.0551157138329,-0.2281684726476669,0.3634082973003387,-1.0303961038589478
1772650319625524500,3.1195244140625,2.600599846535921,0.3252317788138985,0.4670256102707236,-0.1557629853487014,0.2559478878974914,-1.1325175762176514
1772650319635497500,3.12949755859375,2.3796230997055767,0.0934232568457722,0.6252416572835297,-0.091458573937416,0.249907448887825,-1.133250713348389
1772650319645469400,3.139469482421875,1.8417057248055932,-0.1056406411230564,0.3753563574854284,-0.0684512555599212,0.3163586556911468,-1.027353286743164
1772650319655442400,3.1494423828125,1.313204997548461,-0.1999859812498092,-0.0025013152964413,-0.0813485532999038,0.4043217599391937,-0.8842135667800903
1772650319665414700,3.15941455078125,0.911674699690938,-0.3298649915724992,-0.2718745748966932,-0.1072014570236206,0.3779293000698089,-0.7000716924667358
1772650319675387400,3.169387451171875,0.4181260433495044,-0.4787652209684252,-0.4438702870674431,-0.1184947714209556,0.3114965260028839,-0.5113824009895325
1772650319685360400,3.1793603515625,0.2952303160429,-0.7215750294223428,-0.3145183693587779,-0.118075855076313,0.2447529435157776,-0.3475185930728912
1772650319695332600,3.18933251953125,0.4725222349256276,-0.817094674025476,-0.2377868657253682,-0.1432489454746246,0.1549422740936279,-0.2327127754688263
1772650319705305600,3.1993056640625,0.6734183167576789,-0.6979372564643621,-0.3261221517823636,-0.1946879029273986,0.0379022099077701,-0.1414851248264312
1772650319715277300,3.20927734375,0.6982341935843229,-0.5008987268432975,-0.4313071580924093,-0.2540392875671386,-0.0696729645133018,-0.0480582825839519
1772650319725250600,3.21925048828125,0.5223591557621956,-0.3139794401764869,-0.5313135927207767,-0.2953625023365021,-0.1478564441204071,0.0699724853038787
1772650319735223600,3.2292236328125,0.3119090636432171,-0.1017424646407365,-0.4948164843201637,-0.3146860003471374,-0.195368081331253,0.20634426176548
1772650319745195300,3.2391953125,0.1820259616672992,0.1101949434265494,-0.4229840047746896,-0.3107624053955078,-0.2046049982309341,0.328968197107315
1772650319755168500,3.24916845703125,0.023361001843214,0.3320540260493755,-0.3665329264953732,-0.28305783867836,-0.1656000316143036,0.4426457285881042
1772650319765140500,3.259140380859375,-0.2263824052661657,0.5682186974003911,-0.3356001742236316,-0.2060893028974533,-0.0326435677707195,0.5519671440124512
1772650319775113500,3.269113525390625,-0.3281237008631229,0.8283607489272952,-0.2685302329048514,-0.0719666555523872,0.1741711199283599,0.6315866112709045
1772650319785085400,3.27908544921875,-0.2845014167577028,1.179778816138208,-0.1724101381905377,0.1096902266144752,0.4293925166130066,0.6701582670211792
1772650319795058400,3.289058349609375,-0.065856912267208,1.4866910944074392,-0.0587006107717752,0.3165665566921234,0.6979669332504272,0.6709645390510559
1772650319805031400,3.299031494140625,0.204596689915657,1.546384807869792,0.0520613188877701,0.5048227310180664,0.9376700520515442,0.6357410550117493
1772650319815003400,3.30900341796875,0.4574544296532869,1.2793544581338765,0.0042918519750237,0.6301305890083313,1.104767680168152,0.5632238388061523
1772650319824976400,3.318976318359375,0.7050456271648406,0.7394856569051742,-0.0929180838026106,0.6580111980438232,1.084115743637085,0.473134696483612
1772650319834948600,3.328948486328125,0.5191910471200942,0.0043450434669852,-0.1759282293140888,0.600721538066864,0.8528056740760803,0.424832135438919
1772650319844921600,3.338921630859375,-0.0756716193169355,-0.7551791928604245,-0.2375740997575223,0.5188442468643188,0.579155445098877,0.4531119763851166
1772650319854894300,3.348894287109375,-0.282070974740386,-1.2518749150559303,-0.1618938587427139,0.4239240884780884,0.4294209480285644,0.5298284888267517
1772650319864866600,3.358866455078125,-0.2308487370252609,-1.2560007628142833,-0.2657553613640367,0.3098454475402832,0.3969556987285614,0.5912364721298218
1772650319874839600,3.368839599609375,0.0639525399506092,-0.914768866313994,-0.4520956790991127,0.2108740657567978,0.3705492913722992,0.5972976684570312
1772650319884811500,3.3788115234375,0.5383399842262268,-0.6297612535998225,-0.4290348292462527,0.1613254100084304,0.3078603446483612,0.5051592588424683
1772650319894784500,3.388784423828125,1.0323884067833422,-0.515293747420609,-0.1495467106059193,0.1726926565170288,0.2589927613735199,0.3279228210449219
1772650319904757500,3.398757568359375,1.2890075448811054,-0.5168997213125228,0.2484733871735632,0.2463098764419555,0.2484375834465026,0.1188002154231071
1772650319914729500,3.4087294921875,1.375772220620513,-0.4873199910849332,0.6172388950265943,0.3524041175842285,0.3053866028785705,-0.1011810600757598
1772650319924702500,3.418702392578125,1.4027134190380572,-0.430624290394783,0.7882302524603902,0.4681869149208069,0.4029358029365539,-0.330557256937027
1772650319934674400,3.42867431640625,1.4580501063346862,-0.3727423025295138,0.7784555851601064,0.5703033208847046,0.5055773258209229,-0.5810604095458984
1772650319944647400,3.4386474609375,1.579406202983856,-0.3622337679967284,0.6183719907097518,0.6334292888641357,0.5831432342529297,-0.867795467376709
1772650319954620700,3.44862060546875,1.6090537377506493,-0.4115285447806119,0.5737145183376967,0.7084355354309082,0.6809485554695129,-1.1676695346832275
1772650319964592400,3.45859228515625,1.4085995544672012,-0.5118485754027963,0.4897606622353196,0.7362642884254456,0.5674001574516296,-1.4273167848587036
1772650319974565600,3.468565673828125,0.3806529295235872,-0.4060726174622774,-0.0698817838691174,0.7121626138687134,0.4818439483642578,-1.5211483240127563
1772650319984537600,3.47853759765625,-0.7821434798926115,-0.276684897787869,-0.1880256404735147,0.7188748717308044,0.6614723205566406,-1.403544545173645
1772650319994510300,3.48851025390625,-1.594949224552512,-0.2220329778850078,-0.0359779068320989,0.7603479623794556,0.9006263017654419,-1.1495643854141235
1772650320004482600,3.498482666015625,-1.943752140828967,-0.0656561289981007,0.0837346603937447,0.8456692099571228,1.0321049690246582,-0.8178996443748474
1772650320014455600,3.50845556640625,-1.8391110321372743,0.0070841130420565,0.5738515887208283,0.9754279255867004,1.0462666749954224,-0.4214017689228058
1772650320024428500,3.518428466796875,-1.6999515677720307,-0.0071729603692889,1.2334138140834867,1.1081193685531616,1.0166853666305542,0.007136533036828
1772650320034400500,3.528400390625,-1.3669026854664086,0.0197188459485769,1.7208843195550143,1.205525517463684,0.9038923382759094,0.4062066972255707
1772650320044373500,3.53837353515625,-0.9532534952700138,0.0441983304277062,1.9516105992443855,1.2579889297485352,0.6813274621963501,0.7056658267974854
1772650320054345700,3.548345703125,-0.4178980798125267,-0.0639721214339137,2.015774589988589,1.2129491567611694,0.4285038113594055,0.8221720457077026
1772650320064318500,3.558318359375,0.418192094323039,-0.3996995752990245,1.7870402147687972,1.0989782810211182,0.1542906016111374,0.6842445135116577
1772650320074291500,3.56829150390625,1.1598498345702886,-0.5012973707720637,1.3970540781021117,0.9512991309165956,-0.0963646918535232,0.3484036326408386
1772650320084263700,3.578263671875,1.376965814319253,-0.5792892497301101,0.6192598794601857,0.7514198422431946,-0.2836773097515106,-0.1150354221463203
1772650320094236400,3.588236328125,1.056268464064598,-0.4865817399382591,-0.1949522248663008,0.5576040148735046,-0.3638272285461426,-0.5021807551383972
1772650320104208400,3.59820849609375,0.0394108038902282,-0.1317611708074808,-0.6770937904000282,0.3986497819423675,-0.3132524490356445,-0.678746223449707
1772650320114181600,3.608181640625,-1.1268319465875625,0.3281856601834297,-0.8787506274715066,0.2960259914398193,-0.1914798319339752,-0.6643659472465515
1772650320124154600,3.618154541015625,-1.8491028493195767,0.8602227448731661,-0.766482092641294,0.2699184715747833,-0.0644222721457481,-0.5561286807060242
1772650320134126300,3.628126220703125,-2.1084774236053225,1.241825522467494,-0.3398324049659073,0.3250378668308258,0.0451873615384101,-0.4251176118850708
1772650320144099600,3.638099609375,-1.987567317157984,1.4032196149945255,0.1703070284314453,0.4481320977210998,0.11243936419487,-0.301856130361557
1772650320154071600,3.648071533203125,-1.7255349218398333,1.498118497350812,0.6516853545077145,0.681978702545166,0.1166074126958847,-0.1423036903142929
1772650320164044300,3.658044189453125,-1.4430343235105276,1.5104466485261916,1.068411614061892,0.8975533246994019,0.1248485594987869,0.0437002666294574
1772650320174016500,3.6680166015625,-1.0559902316451073,1.3341834881693124,1.1737955039449035,1.031872034072876,0.0723766684532165,0.2303652018308639
1772650320183989500,3.677989501953125,-0.6322481019794941,1.0875532446444034,1.0628336677990853,1.0726407766342163,-0.0244934223592281,0.4012847542762756
1772650320193962500,3.68796240234375,-0.2190121687591076,0.7398267254278064,0.9352902608171104,1.0406522750854492,-0.1346389204263687,0.5112537741661072
1772650320203934500,3.6979345703125,0.2774702029466629,0.3207525875732303,0.866812790787965,0.9520397782325744,-0.2278823107481002,0.5133107900619507
1772650320213907500,3.707907470703125,0.8675316065818071,0.0090679803356528,0.8085681070901453,0.849054217338562,-0.2952359914779663,0.384156584739685
1772650320223879700,3.717879638671875,1.253262862282991,-0.142333418226242,0.8548340375721454,0.7703943252563477,-0.3286613225936889,0.1764675825834274
1772650320233852400,3.727852294921875,1.2678005062013864,-0.2262093867868184,0.9530869065314532,0.7095890045166016,-0.3539867103099823,-0.0515379197895526
1772650320243825400,3.737825439453125,0.8579951319515705,-0.3135445558905601,0.904571443556994,0.6389792561531067,-0.3261633515357971,-0.2565776109695434
1772650320253797600,3.747797607421875,0.2891314146459102,-0.2786889310866594,0.6582417904138564,0.5385736227035522,-0.2668050825595855,-0.4087963998317718
1772650320263770600,3.7577705078125,-0.244440624526143,-0.1988034934669733,0.2699145268701017,0.4130777716636657,-0.2028236985206604,-0.5176032781600952
1772650320273742300,3.767742431640625,-0.7903004828631878,-0.1827539836809039,-0.0447559643104672,0.268396258354187,-0.1677989214658737,-0.5794486403465271
1772650320283715600,3.777715576171875,-1.3551274919986724,-0.1532099092885852,-0.1926489163599908,0.1255578696727752,-0.1478209495544433,-0.5875824689865112
1772650320293688600,3.7876884765625,-1.8049404669880864,-0.0240352478429675,-0.2102962167315185,0.0049657588824629,-0.1239946410059928,-0.535336434841156
1772650320303660300,3.797660400390625,-1.9786767392158504,0.2187999873131513,-0.1553235404416918,-0.0922702476382255,-0.1069565340876579,-0.4465357661247253
1772650320313633500,3.807633544921875,-1.993471572765708,0.4074441980764269,-0.121182493647933,-0.1669314950704574,-0.0509118400514125,-0.3152068853378296
1772650320323605500,3.81760546875,-1.863987699240446,0.5430751960545778,-0.1346466631159186,-0.2338324934244156,0.0367224030196666,-0.1587594747543335
1772650320333578500,3.82757861328125,-1.4918319644272326,0.6497001720398664,-0.2222159332364797,-0.295703649520874,0.1043490245938301,-0.0126338694244623
1772650320343550500,3.837550537109375,-0.9372235669672488,0.7238242696538567,-0.334674291550368,-0.3567904233932495,0.1108673736453056,0.1030647680163383
1772650320353523500,3.8475234375,-0.3225456084698438,0.8029244021147489,-0.4410110982440411,-0.4091143012046814,0.0529756024479866,0.1873329877853393
1772650320363496400,3.857496337890625,0.1286427465260028,0.85998221411556,-0.5714696620203554,-0.4527643024921417,-0.0447770543396472,0.2535724937915802
1772650320373468400,3.867468505859375,0.3019739450842142,0.8282394606351852,-0.6487870027177035,-0.5117335319519043,-0.0919282436370849,0.3325267136096954
1772650320383441400,3.87744140625,0.3889835354954004,0.8575497262716293,-0.7198124036639928,-0.5778446793556213,-0.1042469590902328,0.4308924376964569
1772650320393413600,3.88741357421875,0.4378273536413907,0.8377902560517191,-0.6972539503753185,-0.6137514114379883,-0.1393316090106964,0.5197581052780151
1772650320403386600,3.89738671875,0.5015928465873003,0.719562228295207,-0.4266540715895593,-0.6156260371208191,-0.1909958720207214,0.5973554253578186
1772650320413359400,3.907359375,0.5525426971018313,0.7181301496654748,-0.208320240483433,-0.5997198224067688,-0.2511077523231506,0.6580541729927063
1772650320423331600,3.91733154296875,0.6667465839087963,0.8096931655973195,-0.0544105123624205,-0.5744423866271973,-0.3389632999897003,0.6916584968566895
1772650320433304600,3.9273046875,0.8724538654148578,0.8851268845051526,-0.0121675537861883,-0.5398821234703064,-0.4044472873210907,0.6996370553970337
1772650320443276300,3.9372763671875,1.1357844838500022,0.9934975351139902,0.018184622118622,-0.4918312430381775,-0.4403887689113617,0.6841345429420471
1772650320453249500,3.94724951171875,1.3318038995563983,0.955933235873282,-0.0357496510341763,-0.4425486028194427,-0.4648346304893493,0.6485454440116882
1772650320463222500,3.957222412109375,1.3931149850875135,0.7910743898451328,-0.2552592479214072,-0.4010088741779327,-0.4638311564922333,0.5881292223930359
1772650320473194500,3.967194580078125,1.4364327332884073,0.6628022301971912,-0.27676220080778,-0.3502169549465179,-0.4561187326908111,0.5262748599052429
1772650320483167500,3.97716748046875,1.474244285288453,0.6589414631158113,-0.0781741036571562,-0.2472410500049591,-0.5324588418006897,0.4596457183361053
1772650320493139500,3.987139404296875,1.642087407824397,0.7449526901394128,0.1795380903743207,-0.1801120787858963,-0.4636968374252319,0.3236421346664428
1772650320503112400,3.997112548828125,1.6455577142834663,0.5500511725470424,0.2897476468481123,-0.1339640170335769,-0.3993452787399292,0.1860821545124054
1772650320513085700,4.007085693359375,1.6600953582018614,0.4672545236557722,0.307393924306333,-0.1161601394414901,-0.339273065328598,0.0724423974752426
1772650320523057400,4.017057373046875,1.4973147797524928,0.3699845282539725,0.3331344416972249,-0.1157819703221321,-0.3255508542060852,0.0006337179802358
1772650320533030400,4.027030517578125,1.168715278071165,0.2931327592417597,0.2747184200204908,-0.141798660159111,-0.3242248892784118,-0.0119380000978708
1772650320543002600,4.037002685546875,0.7972662302225828,0.1766039366185665,0.1968537476386875,-0.1847938001155853,-0.3227564096450805,0.0068205073475837
1772650320552975400,4.046975341796875,0.5581219585388899,0.151181033809483,0.0885427182625979,-0.2232217639684677,-0.3333727121353149,0.0136155486106872
1772650320562947600,4.056947509765625,0.4536696504175663,0.1600377094820141,0.0743340140376239,-0.2318788915872573,-0.3397307395935058,0.0216894522309303
1772650320572920600,4.066920654296875,0.2816770069867372,0.2005988524511456,0.1734228223644197,-0.2097198516130447,-0.3087425529956817,0.0471186153590679
1772650320582893300,4.076893310546875,0.0647018970131874,0.2050114081963896,0.3052460986226797,-0.1724829971790313,-0.2806480526924133,0.0721278265118599
1772650320592865500,4.086865478515625,0.0122749596834182,0.2697641586139798,0.3794686881750821,-0.1206042766571044,-0.2680316567420959,0.0671826153993606
1772650320602838500,4.096838623046875,0.1190858136296272,0.3131444506570696,0.3660420011732727,-0.0638813376426696,-0.2563257217407226,0.0350739434361457
1772650320612810500,4.106810546875,0.2375888589352369,0.2452417117759585,0.3607678601626307,-0.0248323902487754,-0.2450550943613052,-0.00890623498708
1772650320622783700,4.11678369140625,0.3083136694997548,0.1004693759649991,0.2822434086978435,-0.0168847199529409,-0.2458905279636383,-0.0652294233441352
1772650320632756500,4.126756591796875,0.2258849771380424,-0.0785550657987594,0.1956160956025123,-0.0411236695945262,-0.2622130811214447,-0.1163149699568748
1772650320642728400,4.136728515625,-0.0569523057997226,-0.1951592917457222,0.2033269622407853,-0.0645144805312156,-0.2847181260585785,-0.1183613464236259
1772650320652701700,4.14670166015625,-0.3985042280346155,-0.1607692386269569,0.1711210482280701,-0.0836552679538726,-0.3014739751815796,-0.0655495673418045
1772650320662673400,4.15667333984375,-0.671433864942193,-0.0817515237525105,0.1206625614270567,-0.1042114049196243,-0.2867173850536346,0.0131108863279223
1772650320672646400,4.166646484375,-0.7834206602215766,-0.0372118325412273,0.0756748341873288,-0.1231370866298675,-0.2565329074859619,0.0870277285575866
1772650320682618600,4.17661865234375,-0.7766483896076679,-0.0438110846757888,0.0943788040049374,-0.1426503360271453,-0.2275995165109634,0.1109040379524231
1772650320692591600,4.186591552734375,-0.6068436116099357,-0.0743403707131743,0.1428895177390426,-0.161543995141983,-0.2014416456222534,0.0614895187318325
1772650320702564400,4.196564453125,-0.463442856413126,-0.140908646120131,0.230813446516171,-0.1873108744621276,-0.1615538895130157,-0.0432994775474071
1772650320712536600,4.20653662109375,-0.5045779998779296,-0.3039537207245826,0.325228125552088,-0.2099557965993881,-0.1117943376302719,-0.1710917502641677
1772650320722509600,4.216509521484375,-0.6372597926616669,-0.4166770135849714,0.4702045325677841,-0.2083941251039505,-0.0592267364263534,-0.2661716639995575
1772650320732481500,4.2264814453125,-0.8088070304125546,-0.4383841107413172,0.6845047242436557,-0.1885891109704971,-0.0153111098334193,-0.3142472505569458
1772650320742454500,4.23645458984375,-0.9760276371359824,-0.402059874689579,0.909402955366671,-0.1534673422574997,0.0381827428936958,-0.309604287147522
1772650320752427500,4.246427490234375,-1.0977081434339284,-0.4694041029050946,1.128588654061779,-0.1148132234811782,0.0818921849131584,-0.250012069940567
1772650320762399700,4.256399658203125,-1.0251046795159575,-0.5663552416160702,1.2676796563006936,-0.0982009544968605,0.08415187895298,-0.1727266013622284
1772650320772372500,4.26637255859375,-0.797819772452116,-0.6352595587551594,1.222347572602704,-0.1213805377483367,0.0355497933924198,-0.1092855408787727
1772650320782344700,4.2763447265625,-0.4985018948346376,-0.6727396868437528,0.9107075351592152,-0.1874652802944183,-0.007718049455434,-0.0865642502903938
1772650320792317700,4.286317626953125,-0.1893359924197196,-0.7604179702967405,0.6004292145229876,-0.2764376103878021,-0.0231473669409751,-0.10237468034029
1772650320802290700,4.296290771484375,0.0734644646614789,-0.7614794620484113,0.4395177909463644,-0.3782220482826233,-0.0234003663063049,-0.1423995941877365
1772650320812262700,4.3062626953125,0.2147667862743139,-0.6243617326438426,0.3133027099587023,-0.4681746959686279,-0.0119922086596488,-0.1818027049303054
1772650320822235600,4.316235595703125,0.2235971584618091,-0.3804775729566812,0.1926386872269213,-0.5274789929389954,0.0336437188088893,-0.2026784271001815
1772650320832207600,4.32620751953125,0.256313433149457,-0.0108490185335278,0.143482296000421,-0.5585885643959045,0.0999028757214546,-0.2037974447011947
1772650320842180600,4.3361806640625,0.3535433888018131,0.3955082610890269,0.1680033545989543,-0.5757592916488647,0.150239810347557,-0.2047750800848007
1772650320852153600,4.346153564453125,0.4096943150907755,0.7686676199868321,0.0425992246679961,-0.5711901187896729,0.1897262334823608,-0.1953166723251342
1772650320862125600,4.35612548828125,0.4133791410833597,0.9378411143437028,-0.0778317930255085,-0.5317907929420471,0.2430917173624038,-0.1323534250259399
1772650320872098600,4.3660986328125,0.405437242168188,0.7127160156622528,-0.0755384944565594,-0.4845064878463745,0.2887259423732757,-0.0562759563326835
1772650320882070500,4.376070556640625,0.5884966385364532,0.9307719066098332,-0.130170832876116,-0.4522047340869903,0.167736679315567,0.0140661168843507
1772650320892043500,4.38604345703125,0.5879705688357353,1.133789218379557,-0.2251885193064808,-0.4182065725326538,0.0132061624899506,0.108789749443531
1772650320902015700,4.396015625,0.5101636910557746,1.1359484422400594,0.0048724283419549,-0.3671388626098633,-0.0983917340636253,0.2370656877756118
1772650320911988500,4.405988525390625,0.4137222554326057,1.12949415153414,0.0603932400338351,-0.3039275407791137,-0.1430584341287613,0.3647741079330444
1772650320921961500,4.41596142578125,0.3280792771995067,1.0306687433838844,0.0753683985866606,-0.2435541898012161,-0.1612414419651031,0.4689785242080688
1772650320931933700,4.42593359375,0.4184703267425298,1.034087611916661,0.0576306434527039,-0.2112993150949478,-0.1973830014467239,0.5038103461265564
1772650320941906700,4.43590673828125,0.346948812842369,0.9032774582237004,0.015336831472069,-0.1937280446290969,-0.1921427100896835,0.4973308742046356
1772650320951878700,4.445878662109375,0.0646340924739837,0.5644841870471835,0.1394112471692264,-0.1828937083482742,-0.0937478691339492,0.4746451675891876
1772650320961851600,4.4558515625,-0.0500263059288263,0.3100815559551119,0.2277424415729939,-0.1886996626853943,0.0295351855456829,0.3958624899387359
1772650320971824600,4.46582470703125,0.1231137539714574,0.263348154091835,0.198329300083965,-0.1972610503435135,0.1125197187066078,0.2688081264495849
1772650320981796600,4.475796630859375,0.2889145570248365,0.2917275686189532,0.2572890001833439,-0.1760156750679016,0.1237497329711914,0.1393071264028549
1772650320991769600,4.48576953125,0.2259410912394523,0.3041001434579491,0.4000102486833929,-0.1292546838521957,0.0453794710338115,0.0443342961370945
1772650321001741600,4.495741455078125,-0.0110527244120836,0.2677414206147194,0.4862010700576007,-0.0903618708252906,-0.1434450447559356,-0.0207981020212173
1772650321011714600,4.505714599609375,-0.2502425888031721,0.2104480462923645,0.2835910239145159,-0.0988884046673774,-0.3536122739315033,-0.0821855813264846
1772650321021687600,4.5156875,-0.4646452179402112,0.0868359874099493,-0.1512557064808905,-0.152036041021347,-0.5314065217971802,-0.1660186946392059
1772650321031659500,4.525659423828125,-0.6561579698771238,-0.1222755495816469,-0.5646176041685045,-0.2338271588087082,-0.6469587683677673,-0.2873927652835846
1772650321041632800,4.5356328125,-0.8664303673416376,-0.2386351531177759,-0.9164811501245944,-0.3303760588169098,-0.6714321970939636,-0.4312428832054138
1772650321051604500,4.5456044921875,-1.1038625744104384,-0.1645914272636175,-1.1024942086666822,-0.4112651944160461,-0.6481199264526367,-0.5602602362632751
1772650321061577500,4.555577392578125,-1.4499690912097691,0.0394356460705399,-0.9961511183626948,-0.4632072448730469,-0.5719993114471436,-0.6417742967605591
1772650321071549700,4.5655498046875,-1.9605080453187227,0.1976090229853987,-0.7208565789546817,-0.4610710144042969,-0.4300033748149872,-0.6450662612915039
1772650321081522400,4.5755224609375,-2.3888088612020013,0.4102934500277042,-0.3295515417091548,-0.4102807939052582,-0.2427799552679062,-0.5638763308525085
1772650321091495400,4.585495361328125,-2.543475106778741,0.6333870428815483,0.0126616209134459,-0.3108250200748443,-0.0651688054203987,-0.4201042652130127
1772650321101467600,4.595467529296875,-2.341373740810156,0.8217156118243932,0.300987564395368,-0.1832044720649719,0.0511000119149684,-0.2473205029964447
1772650321111440600,4.605440673828125,-1.9562112249076364,0.9178945971190928,0.500597405809164,-0.0510138608515262,0.0922149121761322,-0.0651751980185508
1772650321121412600,4.61541259765625,-1.4465800332933665,0.9098162123426794,0.5781571038950234,0.0521921552717685,0.075826346874237,0.1180255115032196
1772650321131385600,4.625385498046875,-0.8744242887049913,0.7976607824981212,0.5945109303899109,0.1231355741620063,0.0309185832738876,0.3023534119129181
1772650321141358600,4.635358642578125,-0.3195271374315023,0.6810057031467557,0.6505878415945917,0.1713004559278488,-0.0453282482922077,0.4725286066532135
1772650321151330600,4.64533056640625,0.2946031240552663,0.6397483946070075,0.7302010381441563,0.2074354588985443,-0.1514613479375839,0.5845974683761597
1772650321161303600,4.655303466796875,0.8945581451952457,0.5980237608164548,0.7600110699962824,0.2441974580287933,-0.2646470367908478,0.6299138069152832
1772650321171275500,4.665275634765625,1.3098556871205569,0.4593322062239051,0.7430019944630563,0.2840625643730163,-0.3369230329990387,0.6140888333320618
1772650321181248800,4.675248779296875,1.4564824186265468,0.305196998783946,0.576775878669694,0.3049830198287964,-0.3413625359535217,0.5795204639434814
1772650321191221500,4.685221435546875,1.3879624246299267,0.1767296088248491,0.2510738519955426,0.287884384393692,-0.2805001735687256,0.5363181829452515
1772650321201193500,4.695193359375,1.268599547624588,0.1639884929344058,0.0012645400431007,0.2664419412612915,-0.1928121447563171,0.5006049275398254
1772650321211166700,4.705166748046875,1.1559610104382037,0.2362108485803007,-0.0653591918781399,0.2445017695426941,-0.1155546531081199,0.4699098467826843
1772650321221138400,4.715138427734375,1.1269617104470728,0.305689458476007,-0.0224344615828245,0.2374150902032852,-0.0543275102972984,0.4290758669376373
1772650321231111400,4.725111328125,1.210603285729885,0.3152387925878167,0.1036181223195046,0.2380008399486541,-0.0147188929840922,0.3712523281574249
1772650321241084700,4.735084716796875,1.2937433412313462,0.2954202856570482,0.1572482979591935,0.2426211535930633,0.0235424749553203,0.3104845881462097
1772650321251056600,4.745056640625,1.3395827168643475,0.2537257547438145,0.1373346600908786,0.23991359770298,0.0805102437734603,0.2484248578548431
1772650321261029400,4.755029296875,1.4045838890850544,0.2393900631383061,0.0986595500640571,0.2235575318336486,0.1403773128986358,0.1696520149707794
1772650321271001600,4.765001708984375,1.504196355959773,0.209501705352962,0.0389700743854045,0.1925982385873794,0.1956390887498855,0.0675752013921737
1772650321280974600,4.774974609375,1.4560054487645626,0.1433940331950783,0.0172467567466199,0.1708564609289169,0.2253072410821914,-0.0304099526256322
1772650321290946600,4.784946533203125,1.2790601513624191,0.1005111692801117,-0.0036711627934128,0.1621411144733429,0.273205816745758,-0.1069054827094078
1772650321300919600,4.79491943359375,1.1863427046984434,0.1500643047392368,0.011228592435643,0.1674658358097076,0.3390609920024872,-0.1834023892879486
1772650321310892500,4.804892578125,1.207992810970545,0.2028586140766739,0.0208983380567282,0.1952127069234848,0.4029340445995331,-0.2662637233734131
1772650321320864800,4.81486474609375,1.2914841641277075,0.1425169580996036,0.0772838768191635,0.2362496256828308,0.4601770937442779,-0.3692231178283691
1772650321330837500,4.82483740234375,1.3207903381109236,0.0481482370972633,0.1511805954180657,0.2850527167320251,0.5017998814582825,-0.458421528339386
1772650321340809500,4.8348095703125,1.236329263138771,-0.049758302642405,0.1541816769301891,0.3271650075912475,0.526043176651001,-0.5296368598937988
1772650321350782700,4.84478271484375,1.133877188923955,-0.1697831506878137,0.1308385760698467,0.3602168262004852,0.5285705924034119,-0.5676301717758179
1772650321360755700,4.854755615234375,0.9738567228376864,-0.2878305611804127,0.15082301415205,0.3896386325359344,0.496371328830719,-0.5663281679153442
1772650321370727400,4.8647275390625,0.6984089656293392,-0.38128187507689,0.158021328158304,0.4268221855163574,0.4423146247863769,-0.5295222997665405
1772650321380700700,4.87470068359375,0.4610919093728065,-0.4677534130886197,0.1807555764053016,0.4733814597129822,0.4028484523296356,-0.471325546503067
1772650321390672600,4.884672607421875,0.2456961775451898,-0.5703504487320781,0.0638541941426694,0.5154592990875244,0.38263139128685,-0.3949783444404602
1772650321400645400,4.894645263671875,0.0429097519218921,-0.6945376771539449,-0.1203828677028417,0.5479580760002136,0.3815568089485168,-0.3115902543067932
1772650321410618600,4.90461865234375,-0.0322352131724357,-0.8397612638637423,-0.2766067910503595,0.5629845857620239,0.3757446706295013,-0.2344807982444763
1772650321420590600,4.914590576171875,0.0101098906040191,-1.0072253239542246,-0.4873647800747305,0.5613096952438354,0.3790461719036102,-0.1754393130540847
1772650321430563600,4.9245634765625,0.0428863710463047,-1.2063994042992592,-0.7009860495757311,0.5373556613922119,0.3740380704402923,-0.1328292191028595
1772650321440535600,4.93453564453125,0.0428302569448947,-1.411628839160502,-0.9260419554784892,0.4866333305835724,0.3787545263767242,-0.1137889400124549
1772650321450508500,4.944508544921875,0.0600479337275028,-1.5367065866813063,-1.1571179984536022,0.4167302250862121,0.4023714065551758,-0.1008474379777908
1772650321460480800,4.954480712890625,0.1165980884671211,-1.6158514350667594,-1.2535349572226404,0.3445045053958893,0.4301244616508484,-0.0953506752848625
1772650321470453500,4.96445361328125,0.1341062726289033,-1.6650260926023124,-1.174486701079458,0.2789874076843261,0.442863255739212,-0.0810993164777755
1772650321480426500,4.974426513671875,0.1400157889336347,-1.6505810954034328,-0.979465429564938,0.2310001701116562,0.4317996799945831,-0.0607993640005588
1772650321490398700,4.984398681640625,0.1967734489440918,-1.5957126101404429,-0.7563659184269607,0.2054981738328933,0.3950633406639099,-0.0452714711427688
1772650321500371500,4.994371337890625,0.2019400379270315,-1.5666314770847558,-0.5143137964725494,0.1950010508298874,0.3389183282852173,-0.0267153643071651
1772650321510343400,5.004343505859375,0.0826747760772705,-1.5359744730144738,-0.3191951289981603,0.1963813304901123,0.2941368520259857,-0.0074593545868992
1772650321520316700,5.014316650390625,-0.0495721324205398,-1.506288652063906,-0.2552342596106231,0.2026826292276382,0.2674232125282287,0.0106834303587675
1772650321530289700,5.02428955078125,-0.2010503956109285,-1.446034382109344,-0.1976180830746889,0.2080678641796112,0.2588982284069061,0.0173450894653797
1772650321540261600,5.03426171875,-0.3959866922557353,-1.4551985162958505,-0.1145261044986546,0.219175100326538,0.2541689872741699,0.0141508961096405
1772650321550234600,5.044234619140625,-0.5845335801243782,-1.4113479763925074,0.0284764451608061,0.2417225837707519,0.2461743652820587,-0.0018574331188574
1772650321560206600,5.05420654296875,-0.7408131061166524,-1.3991203629821538,0.183622875469923,0.2784518301486969,0.2649059593677521,-0.0171109549701213
1772650321570179600,5.0641796875,-1.072790559798479,-1.4597361597254872,0.3747881291434168,0.3464660346508026,0.341385543346405,0.0272654220461845
1772650321580152600,5.074152587890625,-1.3681184909969568,-1.5372680199563502,0.6831072054706514,0.4362896680831909,0.4147423207759857,0.1281843185424804
1772650321590124500,5.08412451171875,-1.3347370303988455,-1.5575664193585514,0.9880993293322622,0.5319190621376038,0.4092555642127991,0.2564523816108703
1772650321600097500,5.09409765625,-1.0056184732794762,-1.673212613928318,1.2375576358899474,0.6214324235916138,0.3168862164020538,0.3504896759986877
1772650321610068700,5.10406884765625,-0.4648141447663307,-1.8859753669038413,1.3631291582770644,0.6662585735321045,0.134029746055603,0.3579354882240295
1772650321620041700,5.114041748046875,0.1206809738665819,-2.137226548227668,1.2960809903986752,0.6663557887077332,-0.1408936977386474,0.2604531347751617
1772650321630013700,5.124013671875,0.4181687134474515,-2.3185934614643453,1.1218266856461765,0.6179748773574829,-0.4016286432743072,0.0904901623725891
1772650321639986700,5.133986572265625,0.3296732683926821,-2.283573293748498,0.7454248376958071,0.5413405299186707,-0.5530056953430176,-0.0720819756388664
1772650321649959700,5.143959716796875,-0.0759586195647716,-1.8903411608979104,0.2681451791100204,0.4660885632038116,-0.6127394437789917,-0.15718974173069
1772650321659931600,5.153931640625,-0.7889297790318727,-1.3099676230624318,-0.3044294484775513,0.4094772040843963,-0.5679519772529602,-0.1143538579344749
1772650321669904600,5.163904541015625,-1.5557114391416311,-0.775484314264357,-0.7224295273598283,0.3778287172317505,-0.4783495962619781,0.0696105882525444
1772650321679876900,5.173876953125,-2.029036807143688,-0.270026608942449,-0.7424109697673469,0.3726318478584289,-0.4234836995601654,0.3681086301803589
1772650321689849600,5.183849609375,-2.073265240448713,0.2185571184679865,-0.698441479659453,0.3703068792819977,-0.4390093386173248,0.6585051417350769
1772650321699822600,5.193822509765625,-1.6211276219040154,0.537455602607131,-0.676792542431131,0.3478037118911743,-0.5334330201148987,0.7888367772102356
1772650321709794800,5.203794921875,-1.0380483322411775,0.5904547868669032,-0.5933676786389201,0.3323642015457153,-0.6120209097862244,0.7390108108520508
1772650321719767800,5.213767822265625,-0.7742623712539672,0.4151023116141557,-0.6070858228679746,0.3050343096256256,-0.5562024116516113,0.5366337299346924
1772650321729739800,5.22373974609375,-0.8717313963592052,0.2520721423178911,-0.6951126274976879,0.2489434331655502,-0.3460473120212555,0.2581330239772796
1772650321739712800,5.233712646484375,-1.2660673987984656,0.2864157259464264,-0.7442901345774531,0.1820975542068481,-0.0053467182442545,-0.0146995829418301
1772650321749685800,5.243685791015625,-1.8575602965414524,0.4371528153806924,-0.7455944951742887,0.1430366486310959,0.4123832881450653,-0.2087398022413253
1772650321759657700,5.25365771484375,-2.3470938720226284,0.6945134194955229,-0.4723326306376606,0.1540064811706543,0.7862138748168945,-0.273074597120285
1772650321769630700,5.263630615234375,-2.607850256055593,1.0766285305261611,0.0720774672824889,0.2313464283943176,1.013696312904358,-0.1892466843128204
1772650321779602700,5.273602783203125,-2.642756149742007,1.4318193942740558,0.7470347571104764,0.3373906016349792,1.0984420776367188,-0.0069466517306864
1772650321789576000,5.283575927734375,-2.34582312143445,1.6319675803482532,1.3362103178218006,0.4444835782051086,1.054426908493042,0.2161369174718856
1772650321799547600,5.293547607421875,-1.8989356785029168,1.7373218057453632,1.7143796138361096,0.5595294833183289,0.877551257610321,0.4489991664886474
1772650321809520600,5.303520751953125,-1.5826175662457942,1.7489023534238337,1.938004244826734,0.671023428440094,0.6418529748916626,0.681826651096344
1772650321819494000,5.313493896484375,-1.1832108364135026,1.7265853076756,1.9117124502286316,0.7429589033126831,0.415967583656311,0.8733462691307068
1772650321829464600,5.323464599609375,-0.743012661987543,1.7754565983504056,1.66577661870867,0.7544587254524231,0.1689006984233856,0.9918707609176636
1772650321839436800,5.333436767578125,-0.3368020973592996,1.7301462150275706,1.3257716336548329,0.7128058075904846,-0.0567856840789318,1.0212358236312866
1772650321849409500,5.343409423828125,-0.0807885239392519,1.518484409031272,1.0324935476582495,0.6234606504440308,-0.2107882797718048,0.9452900886535645
1772650321859381800,5.3533818359375,0.044724692389369,1.285598613220453,0.731874524314329,0.5053294897079468,-0.2469366937875747,0.8000980019569397
1772650321869354800,5.363354736328125,0.0509217934638261,1.2228425895780324,0.3382843718063086,0.3786033689975738,-0.176198810338974,0.6012670397758484
1772650321879326500,5.373326416015625,-0.047844870236516,1.2891624431818722,-0.1248738955117762,0.2532025575637817,-0.0218364130705595,0.3738741278648376
1772650321889299700,5.3832998046875,-0.104837508046627,1.358457513204217,-0.547349512372911,0.1392265558242797,0.1701291054487228,0.145682081580162
1772650321899272700,5.393272705078125,-0.181735454288125,1.451705705744028,-0.7362243900869041,0.0337659083306789,0.3417607843875885,-0.0493065826594829
1772650321909244700,5.40324462890625,-0.2500660631924867,1.5715356157392262,-0.7631861198358237,-0.0528459958732128,0.4525864422321319,-0.1826122999191284
1772650321919217700,5.4132177734375,-0.3863853356957435,1.693716472774744,-0.542899912552908,-0.1070463806390762,0.5234349966049194,-0.2311801016330719
1772650321929189600,5.423189697265625,-0.580852261263132,1.834967940983176,-0.1973811325136572,-0.128576323390007,0.5547319054603577,-0.1871387958526611
1772650321939162600,5.43316259765625,-0.6163333244889975,1.999670427405834,0.1494735723044723,-0.1109483242034912,0.5357984304428101,-0.084361545741558
1772650321949136000,5.443135986328125,-0.5062181683003902,2.116207725596428,0.3983804555244744,-0.0683093294501304,0.4910630583763122,0.034062772989273
1772650321959107600,5.453107666015625,-0.2124813056856393,2.1081196962088344,0.5535990742869675,-0.018507957458496,0.4228416681289673,0.1342833936214447
1772650321969080600,5.46308056640625,0.1801566606640815,2.0673422801405192,0.6395613476023078,0.0351017117500305,0.3341746926307678,0.205553650856018
1772650321979052800,5.473052734375,0.6080477267026901,2.004411484453082,0.6585417232085019,0.0910384804010391,0.2168302237987518,0.2376308888196945
1772650321989025500,5.483025634765625,0.9496364738166332,1.8929834921002384,0.6455475093398243,0.1398131698369979,0.0907066389918327,0.2484509497880935
1772650321998997800,5.492997802734375,1.0716372981101274,1.7115432213664057,0.5768181834414601,0.1738473027944564,0.0105481576174497,0.2617641091346741
1772650322008970800,5.502970703125,1.020728948649764,1.5022838003367185,0.4101294916376471,0.1781224757432937,0.0064924997277557,0.2846248745918274
1772650322018943700,5.51294384765625,0.879346547538042,1.303504856789112,0.1570457611244171,0.1557127684354782,0.0737210735678672,0.3067102134227752
1772650322028915700,5.522915771484375,0.8426654608726502,1.1392805092722176,-0.0240258954927325,0.1198013722896575,0.1457592546939849,0.3146646022796631
1772650322038888700,5.532888671875,0.9229606483370064,1.046219948258996,-0.0988230700626969,0.0970092415809631,0.1846235543489456,0.3036614954471588
1772650322048860700,5.542860595703125,1.1026742414087056,0.9729583126932382,-0.004987871415168,0.0863754600286483,0.1736541837453842,0.2821500301361084
1772650322058833700,5.552833740234375,1.2891034064710138,0.8981886106520891,0.1680276122573763,0.0882191658020019,0.1127793788909912,0.2545048296451568
1772650322068806700,5.562806640625,1.4719658189624547,0.7892968587785959,0.3206660052683204,0.0885594934225082,0.0183229688555002,0.1984679996967315
1772650322078778600,5.572778564453125,1.6402672066599129,0.6503595127314329,0.3830037304334342,0.0754519402980804,-0.0953010618686676,0.1149717792868614
1772650322088751900,5.582751953125,1.7246727520525456,0.5364151536434889,0.3590605447880923,0.0616531074047088,-0.1950139850378036,0.0272700525820255
1772650322098723600,5.5927236328125,1.6533809552550316,0.4788467617720365,0.3277889890160411,0.0503360033035278,-0.2540850341320038,-0.0562346912920475
1772650322108696600,5.602696533203125,1.5428554646998642,0.4580225849300622,0.2106567206069827,0.0302777700126171,-0.2940877377986908,-0.1351102739572525
1772650322118669800,5.612669921875,1.3549720091760158,0.3915589389413595,0.0118230511974543,0.0038616079837083,-0.3151040971279144,-0.2110985070466995
1772650322128641500,5.6226416015625,1.0520511386305094,0.2361439208239316,-0.1651869820039719,-0.0316064581274986,-0.2954566776752472,-0.2614432871341705
1772650322138614500,5.632614501953125,0.7411620656847954,0.0933925694465637,-0.3392074780005961,-0.0794930234551429,-0.2377609014511108,-0.2726085782051086
1772650322148586800,5.642586669921875,0.5036030173659324,0.0376776964873075,-0.4276722356561571,-0.1290071159601211,-0.1849614083766937,-0.260466068983078
1772650322158559700,5.652559814453125,0.3926227687805891,0.03205927208364,-0.3673977266311645,-0.1659329086542129,-0.1585306078195572,-0.2203077375888824
1772650322168533800,5.66253369140625,0.3605325170367956,0.017579495832324,-0.1967746910531073,-0.1859661936759948,-0.1787357181310653,-0.172246515750885
1772650322178506500,5.672506591796875,0.3481289625376462,-0.0156949972599744,0.0150645173367112,-0.1907428354024887,-0.2274707704782486,-0.117684468626976
1772650322188478700,5.682478759765625,0.4204834201306104,-0.0487409422934055,0.2392833148282021,-0.1775755882263183,-0.2915046811103821,-0.059047382324934
1772650322198451700,5.69245166015625,0.5174684611111879,-0.0488414800584316,0.4017600149601698,-0.1513367891311645,-0.3715824782848358,-0.0109237944707274
1772650322208424700,5.7024248046875,0.5720809257864952,-0.0636865824908018,0.4427486626263707,-0.1282237470149994,-0.4380933046340942,0.0296433381736278
1772650322218396700,5.712396728515625,0.5095470204621553,-0.1487187353491783,0.4123315317265689,-0.1042494475841522,-0.4785059988498688,0.0654625818133354
1772650322228369700,5.72236962890625,0.4017418947815895,-0.2544230893582105,0.3567334900800138,-0.0855585932731628,-0.4677320420742035,0.0974039062857627
1772650322238342000,5.732341796875,0.3698930505782365,-0.3910808000355958,0.355594037721306,-0.0794407799839973,-0.4418453276157379,0.1165797337889671
1772650322248314600,5.742314697265625,0.4430623316854238,-0.4905447983503341,0.3729030460491776,-0.0812395513057708,-0.4152877628803253,0.1052778586745262
1772650322258287600,5.75228759765625,0.5976695405513048,-0.5893091239631175,0.4042741897381842,-0.0896407589316368,-0.3824477791786194,0.0607551261782646
1772650322268259800,5.762259765625,0.6934229939103126,-0.6950497183293104,0.4186361848287284,-0.0998411253094673,-0.3452452719211578,-0.0079206516966223
1772650322278232800,5.77223291015625,0.7127689148932695,-0.7943167327672243,0.4043202939022332,-0.1242676377296447,-0.3064339756965637,-0.0758443027734756
1772650322288204500,5.78220458984375,0.6083318043410778,-0.8656172973930836,0.3708668640464544,-0.1581538021564483,-0.266681045293808,-0.1363124400377273
1772650322298177800,5.792177734375,0.4774941781193018,-0.8524526953935623,0.4159484801147133,-0.1841686367988586,-0.2434564232826233,-0.158656358718872
1772650322308149800,5.802149658203125,0.3375327497214078,-0.7957166626930237,0.5415579233594239,-0.1906425058841705,-0.2420329600572586,-0.1610715836286544
1772650322318122800,5.812122802734375,0.2512999889016151,-0.7429939572870731,0.6449303272895515,-0.1920337527990341,-0.2576667666435241,-0.1562211662530899
1772650322328095700,5.822095703125,0.2543126147210597,-0.6630494829565287,0.7476374722439796,-0.1929547190666198,-0.2764527797698974,-0.1538738757371902
1772650322338067700,5.832067626953125,0.3013379852682352,-0.6515232958137989,0.7852526979543268,-0.2028510123491287,-0.2871027588844299,-0.1693939864635467
1772650322348040700,5.842040771484375,0.3358399743288755,-0.670445438426733,0.8497429249782115,-0.2169310301542282,-0.2832570672035217,-0.1887679696083068
1772650322358012700,5.8520126953125,0.3841553846865892,-0.6764747817188501,1.053082089113444,-0.2474284917116165,-0.2759291231632232,-0.2111419737339019
1772650322367985700,5.861985595703125,0.4224819004714488,-0.6759101335734129,1.2419938647717237,-0.2932880818843841,-0.3061512112617492,-0.2443259358406067
1772650322377958700,5.871958740234375,0.416657139840722,-0.5497808311730623,1.390027832727134,-0.3321329653263092,-0.349237710237503,-0.2892806529998779
1772650322387930600,5.8819306640625,0.4039244995176791,-0.3962269307523965,1.4888048716910185,-0.349909096956253,-0.3519732356071472,-0.3531174063682556
1772650322397903600,5.891903564453125,0.4778407995998859,-0.2839361840903759,1.534129429669678,-0.3502425253391266,-0.3464834094047546,-0.4537287056446075
1772650322407875800,5.901875732421875,0.6078314536035061,-0.1491992123425006,1.4757256098873912,-0.3404206037521362,-0.376455545425415,-0.6002481579780579
1772650322417848600,5.9118486328125,0.6307388664603233,-0.0474421346545219,1.2617498278602957,-0.3384605050086975,-0.397565096616745,-0.7521761655807495
1772650322427821600,5.921821533203125,0.5704594620645046,0.1000549499452114,0.9938643225997684,-0.3522939085960388,-0.3908880949020386,-0.9191493988037108
1772650322437793800,5.931793701171875,0.3760562493830919,0.2901303625553846,0.6429968750089406,-0.372933954000473,-0.3715580701828003,-1.07741379737854
1772650322447766800,5.941766845703125,0.088169866362214,0.4664525596231222,0.2354165198648348,-0.3948476016521454,-0.3387815356254577,-1.212114691734314
1772650322457738800,5.95173876953125,-0.3133341280102729,0.5803086559057236,-0.0464981318026781,-0.3964031338691711,-0.2841763496398926,-1.2858760356903076
1772650322467711700,5.961711669921875,-0.7865975366920233,0.677151950328052,-0.2261642324708402,-0.3852020800113678,-0.2022055685520172,-1.281790852546692
1772650322477683700,5.97168359375,-1.2487749032139777,0.7804168022304773,-0.2994249181885272,-0.3587086796760559,-0.1200537011027336,-1.2069687843322754
1772650322487656700,5.98165673828125,-1.59099902562201,0.8014812175691127,-0.3131307509252801,-0.3181625008583069,-0.0302009657025337,-1.0588923692703247
1772650322497629700,5.991629638671875,-1.7776649220496414,0.7473968684211373,-0.2746748731397092,-0.272343635559082,0.0662422180175781,-0.882964551448822
1772650322507601700,6.0016015625,-1.7745166871517897,0.6872504427552223,-0.2138673897491768,-0.2402095794677734,0.1331223994493484,-0.7025899887084961
1772650322517575000,6.011574951171875,-1.5736264505386353,0.5993845277756452,-0.1097448615714907,-0.208636999130249,0.1820188462734222,-0.533747136592865
1772650322527546600,6.021546630859375,-1.3275251993238926,0.5722624198332429,0.1201367109220474,-0.1583077013492584,0.1877125650644302,-0.3542936742305755
1772650322537519600,6.03151953125,-1.204419044137001,0.5777481577679514,0.3121719523631036,-0.0956088975071907,0.15732242166996,-0.1567201465368271
1772650322547492900,6.041492919921875,-1.115413311472535,0.6121753280267119,0.4185645808972418,-0.036092959344387,0.1238885447382927,0.0472254827618598
1772650322557464600,6.051464599609375,-1.0765496200710534,0.625562340605259,0.447995842564851,0.0130133349448442,0.0969599857926368,0.2441406697034835
1772650322567437600,6.0614375,-1.0128928481966255,0.5991317220583557,0.3745778473936021,0.0493675395846366,0.0871079415082931,0.4112862348556518
1772650322577409800,6.071409912109375,-0.8878729683429002,0.4474433232486248,0.3048790919411927,0.0868366137146949,0.0807533711194992,0.527222752571106
1772650322587382800,6.0813828125,-0.7420961316645145,0.3018815906256437,0.2539331138841807,0.1171795651316642,0.0669336840510368,0.603256106376648
1772650322597355500,6.09135546875,-0.4383773887395858,0.1914610217496752,0.20492212247774,0.1455331742763519,0.0322092659771442,0.624915361404419
1772650322607327700,6.10132763671875,-0.0879728824853897,0.0870838246911764,0.0907227657154202,0.1590457409620285,-0.0164034217596054,0.5857900977134705
1772650322617301000,6.111301025390625,0.2634638894259929,-0.0193128954961895,-0.1940635323982685,0.1532187461853027,-0.0884816125035286,0.4729721844196319
1772650322627273000,6.12127294921875,0.5792845735549926,-0.1006701592341065,-0.6498474715560675,0.1091305762529373,-0.1697330027818679,0.272465705871582
1772650322637246000,6.131245849609375,0.8371019815266132,-0.2145908451855182,-1.1768921547859907,0.026898555457592,-0.2492387592792511,-0.0030968836508691
1772650322647218000,6.141218017578125,0.8084417042315005,-0.3746548581525683,-1.715668046211451,-0.0797493979334831,-0.2774965167045593,-0.2977473735809326
1772650322657191000,6.15119091796875,0.5385071574866771,-0.4633656995236873,-2.0762501014783976,-0.2094669193029403,-0.2298642694950103,-0.5550870299339294
1772650322667164200,6.1611640625,0.0894715966105461,-0.404437709736824,-2.215175026435405,-0.351090133190155,-0.116354301571846,-0.7339982390403748
1772650322677136000,6.171135986328125,-0.3796066353410482,-0.1788198591023683,-2.16533708268553,-0.4692005217075348,0.0130478981882333,-0.8230820298194885
1772650322687109000,6.181109130859375,-0.8107558263927698,0.1039221467673778,-1.7907849542550742,-0.5324227213859558,0.1362377107143402,-0.8040856122970581
1772650322697081000,6.1910810546875,-1.0750836391717196,0.4108312101662159,-1.1540205438949167,-0.5083820819854736,0.2325514703989029,-0.6868849992752075
1772650322707053800,6.2010537109375,-1.178495498329401,0.6905787103950977,-0.4440905056893825,-0.4152447581291199,0.2758848071098327,-0.4964510798454284
1772650322717027000,6.211027099609375,-1.0329156455278397,0.95433281493932,0.1089651093706488,-0.2867696285247803,0.2693555355072021,-0.2889144122600555
1772650322726999000,6.2209990234375,-0.6949006652474403,1.1102458457067608,0.4331231945384293,-0.1544904857873916,0.2157157808542251,-0.1123660132288932
1772650322736972000,6.230971923828125,-0.2506587683886289,1.0879258773490783,0.6135892864778637,-0.0350141488015651,0.1385544240474701,0.0144238835200667
1772650322746944000,6.240944091796875,0.1413257024884223,0.9604925066128372,0.6600735358856618,0.0629896447062492,0.0737299621105194,0.087067149579525
1772650322756917000,6.2509169921875,0.4731909279674291,0.7926473382502793,0.5366532001830637,0.1379437744617462,0.0478381775319576,0.1267623603343963
1772650322766890000,6.260889892578125,0.6624310587972402,0.7021645187705755,0.3392261096358299,0.1921570897102356,0.0623574368655681,0.1640122234821319
1772650322776862000,6.270862060546875,0.7610001540988683,0.6569038198083639,0.1574867098249495,0.2326206266880035,0.0953103229403495,0.194432184100151
1772650322786835000,6.2808349609375,0.8629548001855611,0.5795645595401525,0.0078526131965219,0.2603923976421356,0.1296339482069015,0.2022590190172195
1772650322796807200,6.29080712890625,0.984488006967306,0.427541521948576,-0.1155699144631624,0.2693033218383789,0.1609308868646621,0.1858789771795272
1772650322806780200,6.3007802734375,1.0470879632651806,0.1952782419502735,-0.2567119309477508,0.2564955651760101,0.1860095262527465,0.1478540003299713
1772650322816751900,6.310751953125,1.0865846918731927,0.0340673970356583,-0.3094271836996078,0.2338581681251526,0.1983700543642044,0.1119963899254798
1772650322826725000,6.32072509765625,1.1835820078134536,-0.0088794720262289,-0.3085407562538981,0.2136057764291763,0.2051098197698593,0.0713622197508812
1772650322836698000,6.330697998046875,1.306106563720107,-0.0151145670235157,-0.2337250231139361,0.2042466402053833,0.1959128677845001,0.0273351036012172
1772650322846669800,6.340669921875,1.388493170505762,-0.036606267863512,-0.1362727299477905,0.2058679163455963,0.1672868132591247,-0.0306638348847627
1772650322856643000,6.35064306640625,1.394098150905967,-0.1409574536979198,-0.0585245235525071,0.2081236094236374,0.1300297230482101,-0.0920425057411193
1772650322866615000,6.360614990234375,1.331789286509156,-0.2544610832810401,-0.0956805342532694,0.2054839432239532,0.1062441542744636,-0.158476784825325
1772650322876588000,6.370588134765625,1.250210488975048,-0.3678726506665349,-0.2034417477268725,0.1821224242448806,0.0986818447709083,-0.2230794727802276
1772650322886561000,6.38056103515625,1.1637597014904022,-0.4462658039018511,-0.3176638277776539,0.1440428346395492,0.0934280008077621,-0.2857115268707275
1772650322896533000,6.390532958984375,1.0423153420358895,-0.5112701909929513,-0.3212482621356844,0.1007637977600097,0.0926056206226348,-0.3459548950195312
1772650322906506000,6.400506103515625,0.8491378717571496,-0.5808280036047101,-0.2781784242812544,0.0751824676990509,0.1075714975595474,-0.3903936743736267
1772650322916478000,6.41047802734375,0.5679711523801088,-0.5708046222403645,-0.2575678171247244,0.0665295869112014,0.1417318731546402,-0.4147075414657593
1772650322926451000,6.420450927734375,0.3487421259999275,-0.4970210086271167,-0.254509890858829,0.0807502195239067,0.1736637502908706,-0.4257387220859527
1772650322936424000,6.430423828125,0.2296972289025783,-0.4527931598439812,-0.1716593198232352,0.1129374504089355,0.1972953081130981,-0.4232305586338043
1772650322946396000,6.44039599609375,0.1493430047273636,-0.4942947985336184,-0.0704787999141961,0.1514576822519302,0.1978632807731628,-0.4069487154483795
1772650322956369000,6.450368896484375,0.1322206050127744,-0.5515335200592875,0.0440519076943397,0.1904719173908233,0.1854920983314514,-0.3779799342155456
1772650322966341000,6.460341064453125,0.1054103394985199,-0.5799994438260794,0.0682682111926376,0.2195696681737899,0.169173389673233,-0.33272185921669
1772650322976314000,6.470314208984375,0.0659440060287714,-0.6446154161214828,-0.0220059339724481,0.2382229715585708,0.1515983939170837,-0.2747123539447784
1772650322986285800,6.480285888671875,0.038053544062376,-0.7017357719644903,-0.1508024828206747,0.2481642067432403,0.1638289988040924,-0.2096950262784958
1772650322996259000,6.490259033203125,0.0962725087970495,-0.7810755584001541,-0.3011784107923507,0.2400050908327102,0.1851912885904312,-0.1710882484912872
1772650323006232000,6.500232177734375,0.2066810949742794,-0.861871388863027,-0.4355013218466192,0.2219553291797638,0.199005588889122,-0.1455416083335876
1772650323016203800,6.510203857421875,0.3114016986429691,-0.941406405609846,-0.4718753883894532,0.2071848958730697,0.2082025557756424,-0.128496840596199
1772650323026177000,6.520177001953125,0.3786293147414922,-0.9953045845359564,-0.4460976077280938,0.1958052814006805,0.22365403175354,-0.1168341562151908
1772650323036149000,6.53014892578125,0.4846855509281158,-0.977530150653422,-0.3419892907388508,0.1890688091516494,0.2223546802997589,-0.1011665165424346
1772650323046122000,6.5401220703125,0.5990536883860826,-0.9679115506976842,-0.2286458932187408,0.183438554406166,0.189682126045227,-0.0865328758955001
1772650323056095000,6.550094970703125,0.6216694248199462,-0.9314429377391934,-0.1198966185558587,0.1818534433841705,0.1300787180662155,-0.0687815696001052
1772650323066067000,6.56006689453125,0.4839531450003385,-0.8936603195726871,0.0164662008281797,0.1808055788278579,0.0724024474620819,-0.0325694009661674
1772650323076040000,6.5700400390625,0.1671960568040609,-0.8486369364976882,0.0944585912428796,0.1876983642578125,0.0471450351178646,0.0260459762066602
1772650323086012000,6.580011962890625,-0.1741442685067653,-0.7369210671141744,0.0533551580905914,0.2073187083005905,0.067485474050045,0.100263625383377
1772650323095985000,6.58998486328125,-0.4162579113900661,-0.6197092306628823,0.0240970610328018,0.2369567602872848,0.0910129025578498,0.1573231816291809
1772650323105958000,6.5999580078125,-0.4864888009577989,-0.5287848048955202,0.034116496874392,0.2637044489383697,0.0967380926012992,0.1889098286628723
1772650323115930000,6.60993017578125,-0.5351940874159336,-0.5311901124715804,0.1015268491286784,0.2874212265014648,0.0876204967498779,0.2016812860965728
1772650323125902800,6.61990283203125,-0.6648848816901445,-0.5905377889752388,0.0970125135093927,0.3013584315776825,0.0880440175533294,0.2019075155258178
1772650323135875000,6.629875,-0.7528858212262391,-0.6476040765434503,-0.0124609107095748,0.3024889528751373,0.1260942071676254,0.1705171018838882
1772650323145848000,6.63984814453125,-0.8015151198387146,-0.6893333865091205,-0.0923812735121697,0.30210080742836,0.176451951265335,0.1276180148124694
1772650323155819800,6.64981982421875,-0.9094541010320186,-0.7204167992979288,-0.0837489081148058,0.3118346631526947,0.2213041186332702,0.1007991805672645
1772650323165793000,6.65979296875,-1.131474803957343,-0.7879641488701105,0.0440268463183194,0.3361824750900268,0.2873997986316681,0.1225242242217063
1772650323175766000,6.66976611328125,-1.3254033848643303,-0.8847051519617438,0.2964562776412814,0.3548227250576019,0.3289088904857635,0.1803310513496399
1772650323185738000,6.679738037109375,-1.2932839070260524,-0.9960594945564866,0.5291044653039425,0.3633772730827331,0.3044066131114959,0.2350233644247055
1772650323195711000,6.6897109375,-1.096177280604839,-1.1109379196241498,0.7429222802903502,0.3731574714183807,0.226095825433731,0.2649985551834106
1772650323205683000,6.699682861328125,-0.8173235143452883,-1.1911527353286742,0.8362175268422811,0.3808549046516418,0.1115443781018257,0.2374616712331771
1772650323215656000,6.709656005859375,-0.5246083959937096,-1.277344287355244,0.7540029886879026,0.3652402758598327,-0.0219447072595357,0.1384496092796325
1772650323225629200,6.719629150390625,-0.2589472887843847,-1.3411241010874508,0.5432096360892057,0.3199517726898193,-0.1555125266313552,-0.0380513221025466
1772650323235601000,6.729600830078125,-0.2526490654230117,-1.3416446178302168,0.2679980257242917,0.2683945596218109,-0.216107428073883,-0.240083247423172
1772650323245574000,6.739573974609375,-0.6541203265696763,-1.2172335175246,0.0441335215631872,0.2228247970342636,-0.1819450259208679,-0.3841675221920013
1772650323255546000,6.749546142578125,-1.245533144813776,-0.9112029905259608,-0.1894217710070312,0.1772810220718383,-0.1008033007383346,-0.4215766787528991
1772650323265518800,6.759518798828125,-1.8399866459280247,-0.521032291072607,-0.3884347425062209,0.149086132645607,-0.0024456451646983,-0.3353802263736725
1772650323275491800,6.769491943359375,-2.282500696080923,-0.1178568563565611,-0.4967201259844004,0.1459553241729736,0.1032941043376922,-0.169976070523262
1772650323285464000,6.779464111328125,-2.343842761272192,0.2376081481575965,-0.5053205618735402,0.1478670090436935,0.157625064253807,-0.0235246922820806
1772650323295437000,6.78943701171875,-1.9931834034740925,0.5696028452351689,-0.525678436378017,0.1577662378549575,0.1519317626953125,0.025557367131114
1772650323305409000,6.799408935546875,-1.7293208701193332,0.7586357630550861,-0.4996126325555145,0.1862964034080505,0.1806965470314026,0.0357997454702854
1772650323315382000,6.809382080078125,-1.7574340349256992,0.7995943809092044,-0.2938897150889039,0.2380038052797317,0.2857385575771332,0.085220031440258
1772650323325354000,6.81935400390625,-1.9454782339692116,0.9383540323019028,-0.0794557409655302,0.3084113299846649,0.4501144886016845,0.2065882533788681
1772650323335327000,6.829326904296875,-1.9751152473419904,1.2667799309819936,0.1103494764011353,0.4000917077064514,0.6201107501983643,0.3956572413444519
1772650323345300000,6.839300048828125,-1.6945476629018783,1.5007713499471544,0.3640023120392113,0.5077936053276062,0.748884916305542,0.6170295476913452
1772650323355272000,6.84927197265625,-1.0733359187215563,1.5213941589981317,0.7096831507723778,0.5923135280609131,0.7785237431526184,0.8155279755592346
1772650323365245200,6.8592451171875,-0.343826881429553,1.3803066491797569,0.9710131699748336,0.6449353694915771,0.6944395899772644,0.955973207950592
1772650323375217000,6.869216796875,0.4057867862582206,1.1810752856895328,1.1713990372624248,0.6709941029548645,0.5539365410804749,1.023140549659729
1772650323385190000,6.87918994140625,1.097678917339444,1.004348891735077,1.4396733226448295,0.6891090869903564,0.3748960793018341,1.0141198635101318
1772650323395163100,6.8891630859375,1.6065473078876733,0.7516264688149095,1.747142942535877,0.7044954895973206,0.1797540336847305,0.9366381764411926
1772650323405134800,6.899134765625,1.908601916992664,0.4273421999841928,1.9874334616452451,0.7097726464271545,-0.0142443170771002,0.7980265617370605
1772650323415107800,6.90910791015625,2.054871505624056,0.1509673910588026,2.038892430725693,0.6916559934616089,-0.1884488761425018,0.6034331321716309
1772650323425080000,6.919080078125,2.1266911256879566,-0.0525754058897495,1.9140974456690247,0.6383893489837646,-0.345502644777298,0.3648242354393005
1772650323435052800,6.929052734375,1.926038204962015,-0.1047787635967135,1.5144301652044057,0.5685580372810364,-0.4729857742786407,0.1158293187618255
1772650323445025000,6.93902490234375,1.482174493765831,-0.0388902871474623,0.9713003894183784,0.4843666553497314,-0.5498011112213135,-0.1281167715787887
1772650323454998000,6.948998046875,0.9249228883206844,0.0449386274009942,0.3737790251661091,0.364961177110672,-0.5993220806121826,-0.3725782036781311
1772650323464971000,6.958970947265625,0.2350777528971433,0.0643310178741812,-0.2792463457737117,0.216971606016159,-0.6151703596115112,-0.5870004892349243
1772650323474943000,6.96894287109375,-0.6453396387428045,0.058792380708456,-0.7639816541276871,0.0469151809811592,-0.5667476654052734,-0.7151089310646057
1772650323484916000,6.978916015625,-1.618081093814969,0.1648524162873625,-1.067639825971797,-0.1125531941652298,-0.454416424036026,-0.7096276879310608
1772650323494888200,6.98888818359375,-2.5048528229177,0.4209668197333812,-1.1202063909679651,-0.2346024066209793,-0.2817626297473907,-0.5645826458930969
1772650323504861000,6.99886083984375,-2.9548621972620484,0.7380912799373268,-0.9231668384335936,-0.3037988245487213,-0.1254133880138397,-0.3344825506210327
1772650323514834000,7.008833984375,-2.8815847796052694,1.0286202864214775,-0.5849193645715713,-0.3174898624420166,-0.0180541705340147,-0.0885321721434593
1772650323524806100,7.01880615234375,-2.3671230990946293,1.267165130907297,-0.1668172135543078,-0.2880526483058929,0.0258686672896146,0.1189057305455207
1772650323534779100,7.028779052734375,-1.6764081950992344,1.4739333196431397,0.260480635831505,-0.220888003706932,0.0471718274056911,0.2721706330776214
1772650323544750800,7.038750732421875,-1.0090332501590251,1.5283338951334355,0.5686022898904979,-0.138936161994934,0.0863456428050994,0.3725985288619995
1772650323554724000,7.04872412109375,-0.4034972140163183,1.505943784148991,0.7399595580272376,-0.0593510679900646,0.1310018002986908,0.412979245185852
1772650323564697000,7.058697021484375,0.1918359925419092,1.5034212799340485,0.7979756936661898,0.009812512435019,0.1862940788269043,0.4124531745910644
1772650323574668800,7.068668701171875,0.612917378565669,1.4498773212730884,0.6896463249158113,0.0627902448177337,0.2402736842632293,0.3918972909450531
1772650323584642000,7.07864208984375,0.9985533571988344,1.3650453671619296,0.5164081384032965,0.0920842885971069,0.2837096154689789,0.3520523905754089
1772650323594614000,7.088614013671875,1.3006447911828756,1.2973328901559114,0.2884293307911604,0.1040836870670318,0.3002470433712005,0.3088473975658417
1772650323604587000,7.0985869140625,1.5070879857480526,1.1232421054020525,0.171667210868746,0.1024862900376319,0.2863745093345642,0.2920409739017486
1772650323614559500,7.1085595703125,1.6338333742201328,0.9194333509936928,0.1725621138818562,0.0854801461100578,0.2281756252050399,0.2868736386299133
1772650323624532500,7.118532470703125,1.7193150244116782,0.7568485873773694,0.1917362584944814,0.0554116182029247,0.1297029554843902,0.2846148610115051
1772650323634505500,7.12850537109375,1.788816430661082,0.5997136135995388,0.2642871885076165,0.0177393406629562,0.0192169174551963,0.2809064090251922
1772650323644477400,7.1384775390625,1.7902385724186896,0.4977773799523711,0.2532457892071456,-0.0262061655521392,-0.0659447535872459,0.2552617192268371
1772650323654450400,7.148450439453125,1.7689853565096854,0.4162956130519509,0.2206420349832624,-0.0637127980589866,-0.1224900558590889,0.2061037719249725
1772650323664422400,7.15842236328125,1.7224024690330026,0.3767494923442602,0.1975100195903331,-0.095955953001976,-0.1449134051799774,0.1393042951822281
1772650323674395600,7.168395751953125,1.7037123816102742,0.3344742389336228,0.1909823713872581,-0.1231399029493331,-0.1520996838808059,0.0492865107953548
1772650323684368400,7.178368408203125,1.6388707838654517,0.291382992964983,0.1665983831718564,-0.143588975071907,-0.1517489403486251,-0.0493905320763587
1772650323694340400,7.18834033203125,1.47529467112422,0.2675032279446721,0.1612199780691414,-0.1528695672750473,-0.147367775440216,-0.1318561136722564
1772650323704313600,7.198313720703125,1.236888650587201,0.2401990414336323,0.1408862150926143,-0.1622126549482345,-0.1439583003520965,-0.1810434609651565
1772650323714285300,7.208285400390625,0.9417799150973558,0.2066582986205816,0.1196292728565633,-0.1668329834938049,-0.1438965201377868,-0.1938452869653701
1772650323724258300,7.21825830078125,0.6817658738642931,0.1422936707377433,0.1283320000763982,-0.186872586607933,-0.1547714322805404,-0.1793799847364425
1772650323734230500,7.22823046875,0.4512853856295347,0.1100461826056242,0.1735106467783451,-0.2033410370349884,-0.1735562980175018,-0.1559332460165023
1772650323744203300,7.238203369140625,0.2490752985894679,0.138478496363759,0.1474513457618653,-0.2114182561635971,-0.1856570094823837,-0.1183818578720092
1772650323754176300,7.24817626953125,0.1537777723044157,0.0981143372714519,0.1792613192595541,-0.2173184901475906,-0.1779684573411941,-0.0940735936164856
1772650323764148500,7.2581484375,0.1955956373363733,0.0160156075164675,0.2637334270823747,-0.216027945280075,-0.1647009998559951,-0.0888601616024971
1772650323774121500,7.26812158203125,0.2413257073760032,-0.0427121835231781,0.3639840457301587,-0.2032690048217773,-0.1733070164918899,-0.0849445164203643
1772650323784093400,7.278093505859375,0.271477684533596,-0.0872331700339913,0.4751324174240231,-0.1868050545454025,-0.197797030210495,-0.0700865015387535
1772650323794066400,7.28806640625,0.2273240700304508,-0.1059776179924607,0.5253620639052242,-0.1688178032636642,-0.2122982144355774,-0.0351602099835872
1772650323804039400,7.298039306640625,0.0861637872368097,-0.1285109368398785,0.5071043034851551,-0.1515951752662658,-0.2083743065595626,0.0175031851977109
1772650323814011400,7.308011474609375,-0.0285994870185852,-0.1810992022112011,0.4621360846634954,-0.1365728080272674,-0.1981890499591827,0.0846033915877342
1772650323823984400,7.317984375,-0.1115536645591259,-0.2593342422753572,0.3831652776706963,-0.1327943205833435,-0.1885431557893753,0.1439493298530578
1772650323833956600,7.32795654296875,-0.0498567945808172,-0.3497343519076705,0.3784527891308069,-0.141463965177536,-0.1733743250370025,0.1763128638267517
1772650323843929600,7.3379296875,0.092011928743124,-0.4386491914182901,0.4630255808491259,-0.1464545130729675,-0.1907675713300705,0.1846533715724945
1772650323853902300,7.34790234375,0.2441711599349975,-0.4829249709963798,0.598298997561261,-0.1406597346067428,-0.2306156605482101,0.1640940308570861
1772650323863874600,7.35787451171875,0.2923451159954071,-0.5100295432820916,0.7354465375822037,-0.1292124390602111,-0.2639419734477997,0.1424512863159179
1772650323873847600,7.36784765625,0.2253641681343317,-0.5228942855522036,0.743969158994779,-0.1210224255919456,-0.2762548327445984,0.1101612672209739
1772650323883819300,7.3778193359375,0.0964607248455286,-0.5550120098248124,0.632540947446227,-0.1257817149162292,-0.2797999680042267,0.0789317339658737
1772650323893792500,7.38779248046875,-0.01553542278409,-0.6312941622555256,0.5347309999488293,-0.1360503435134887,-0.2679446637630462,0.0577872991561889
1772650323903764500,7.397764404296875,-0.1464239024102687,-0.7066989473298192,0.5067852275986224,-0.1516602039337158,-0.2606887221336365,0.0459875240921974
1772650323913737500,7.407737548828125,-0.2726800460606813,-0.7420873638361692,0.5571469760268927,-0.1582499295473098,-0.2626219093799591,0.0523719191551208
1772650323923710500,7.41771044921875,-0.4154980329334735,-0.7599532753944397,0.6983378000892698,-0.1538470983505249,-0.2559817731380462,0.0868525207042694
1772650323933682400,7.427682373046875,-0.5603507405042648,-0.8302481701090931,0.9248549376510083,-0.1441947370767593,-0.2537087798118591,0.1513252556324005
1772650323943655400,7.437655517578125,-0.5992448270440102,-0.9125102737322448,1.0879435591362416,-0.1462507098913192,-0.2940372824668884,0.2053216397762298
1772650323953627400,7.44762744140625,-0.3693675653994083,-0.969403835082054,1.1484580143969505,-0.1611164659261703,-0.3635077178478241,0.2206361442804336
1772650323963600400,7.457600341796875,-0.0707294867396354,-0.9924608855426312,1.114631075053662,-0.1768375933170318,-0.4258381128311157,0.1724675893783569
1772650323973573400,7.467573486328125,0.236585234850645,-1.0226689768016335,0.9972657285410912,-0.2007804811000824,-0.4598685204982757,0.0651160925626754
1772650323983545600,7.477545654296875,0.4552928677052259,-0.9613011926472188,0.7482882643029093,-0.2398986369371414,-0.4728650152683258,-0.1158303394913673
1772650323993518300,7.487518310546875,0.5606126063108444,-0.8427075464487075,0.4244961263706907,-0.2974671125411987,-0.4993515014648437,-0.3401249647140503
1772650324003490600,7.497490478515625,0.4284820176690816,-0.6845967133760452,0.0813868916912004,-0.3683162629604339,-0.4764847755432129,-0.5517740845680237
1772650324013463600,7.507463623046875,-0.0070306292891502,-0.4603936979755759,-0.1755313754836097,-0.4160390496253967,-0.3939025700092315,-0.6881348490715027
1772650324023436500,7.5174365234375,-0.5757108067214488,-0.1506093714013695,-0.3218619370546192,-0.4476156234741211,-0.2894734442234039,-0.7168652415275574
1772650324033408500,7.527408447265625,-1.0971949332147837,0.2098424816146492,-0.3867812396781518,-0.4512612223625183,-0.1956606358289718,-0.6332654356956482
1772650324043381500,7.537381591796875,-1.4017565567046404,0.5406117285504937,-0.4177686812791973,-0.4409406781196594,-0.1142657771706581,-0.5020430684089661
1772650324053353500,7.547353515625,-1.3657465011686083,0.8049073926255107,-0.4538895037133246,-0.4125042259693146,-0.0788768902420997,-0.376256912946701
1772650324063326500,7.557326416015625,-1.1043629251480105,0.9272466550931334,-0.3577834740569814,-0.3565936982631683,-0.0822991728782653,-0.269975870847702
1772650324073298400,7.56729833984375,-0.8760989439189434,0.9042395812541246,-0.1882587551096454,-0.3055592775344848,-0.1182406619191169,-0.1775431483983993
1772650324083271400,7.577271484375,-0.7116016246795653,0.7894096715033054,-0.059613049441576,-0.2782770693302154,-0.1456801295280456,-0.1081881523132324
1772650324093244700,7.58724462890625,-0.640590398389101,0.7333350253209471,-0.0317433745348826,-0.2731890976428985,-0.1381356716156005,-0.0496976748108863
1772650324103216400,7.59721630859375,-0.7551718863368034,0.6973463048338889,-0.0237059428233653,-0.2650203704833984,-0.0884583890438079,0.0345090813934803
1772650324113189400,7.607189453125,-0.8952899666011332,0.7447501533046365,0.0128821317963302,-0.2386223375797271,-0.0358388572931289,0.1548416167497635
1772650324123161600,7.61716162109375,-0.9405991808801888,0.8578700442671775,0.1562433587003499,-0.2065411061048507,-0.0061442041769623,0.3032575845718384
1772650324133134300,7.62713427734375,-0.7741635870546102,0.98497520596236,0.241685371001251,-0.1757445782423019,-0.0135898701846599,0.4390330016613006
1772650324143107300,7.637107421875,-0.4774538461089134,1.011183998452127,0.3240689090469852,-0.1484096795320511,-0.0359883494675159,0.5410983562469482
1772650324153079600,7.64707958984375,-0.2324982577979564,0.9879071677610276,0.4131844587614759,-0.1225913986563682,-0.0722962915897369,0.6200341582298279
1772650324163052500,7.657052490234375,-0.0451776968538761,0.9171437787517904,0.4501000483024865,-0.0991287305951118,-0.1037032157182693,0.6650489568710327
1772650324173024500,7.6670244140625,0.1214846914649009,0.8207201710462569,0.4388533356882632,-0.088083267211914,-0.1420524716377258,0.6778691411018372
1772650324182997500,7.67699755859375,0.3259235604703426,0.7340940269947052,0.327440285176225,-0.0826983153820037,-0.178870603442192,0.6530623435974121
1772650324192969500,7.686969482421875,0.5199275447010994,0.6415417077645659,0.1193338335739448,-0.0903980508446693,-0.2084143757820129,0.5939846634864807
1772650324202942500,7.6969423828125,0.6044195993334055,0.5229366633892059,-0.0892136397941038,-0.1055733412504196,-0.2214482575654983,0.4998961091041565
1772650324212915500,7.70691552734375,0.7149865909427404,0.3597019114315509,-0.2835954078286886,-0.134948268532753,-0.2353182584047317,0.3668291270732879
1772650324222887400,7.716887451171875,0.8432464756309985,0.2561035897910594,-0.5513958286216483,-0.1864485293626785,-0.2676504552364349,0.1805590838193893
1772650324232860700,7.726860595703125,0.9285311419457196,0.1230097090750932,-0.925440482454002,-0.2609778642654419,-0.2969073951244354,-0.0552931316196918
1772650324242832400,7.736832275390625,0.8096522490650415,-0.0246861129671335,-1.2834852743282914,-0.352565050125122,-0.3034258782863617,-0.3090938329696655
1772650324252805400,7.746805419921875,0.4274690412342548,-0.1194084697127342,-1.480580648703128,-0.4418499171733856,-0.2695187628269195,-0.5356212258338928
1772650324262778600,7.756778564453125,-0.1927051765918731,-0.0737432816028594,-1.51141447064504,-0.5211932063102722,-0.2003364413976669,-0.6954497694969177
1772650324272750300,7.766750244140625,-0.8621294552773237,0.1268576166749,-1.441035843169689,-0.5835365056991577,-0.0914208590984344,-0.7634948492050171
1772650324282723300,7.776723388671875,-1.4578466927170752,0.3553185817807913,-1.297432843399048,-0.6104329228401184,0.0435451082885265,-0.7287827134132385
1772650324292695600,7.786695556640625,-1.88889651504755,0.5930316516175865,-0.9206351279988884,-0.5790494680404663,0.1886434406042099,-0.5882946252822876
1772650324302668300,7.796668212890625,-2.0696242535978557,0.8423679392307997,-0.3611927345111966,-0.4870412349700928,0.2839296758174896,-0.3601926565170288
1772650324312641300,7.806641357421875,-1.95126207806766,1.0640800145983695,0.176899047107622,-0.3477131724357605,0.2645245492458343,-0.0739175006747245
1772650324322613500,7.816613525390625,-1.6098299828201532,1.192473462538421,0.5716788843242451,-0.2024384438991546,0.2140333801507949,0.229956105351448
1772650324332586500,7.82658642578125,-1.0700444759607315,1.2311626741558312,0.766780491065979,-0.0707749724388122,0.1230422034859657,0.5072324275970459
1772650324342558500,7.836558349609375,-0.4430260913282632,1.1904174067914486,0.7486223185628652,0.0161764435470104,0.0110288579016923,0.7175284028053284
1772650324352531500,7.846531494140625,0.2230623209327459,0.9847034032836556,0.6323540465719998,0.0668436139822006,-0.0821998938918113,0.8314315676689148
1772650324362503400,7.85650341796875,0.7790344079613685,0.7561164737105369,0.5016135240491479,0.0955887511372566,-0.1428865939378738,0.8674953579902649
1772650324372476400,7.866476318359375,1.2103659698426723,0.5768424410998821,0.3569788431432097,0.1070129200816154,-0.1661362648010254,0.8163461685180664
1772650324382449400,7.876449462890625,1.5430489414453503,0.4931535195440054,0.141090943884477,0.1070991456508636,-0.1320328116416931,0.6786642670631409
