time,seconds_elapsed,acc_z,acc_y,acc_x,gyro_z,gyro_y,gyro_x
1772903285566760000,0.243760009765625,-2.036850929260254,-0.5510220527648926,0.3831536769866943,-0.3353647589683532,-0.3371973633766174,0.430659681558609
1772903285585745700,0.26274560546875,-1.9049205780029297,-0.5958061218261719,0.715237021446228,-0.4783071279525757,-0.4667007029056549,0.2168570011854171
1772903285604731400,0.2817314453125,-1.890427589416504,-0.2556171417236328,0.6307252645492554,-0.7061597108840942,-0.6426297426223755,0.0238237269222736
1772903285623717000,0.300717041015625,-2.2588653564453125,-0.3062853813171386,0.3020408153533935,-0.9211840629577636,-0.8179479241371155,-0.1551596522331237
1772903285642702600,0.31970263671875,-2.6047606468200684,-0.6271367073059082,-0.2664549350738525,-1.0207550525665283,-1.035415768623352,-0.2767217457294464
1772903285661688300,0.338688232421875,-2.68068265914917,-1.1175966262817385,-0.9485321044921876,-0.9621120095252992,-1.3671153783798218,-0.2669478952884674
1772903285680674000,0.357674072265625,-2.1100330352783203,-1.2754788398742676,-1.4380791187286377,-0.7996219992637634,-1.8637484312057493,-0.0897971242666244
1772903285699659800,0.37665966796875,-1.4054603576660156,-1.4060029983520508,-1.4025393724441528,-0.573602020740509,-2.327394723892212,0.2168570011854171
1772903285718645500,0.3956455078125,-1.274278163909912,-1.6914114952087402,-1.1548774242401123,-0.3439168632030487,-2.746448040008545,0.4080576598644256
1772903285737631200,0.41463134765625,-1.0992984771728516,-2.273190498352051,-1.0217208862304688,-0.0629190728068351,-3.0250024795532227,0.3005454838275909
1772903285756617000,0.433616943359375,0.4075937271118164,-2.42950701713562,-0.7724664211273193,0.3970620930194855,-2.436128854751587,0.0244345907121896
1772903285775602700,0.452602783203125,1.103076457977295,-2.260038375854492,0.356541633605957,0.8918625712394714,-0.7269290685653687,-0.3952295184135437
1772903285794588400,0.47158837890625,1.678184986114502,-0.9972238540649414,2.352872610092163,1.0213658809661863,0.5112938284873962,-1.0671807527542114
1772903285813574000,0.490573974609375,3.251046657562256,0.6981456279754639,3.0091359615325928,0.6701186895370483,0.916297197341919,-1.709810495376587
1772903285832559600,0.5095595703125,5.411243438720703,1.2566642761230469,2.789250135421753,0.2528980076313019,0.739757239818573,-1.956599831581116
1772903285851545300,0.52854541015625,6.630214691162109,1.1468822956085205,2.236542224884033,-0.1233946830034256,0.4221075773239136,-1.8588615655899048
1772903285870531000,0.547531005859375,7.027712821960449,1.348611831665039,1.1250433921813965,-0.439822643995285,0.21319180727005,-1.6481131315231323
1772903285889516800,0.566516845703125,6.636056900024414,1.4239158630371094,-0.473956823348999,-0.430048793554306,0.0103847011923789,-1.4159845113754272
1772903285908502500,0.58550244140625,5.256656646728516,1.1917433738708496,-1.4753930568695068,-0.1826485693454742,0.0232128612697124,-1.2137882709503174
1772903285927488300,0.60448828125,3.824282646179199,0.8596587181091309,-1.5324934720993042,0.098960094153881,0.3237583339214325,-1.0372483730316162
1772903285946474000,0.623473876953125,2.5161209106445312,0.5630216598510742,-1.254908561706543,0.3762927055358886,0.5064069032669067,-0.934012234210968
1772903285965459700,0.642459716796875,1.2566709518432615,0.6572635173797607,-1.1112785339355469,0.6426297426223755,0.7275399565696716,-0.9291253089904784
1772903285984445400,0.661445556640625,0.4605865478515625,0.7929861545562744,-0.5718162059783936,0.8124501705169678,0.7257073521614075,-0.9596685767173768
1772903286003431200,0.68043115234375,0.0538244247436523,0.956208109855652,0.4752514362335205,0.6829468011856079,0.6835576891899109,-0.9706641435623168
1772903286022417000,0.6994169921875,-0.0453557968139648,0.9139465093612672,0.7909078598022461,0.4349357187747955,0.6896663308143616,-0.9187406301498412
1772903286041402400,0.71840234375,0.2604169845581054,0.8030710220336914,0.6689794063568115,0.2437350451946258,0.7599157691001892,-0.7727439403533936
1772903286060388000,0.73738818359375,0.1559677124023437,0.3370264768600464,0.4384403228759765,0.1631008982658386,0.7715222239494324,-0.5693259835243225
1772903286079373800,0.756373779296875,0.2050724029541015,0.1072555780410766,0.3972835540771484,0.1325576603412628,0.5137372612953186,-0.3494146466255188
1772903286098359600,0.775359619140625,0.4862260818481445,0.0864398479461669,0.3901646137237549,0.0665842592716217,0.3109301626682281,-0.0757472291588783
1772903286117345300,0.79434521484375,0.7871875762939453,0.020375370979309,0.2400429248809814,-0.0091629717499017,0.1288924664258957,0.2174678593873977
1772903286136331000,0.8133310546875,0.3374195098876953,-0.0199382305145263,0.301490306854248,-0.0568104237318038,0.2700022459030151,0.4605920314788818
1772903286155316500,0.83231640625,-0.4486827850341797,-0.2359480857849121,0.0963568687438964,-0.0097738364711403,0.5143481492996216,0.593149721622467
1772903286174302200,0.85130224609375,-1.1028223037719729,-0.2904219627380371,-0.2990231513977051,0.119729496538639,0.5595521330833435,0.6352993845939636
1772903286193288000,0.870287841796875,-1.5236568450927734,-0.2392221689224243,-0.4126808643341064,0.215024396777153,0.3811796307563782,0.6108647584915161
1772903286212273700,0.889273681640625,-1.3993349075317385,-0.1541999578475952,-0.1970140933990478,0.2284634262323379,0.0959057733416557,0.5558869242668152
1772903286231259400,0.90825927734375,-1.137308120727539,-0.1034930944442749,0.2175357341766357,0.1728747338056564,-0.0806341543793678,0.5229002237319946
1772903286250245000,0.9272451171875,-0.8745431900024414,-0.1652554273605346,0.6855509281158447,0.0580321550369262,-0.1056796088814735,0.4770853817462921
1772903286269230800,0.94623095703125,-0.8528919219970703,-0.3605408668518066,0.5719449520111084,0.0378736145794391,0.0702494531869888,0.4324922561645508
1772903286288216600,0.965216552734375,-1.0995197296142578,-0.3832376003265381,0.2917182445526123,0.1154534444212913,0.3543015718460083,0.3659079968929291
1772903286307202300,0.984202392578125,-1.3469133377075195,-0.2789347171783447,-0.013293981552124,0.2247982323169708,0.4764745235443115,0.2700022459030151
1772903286326188000,1.00318798828125,-1.4062652587890625,-0.1990301609039306,-0.1844215393066406,0.3097084462642669,0.4025598764419555,0.1832594275474548
1772903286345173500,1.022173583984375,-1.17803955078125,-0.1997299194335937,0.1144206523895263,0.3298669755458832,0.4098902642726898,0.1624900251626968
1772903286364159200,1.0411591796875,-0.7851181030273438,-0.3373132944107055,0.3049619197845459,0.2119700759649276,0.3457494676113128,0.2309068888425827
1772903286383145000,1.06014501953125,-0.4349927902221679,-0.6430044174194336,0.9378701448440552,-0.0433713980019092,0.0372627526521682,0.3610210716724396
1772903286402130700,1.079130615234375,-0.5929269790649414,-0.3650484085083008,0.661797046661377,-0.1912006735801696,-0.2095266133546829,0.4465421438217163
1772903286421116400,1.098116455078125,-1.670884132385254,0.0465943813323974,0.4801962375640869,-0.2040288299322128,-0.1899789422750473,0.2822195291519165
1772903286440102100,1.11710205078125,-3.0094223022460938,0.1389105319976806,0.2728433609008789,-0.1490510106086731,-0.1099556609988212,-0.1123991161584854
1772903286459087600,1.136087646484375,-3.45229434967041,0.2268798351287841,0.0374433994293212,-0.0525343716144561,-0.2474002391099929,-0.5131264328956604
1772903286478073300,1.1550732421875,-3.073485851287842,0.5077791213989258,0.2162456512451172,-0.0128281600773334,-0.544891357421875,-0.7483093738555908
1772903286497059000,1.17405908203125,-2.3833255767822266,0.4054324626922607,1.1247937679290771,-0.1136208474636077,-0.6224712133407593,-0.7348703145980835
1772903286516044800,1.193044921875,-1.6187334060668943,0.1982514858245849,1.875978946685791,-0.3494146466255188,-0.5955931544303894,-0.4966330528259277
1772903286535030500,1.212030517578125,-1.4239964485168457,-0.0294814109802246,1.7602393627166748,-0.5607738494873047,-0.5503891706466675,-0.1252272725105285
1772903286554016300,1.231016357421875,-1.980390548706055,-0.3472033739089966,1.2895512580871582,-0.6719512343406677,-0.5705476999282837,0.2199113219976425
1772903286573002000,1.250001953125,-2.6402082443237305,-0.5362708568572998,0.6626429557800293,-0.6267472505569458,-0.7446441650390625,0.5027416944503784
1772903286591987500,1.268987548828125,-3.4130778312683105,-0.7518610954284668,0.2382140159606933,-0.5198459029197693,-1.028085470199585,0.66645348072052
1772903286610973200,1.28797314453125,-3.910795211791992,-0.9861677885055542,-0.0376737117767334,-0.4355465769767761,-1.2596031427383425,0.6621774435043335
1772903286629959000,1.306958984375,-4.125908851623535,-0.9845921993255616,0.0736680030822753,-0.360410213470459,-1.2828160524368286,0.5290089249610901
1772903286648944600,1.325944580078125,-3.913169860839844,-1.26298725605011,0.3511018753051758,-0.2693913578987121,-1.2070688009262085,0.3097084462642669
1772903286667930400,1.344930419921875,-3.595526695251465,-1.7217562198638916,0.168520450592041,-0.0830776095390319,-1.2870920896530151,0.0830776095390319
1772903286686916000,1.363916015625,-3.0311012268066406,-1.9794442653656008,0.17645263671875,0.1789833754301071,-1.5870267152786257,-0.015882484614849
1772903286705901600,1.382901611328125,-2.5142698287963867,-2.5341949462890625,0.3060793876647949,0.4404335021972656,-2.294408082962036,-0.0183259434998035
1772903286724887600,1.401887451171875,-1.5525145530700684,-3.123126745223999,0.3383407592773437,0.6774490475654602,-3.4471099376678467,0.1148425787687301
1772903286743873000,1.420873046875,-0.2869901657104492,-4.092129230499268,0.97587251663208,0.831997811794281,-4.355465888977051,0.3940077722072601
1772903286762858800,1.439858642578125,1.023547649383545,-4.900668144226074,1.621750831604004,1.0128138065338137,-4.787347316741943,0.6750055551528931
1772903286781844500,1.458844482421875,1.0612211227416992,-4.851009368896484,1.5253009796142578,1.3384047746658323,-4.787958145141602,0.637742817401886
1772903286800830200,1.477830322265625,-0.5120301246643066,-4.172865390777588,1.3757872581481934,1.7165300846099854,-4.775129795074463,-0.0598647482693195
1772903286819816000,1.49681591796875,-0.367894172668457,-3.081570625305176,2.804072380065918,1.7269147634506226,-3.929082155227661,-0.9016364216804504
1772903286838801400,1.515801513671875,0.1452832221984863,-3.176257610321045,2.800699234008789,1.7812817096710205,-2.606559991836548,-1.737910270690918
1772903286857787100,1.534787109375,1.019373893737793,-3.5605411529541016,2.209160804748535,2.1942262649536133,-1.95843243598938,-2.4043638706207275
1772903286876772900,1.55377294921875,4.927953720092773,-2.741355657577514,2.9046640396118164,2.629772901535034,-2.0909900665283203,-2.3713769912719727
1772903286895758600,1.572758544921875,9.124374389648438,-1.685956597328186,5.320801734924316,2.786154270172119,-2.4355177879333496,-1.5375466346740725
1772903286914744300,1.591744384765625,10.245759963989258,-0.0691367387771606,7.134517669677734,2.5106542110443115,-2.227212905883789,-0.5760455131530762
1772903286933730000,1.61072998046875,8.79369831085205,1.717230200767517,5.762236595153809,2.2626430988311768,-1.5870267152786257,-0.0103847011923789
1772903286952715800,1.6297158203125,7.445024490356445,2.9623055458068848,3.412436485290528,2.254701852798462,-1.2052361965179443,0.3824013471603393
1772903286971701200,1.648701171875,6.720749855041504,3.791115283966065,2.1924705505371094,2.329838275909424,-1.2174534797668457,0.8399390578269958
1772903286990687000,1.66768701171875,6.095756530761719,4.215956687927246,3.031313896179199,2.20155668258667,-1.3023637533187866,1.3377938270568848
1772903287009672700,1.686672607421875,4.482631683349609,4.606142044067383,3.6709394454956055,1.846033334732056,-1.204014539718628,1.6114612817764282
1772903287028658400,1.705658447265625,2.266017436981201,5.286267280578613,3.0143022537231445,1.4868448972702026,-0.9077450633049012,1.4923427104949951
1772903287047644000,1.724643798828125,0.7970101833343506,5.939385890960693,1.878514289855957,1.239444613456726,-0.6646208763122559,1.1753038167953491
1772903287066629600,1.743629638671875,0.6179993152618408,6.540013790130615,1.2079553604125977,1.0341941118240356,-0.5302306413650513,0.9217949509620668
1772903287085615400,1.762615478515625,0.97371244430542,6.762628555297852,0.9212026596069336,0.8222240209579468,-0.5729911923408508,0.7910698652267456
1772903287104601000,1.78160107421875,1.7305772304534912,6.831068992614746,1.1866931915283203,0.573602020740509,-0.5528326034545898,0.7947350740432739
1772903287123586800,1.8005869140625,2.3731539249420166,6.509459495544434,1.7123432159423828,0.2791652083396911,-0.3854556679725647,0.915075421333313
1772903287142572500,1.819572509765625,2.562892436981201,6.112249374389648,1.8161325454711916,-0.0079412423074245,-0.3353647589683532,1.0965023040771484
1772903287161558000,1.83855810546875,2.5310630798339844,5.665620803833008,1.6623754501342771,-0.2620609998703003,-0.4941896200180053,1.311526656150818
1772903287180543700,1.857543701171875,2.234459161758423,5.134427070617676,1.6213855743408203,-0.4923570156097412,-0.7458658814430237,1.5033382177352903
1772903287199529500,1.876529541015625,1.9481346607208248,4.447796821594238,2.53617000579834,-0.8216131329536438,-0.6805033683776855,1.5906919240951538
1772903287218515200,1.89551513671875,1.1607558727264404,3.664262294769287,2.828655242919922,-1.1490366458892822,-0.3958403766155243,1.512501239776611
1772903287237501000,1.9145009765625,-0.1670196056365966,3.0387628078460693,2.221932411193848,-1.3994911909103394,-0.1423314958810806,1.2150100469589231
1772903287256486400,1.933486328125,-0.5536127090454102,2.336392402648926,1.4844112396240234,-1.5399900674819946,-0.0250454563647508,0.851545512676239
1772903287275472100,1.95247216796875,0.2136340141296386,1.2256510257720947,1.4265527725219729,-1.5601485967636108,-0.0488691814243793,0.6071996092796326
1772903287294457900,1.971457763671875,1.8637700080871584,0.2022583484649658,2.4383325576782227,-1.6145156621932983,0.0073303775861859,0.6340776681900024
1772903287313443600,1.990443603515625,2.3112404346466064,-0.7675809860229492,3.606935501098633,-1.7049236297607422,0.1276707351207733,0.7849612236022949
1772903287332429300,2.00942919921875,1.6447274684906006,-1.5538817644119265,3.900556564331055,-1.866191864013672,0.2028071135282516,0.8460476994514465
1772903287351414800,2.028414794921875,1.313361883163452,-1.8334393501281736,3.321305274963379,-1.99936044216156,0.1936441361904144,0.8588758707046509
1772903287370400500,2.047400390625,1.2198724746704102,-2.5547382831573486,2.643817901611328,-2.0408992767333984,0.1130099818110466,0.9040798544883728
1772903287389386200,2.06638623046875,1.1883349418640137,-3.033761739730835,2.3450632095336914,-2.101374864578247,0.1722638607025146,0.9590576887130736
1772903287408372000,2.0853720703125,0.6678111553192139,-3.895066261291504,2.02994441986084,-2.108094453811645,0.3219257295131683,0.9022472500801086
1772903287427357400,2.104357421875,0.3190920352935791,-4.931719779968262,1.4730024337768557,-1.9724823236465452,0.5473348498344421,0.8045089244842529
1772903287446343200,2.12334326171875,0.5834403038024902,-5.668717861175537,0.6548061370849609,-1.7250821590423584,0.62857985496521,0.8344413042068481
1772903287465329000,2.142328857421875,0.876835823059082,-5.85517692565918,-0.4183692932128906,-1.4257583618164062,0.6059778332710266,1.0488548278808594
1772903287484314600,2.161314697265625,0.6980922222137451,-5.645998954772949,-1.466796875,-1.1777472496032717,0.5442805290222168,1.3353503942489624
1772903287503300400,2.18030029296875,-0.054314374923706,-5.501965522766113,-2.055558204650879,-1.0421353578567505,0.4105011224746704,1.524107575416565
1772903287522286000,2.1992861328125,-1.1099326610565186,-5.741912841796875,-2.598015785217285,-0.9309579133987428,0.318871408700943,1.4850122928619385
1772903287541271600,2.218271484375,-1.848120927810669,-6.257972240447998,-3.2064342498779297,-0.6798924803733826,0.3426951467990875,1.2437206506729126
1772903287560257300,2.23725732421875,-1.9761348962783811,-6.598515033721924,-3.5831117630004883,-0.2785543501377105,0.4416552484035492,0.951727330684662
1772903287579243000,2.256242919921875,-1.5808826684951782,-6.476869583129883,-3.5071287155151367,0.143553227186203,0.4636463820934295,0.7849612236022949
1772903287598228700,2.275228759765625,-1.1738711595535278,-6.040169715881348,-2.9404306411743164,0.4355465769767761,0.3506363928318023,0.720820426940918
1772903287617214200,2.294214111328125,-1.0497159957885742,-5.500816345214844,-2.2281503677368164,0.6078104376792908,0.258395791053772,0.6737838387489319
1772903287636200000,2.313199951171875,-0.9669618606567384,-5.053339958190918,-1.9847259521484373,0.7654135823249817,0.2431241869926452,0.6505709886550903
1772903287655185700,2.332185546875,-1.0583149194717407,-4.664777755737305,-2.3581762313842773,1.035415768623352,0.2718348205089569,0.6120865345001221
1772903287674171400,2.35117138671875,-0.8605048656463623,-4.210376739501953,-2.144163131713867,1.3469568490982056,0.347582072019577,0.6322450637817383
1772903287693157000,2.3701572265625,-0.6701962947845459,-3.564075469970703,-1.695842742919922,1.5839723348617554,0.4031707644462585,0.7098248600959778
1772903287712142600,2.389142578125,-0.6562449932098389,-3.079447031021118,-1.127181053161621,1.7470732927322388,0.4153880476951599,0.823445737361908
1772903287731128300,2.40812841796875,-0.7788252830505371,-2.666994571685791,-0.7732667922973633,1.924834966659546,0.3365865051746368,0.9853248596191406
1772903287750114000,2.427114013671875,-0.478074312210083,-2.32705020904541,-0.2507486343383789,2.078772783279419,0.1362228393554687,1.2461642026901243
1772903287769099800,2.446099853515625,-0.2914988994598388,-1.9586036205291748,0.1951885223388672,2.1985023021698,-0.0445931293070316,1.565646409988403
1772903287788085200,2.465085205078125,-0.7064757347106934,-1.3900957107543943,0.511317253112793,2.29318642616272,-0.1282816082239151,1.786779522895813
1772903287807071000,2.484071044921875,-1.1648893356323242,-0.7633101940155029,1.038008689880371,2.307236194610596,-0.1679878085851669,1.869246244430542
1772903287826056700,2.503056640625,-1.2978904247283936,-0.2408949732780456,1.571406364440918,2.214995622634888,-0.1105665266513824,1.8741331100463867
1772903287845042400,2.52204248046875,-1.2934809923171997,0.2904041111469269,1.649728775024414,2.065333843231201,-0.0299323741346597,1.8551963567733765
1772903287864028200,2.541028076171875,-1.408167600631714,0.5224917531013489,1.3110809326171875,1.915061116218567,-0.131946787238121,1.795331597328186
1772903287883013600,2.560013671875,-1.5466163158416748,-0.2691150605678558,1.5701770782470703,1.921780586242676,-0.3634645342826843,1.6322306394577026
1772903287901999400,2.578999267578125,-0.8746390342712402,-1.0633130073547363,2.269571304321289,2.139859437942505,-0.4080576598644256,1.525329351425171
1772903287920985000,2.597985107421875,0.2527680397033691,-0.3716393113136291,3.082509994506836,2.265697479248047,-0.4001164436340332,1.5888593196868896
1772903287939970600,2.616970458984375,0.4948086738586426,1.205238938331604,3.40679931640625,2.015853881835937,-0.5479456782341003,1.635895848274231
1772903287958956300,2.635956298828125,0.0138442516326904,2.192221403121948,2.867145538330078,1.6016874313354492,-0.6511818766593933,1.4874557256698608
1772903287977942000,2.65494189453125,0.2596511840820312,2.132810592651367,1.7202138900756836,1.3213005065917969,-0.6352993845939636,1.286481261253357
1772903287996927700,2.673927734375,1.2606756687164309,1.744389533996582,0.9235095977783204,1.2137882709503174,-0.6426297426223755,1.257770538330078
1772903288015913500,2.69291357421875,1.4576873779296875,1.557746648788452,0.3780298233032226,1.127045512199402,-0.8014546036720276,1.2205078601837158
1772903288034899000,2.71189892578125,1.260115385055542,1.8261176347732544,-0.3816261291503906,1.0739002227783203,-0.9358448386192322,1.030528903007507
1772903288053884700,2.730884765625,1.9850157499313357,2.1300618648529053,-0.8746967315673828,1.0934479236602783,-0.9266818761825562,0.8778126835823059
1772903288072870400,2.749870361328125,3.441524028778076,2.057563304901123,-0.5697011947631836,1.1001675128936768,-0.9303470849990844,0.9853248596191406
1772903288091856000,2.76885595703125,4.209320068359375,1.7457071542739868,0.0220613479614257,1.0103703737258911,-1.1221586465835571,1.2644901275634766
1772903288110841600,2.787841552734375,4.8863043785095215,1.7647792100906372,0.1114072799682617,0.8839213252067566,-1.4355322122573853,1.6530001163482666
1772903288129827300,2.806827392578125,5.262454509735107,1.9082127809524536,-0.1119260787963867,0.8075632452964783,-1.7244713306427002,2.050673007965088
1772903288148813000,2.82581298828125,4.96703052520752,1.811711072921753,0.4077577590942383,0.6976075768470764,-1.7678426504135132,2.299294948577881
1772903288167798800,2.844798828125,4.695550918579102,1.783853530883789,1.0676870346069336,0.4893026947975158,-1.4178171157836914,2.391535520553589
1772903288186784300,2.8637841796875,4.524517059326172,1.886895775794983,1.1539926528930664,0.258395791053772,-0.9847140312194824,2.428187608718872
1772903288205770000,2.88277001953125,4.259015083312988,1.6519174575805664,0.988032341003418,0.0280997790396213,-0.7965676784515381,2.4709479808807373
1772903288224755700,2.901755615234375,4.079941272735596,1.1216552257537842,0.5543479919433594,-0.1411097645759582,-0.8203914165496826,2.52042818069458
1772903288243741200,2.9207412109375,4.115797996520996,0.6579411029815674,0.3572463989257812,-0.2474002391099929,-0.8863648176193237,2.5741841793060303
1772903288262727000,2.939726806640625,4.022765159606934,0.0772099494934082,0.6396589279174805,-0.3848448097705841,-0.8558215498924255,2.578460216522217
1772903288281712600,2.958712646484375,4.350276947021484,-0.2203388214111328,0.6263084411621094,-0.5589412450790405,-0.8075632452964783,2.573573350906372
1772903288300698400,2.977698486328125,4.84725284576416,-0.5058796405792236,0.3475666046142578,-0.7073814272880554,-0.7550288438796997,2.640768527984619
1772903288319684000,2.99668408203125,5.236489295959473,-0.9383887052536012,0.2717094421386719,-0.8362739086151123,-0.7067705392837524,2.799593210220337
1772903288338669600,3.015669677734375,5.10749626159668,-1.63629150390625,0.2375745773315429,-0.9798271059989928,-0.7141009569168091,2.940703153610229
1772903288357655300,3.0346552734375,4.836065292358398,-1.972725749015808,-0.0414686203002929,-1.0818414688110352,-0.5900954008102417,2.996902704238892
1772903288376641000,3.05364111328125,4.648926258087158,-2.436662435531616,-0.3618974685668945,-1.0708459615707395,-0.3408625423908233,3.003622055053711
1772903288395626500,3.07262646484375,4.586808204650879,-2.8164308071136475,-0.4058141708374023,-0.9877683520317078,-0.0568104237318038,3.033554553985596
1772903288414612200,3.0916123046875,3.938936233520508,-2.8273515701293945,-0.4099178314208984,-0.9425643682479858,0.047036588191986,3.006065607070923
1772903288433598000,3.110597900390625,3.227499961853028,-2.7385952472686768,-0.3711776733398437,-0.9676098227500916,0.0500909127295017,2.919933557510376
1772903288452583700,3.129583740234375,2.803705930709839,-3.2321484088897705,-0.0806541442871093,-0.9749401807785034,0.0543669648468494,2.8185300827026367
1772903288471569200,3.148569091796875,2.2366321086883545,-3.667918920516968,0.1706581115722656,-0.9786053895950316,0.1136208474636077,2.66886830329895
1772903288490555000,3.167554931640625,1.334165334701538,-3.9952564239501953,0.3472528457641601,-0.9376774430274964,0.2748891413211822,2.3903138637542725
1772903288509540600,3.18654052734375,0.3644460439682007,-4.459795475006104,0.6854400634765625,-0.9712749719619752,0.6090322136878967,2.0207407474517822
1772903288528526000,3.205526123046875,-0.6248319149017334,-4.905852794647217,-0.3933010101318359,-1.0189224481582642,1.1117738485336304,1.6725478172302246
1772903288547511800,3.22451171875,-0.5647997856140137,-5.015166759490967,-2.323960781097412,-0.7751874327659607,1.4092650413513184,1.5870267152786257
1772903288566497500,3.24349755859375,-1.1604362726211548,-5.375373840332031,-2.9000682830810547,-0.462424635887146,1.1600322723388672,1.5906919240951538
1772903288585483300,3.262483154296875,-2.4233357906341557,-5.681748390197754,-2.824012279510498,-0.1795942485332489,0.8020654320716858,1.4257583618164062
1772903288604469000,3.281468994140625,-3.089851140975952,-5.768268585205078,-2.305384635925293,0.0458148568868637,0.5876519083976746,1.1160500049591064
1772903288623454500,3.300454345703125,-3.11693811416626,-5.793107986450195,-1.8941302299499512,0.254730612039566,0.5821541547775269,0.7330377101898193
1772903288642440200,3.319440185546875,-2.842819929122925,-5.661727428436279,-1.9908928871154783,0.5790998339653015,0.8093958497047424,0.3976729810237884
1772903288661426000,3.338426025390625,-2.38240647315979,-5.426991939544678,-1.746294021606445,0.9114102721214294,0.8936951756477356,0.2205221801996231
1772903288680411400,3.357411376953125,-1.8763785362243648,-4.975107192993164,-0.7459564208984375,1.082452416419983,0.6145299673080444,0.2858847081661224
1772903288699397000,3.376397216796875,-1.2876172065734863,-4.472416400909424,-0.3122243881225586,1.1557561159133911,0.1820377111434936,0.5290089249610901
1772903288718382800,3.3953828125,-1.1108806133270264,-4.024406433105469,-0.3441934585571289,1.2644901275634766,-0.2034179717302322,0.7703005075454712
1772903288737368600,3.41436865234375,-1.5348951816558838,-3.693375587463379,-0.2928533554077148,1.4556907415390017,-0.398283839225769,0.8356630206108093
1772903288756354000,3.43335400390625,-1.905702352523804,-3.3119020462036133,0.1488265991210937,1.64566969871521,-0.42088583111763,0.7171552777290344
1772903288775339800,3.45233984375,-1.978070378303528,-2.7739250659942627,0.4035568237304687,1.81304669380188,-0.356745034456253,0.500298261642456
1772903288794325500,3.471325439453125,-1.4906158447265625,-2.1124603748321533,0.6249217987060547,1.9523237943649288,-0.3365865051746368,0.3414734005928039
1772903288813311000,3.49031103515625,-0.7863295078277588,-1.3541535139083862,0.8140630722045898,2.016464710235596,-0.4337140023708343,0.3390299379825592
1772903288832296700,3.509296630859375,-0.3305096626281738,-0.633297324180603,1.027851104736328,1.971260666847229,-0.593149721622467,0.4312705397605896
1772903288851282400,3.528282470703125,-0.3034923076629638,-0.0007836818695068,0.9169368743896484,1.890626549720764,-0.6988292932510376,0.4917461574077606
1772903288870268000,3.547267822265625,-0.1085336208343505,0.5137221813201904,0.6900300979614258,1.8435899019241333,-0.6927206516265869,0.5271763205528259
1772903288889253600,3.566253662109375,0.2325215339660644,0.9890553951263428,0.6771974563598633,1.8362594842910769,-0.6517927050590515,0.583375871181488
1772903288908239400,3.5852392578125,0.5303440093994141,1.4159793853759766,1.0925254821777344,1.805105447769165,-0.6536253094673157,0.6743947267532349
1772903288927225000,3.60422509765625,0.58234703540802,2.048952102661133,1.88253116607666,1.655443549156189,-0.6603448390960693,0.7617483735084534
1772903288946210600,3.62321044921875,0.0569628477096557,2.725033760070801,2.0327186584472656,1.433088779449463,-0.638353705406189,0.7122683525085449
1772903288965196300,3.6421962890625,-0.1100144386291503,3.391784906387329,1.813619613647461,1.2180644273757937,-0.5784889459609985,0.5662716627120972
1772903288984182000,3.66118212890625,0.1921567916870117,3.845845222473145,1.828110694885254,1.0152572393417358,-0.4667007029056549,0.4343248605728149
1772903289003167700,3.680167724609375,0.6654409170150757,4.085054397583008,2.1274938583374023,0.7996219992637634,-0.2406807243824005,0.3646862804889679
1772903289022153200,3.6991533203125,0.5446017980575562,4.163534641265869,2.149742126464844,0.5809323787689209,-0.0635299384593963,0.2767217457294464
1772903289041139000,3.718138916015625,0.4801114797592163,4.2262115478515625,2.211508750915528,0.4172206521034241,-0.0531452372670173,0.1783725172281265
1772903289060124700,3.737124755859375,1.007537841796875,4.212917804718018,2.4081411361694336,0.3451386094093323,-0.1814268380403518,0.1960875988006591
1772903289079110100,3.756110107421875,1.459458351135254,4.283152103424072,3.350990295410156,0.337808221578598,-0.3665188550949096,0.3090975880622864
1772903289098095900,3.775095947265625,1.1828551292419434,4.580081462860107,5.405086517333984,0.0335975624620914,-0.4361574649810791,0.3029889166355133
1772903289117081600,3.79408154296875,0.6201459169387817,5.131598949432373,6.371860504150391,-0.6487383842468262,-0.2254091054201126,0.0464257225394248
1772903289136067300,3.8130673828125,0.3572924137115478,5.045926094055176,4.777706146240234,-1.2632683515548706,0.3035998046398163,-0.3359756171703338
1772903289155052800,3.832052734375,0.7027242183685303,4.078559875488281,2.585700035095215,-1.5693116188049316,0.8179479241371155,-0.5754346251487732
1772903289174038500,3.85103857421875,1.9623750448226929,3.285547971725464,1.2348098754882812,-1.6328415870666504,0.9120211005210876,-0.4477638900279999
1772903289193024000,3.87002392578125,2.8928279876708984,2.894197702407837,1.4702072143554688,-1.7091996669769287,0.6407971382141113,-0.0152716198936104
1772903289212009700,3.889009765625,2.7754335403442383,2.1405978202819824,2.219967842102051,-1.915671944618225,0.1783725172281265,0.430659681558609
1772903289230995500,3.907995361328125,2.178478240966797,1.2570157051086426,1.9484357833862305,-2.04700779914856,-0.1802051067352295,0.6890554428100586
1772903289249981200,3.926981201171875,1.8726346492767332,0.5583325624465942,1.4275598526000977,-2.032958030700684,-0.258395791053772,0.7507528066635132
1772903289268966700,3.945966552734375,1.7337045669555664,0.5730834007263184,0.8389520645141602,-1.9889757633209229,0.0439822636544704,0.7415898442268372
1772903289287952400,3.964952392578125,0.866318941116333,0.6003347039222717,0.4236993789672851,-1.9651520252227783,0.3029889166355133,0.6438514590263367
1772903289306938000,3.983938232421875,0.1107847690582275,0.232205718755722,0.0547599792480468,-1.9474369287490845,0.3909534513950348,0.4984656572341919
1772903289325923600,4.002923583984375,0.2374053001403808,-0.3418186902999878,-0.2417507171630859,-1.877798318862915,0.2400698512792587,0.45875945687294
1772903289344909300,4.021909423828125,0.3355517387390136,-0.6721866130828857,0.2134103775024414,-1.8087706565856931,-0.0586430206894874,0.4850266277790069
1772903289363895000,4.04089501953125,-0.2341334819793701,-1.131391525268555,0.8596706390380859,-1.864359259605408,-0.2229656428098678,0.3830122053623199
1772903289382880800,4.059880859375,-0.6388579607009888,-1.6365858316421509,0.8380975723266602,-1.960265040397644,-0.0647516697645187,0.1362228393554687
1772903289401866200,4.0788662109375,-0.6167192459106445,-2.4458117485046387,0.4236478805541992,-1.9767584800720213,0.2602283954620361,-0.0867427960038185
1772903289420852000,4.09785205078125,-0.3341634273529053,-3.235315322875977,-0.0834541320800781,-1.839924693107605,0.4092794060707092,-0.1411097645759582
1772903289439837400,4.11683740234375,-0.3370749950408935,-3.9910035133361816,-0.0616846084594726,-1.6493349075317385,0.1887572109699249,-0.1172860413789749
1772903289458823200,4.1358232421875,-0.6773943901062012,-4.779361724853516,0.1794013977050781,-1.40559983253479,-0.1802051067352295,-0.1722638607025146
1772903289477809000,4.154808837890625,-0.7069180011749268,-5.043498992919922,0.2970991134643554,-1.1417062282562256,-0.3316995799541473,-0.2675587832927704
1772903289496794600,4.173794677734375,-0.6181408166885376,-4.902547836303711,0.4542798995971679,-0.981048822402954,-0.1362228393554687,-0.3775144219398498
1772903289515780000,4.192780029296875,-0.539885401725769,-4.844507694244385,0.4460773468017578,-0.9291253089904784,0.2388481348752975,-0.4453204274177551
1772903289534765800,4.211765869140625,-0.895099401473999,-4.965670585632324,0.0367898941040039,-0.8979712128639221,0.5522217750549316,-0.5088503360748291
1772903289553751300,4.230751220703125,-1.373713493347168,-5.336676597595215,-0.6168937683105469,-0.8057306408882141,0.7128791809082031,-0.583375871181488
1772903289572737000,4.249737060546875,-1.4588665962219238,-5.43828010559082,-1.3893651962280271,-0.627968966960907,0.7287616729736328,-0.5827649831771851
1772903289591722800,4.26872265625,-1.3109703063964844,-5.454895973205566,-1.896500587463379,-0.430659681558609,0.5412262082099915,-0.4673115611076355
1772903289610708500,4.28770849609375,-1.2286466360092163,-5.4912214279174805,-1.6287083625793457,-0.3133736252784729,0.2590066790580749,-0.2846629917621612
1772903289629694000,4.30669384765625,-1.7266600131988523,-5.844549655914307,-1.4374799728393557,-0.2076940238475799,0.0537560991942882,-0.2272416949272155
1772903289648679700,4.3256796875,-2.241891860961914,-6.694436073303223,-1.4006881713867188,0.0085521070286631,-0.0500909127295017,-0.3488037884235382
1772903289667665400,4.34466552734375,-2.3008909225463867,-6.947068691253662,-2.018120765686035,0.3695732057094574,-0.0152716198936104,-0.5332849621772766
1772903289686651000,4.36365087890625,-1.7100340127944946,-5.962120532989502,-2.790464401245117,0.7476984858512878,0.0280997790396213,-0.618806004524231
1772903289705636600,4.38263671875,-1.0058133602142334,-4.660817623138428,-3.0060219764709477,0.9871574640274048,-0.1282816082239151,-0.5271763205528259
1772903289724622300,4.401622314453125,-0.7274773120880127,-3.9054808616638175,-2.571526050567627,1.0855066776275637,-0.360410213470459,-0.3433060050010681
1772903289743607800,4.42060791015625,-0.8216695785522461,-3.844583034515381,-1.3696403503417969,1.0598503351211548,-0.5015199780464172,-0.1594357043504715
1772903289762593500,4.439593505859375,-0.9772381782531738,-3.917538166046143,-0.8056201934814453,1.007315993309021,-0.637742817401886,-0.0311541035771369
1772903289781579300,4.458579345703125,-1.3071541786193848,-4.0300140380859375,-1.1318082809448242,1.1129956245422363,-0.7648026943206787,-0.0580321550369262
1772903289800564700,4.477564697265625,-1.3892271518707275,-4.123998641967773,-0.8015041351318359,1.3322961330413818,-0.7715222239494324,-0.2345720827579498
1772903289819550500,4.496550537109375,-1.1409826278686523,-3.809523344039917,-0.2057027816772461,1.5442661046981812,-0.6041452884674072,-0.4856374859809875
1772903289838536200,4.5155361328125,-0.9791641235351562,-3.31772518157959,0.3980340957641601,1.7330234050750732,-0.3726275265216827,-0.7654135823249817
1772903289857521700,4.534521728515625,-1.1026959419250488,-2.875579357147217,1.191030502319336,1.8704679012298584,-0.3035998046398163,-1.1068869829177856
1772903289876507400,4.55350732421875,-0.9042844772338868,-2.438901662826538,1.9610767364501955,1.9724823236465452,-0.318871408700943,-1.4587451219558716
1772903289895493000,4.5724931640625,0.3114848136901855,-1.8948817253112795,2.670940399169922,2.028071165084839,-0.277332603931427,-1.667050004005432
1772903289914478600,4.591478515625,1.7334420680999756,-1.0899449586868286,3.332735061645508,1.993862628936768,-0.1227838173508644,-1.6756020784378052
1772903289933464300,4.61046435546875,2.489727735519409,0.0087015628814697,3.795286178588867,1.811824917793274,0.0219911318272352,-1.5711442232131958
1772903289952450000,4.629449951171875,2.2626166343688965,1.0732747316360474,3.455808639526367,1.5693116188049316,0.0812450125813484,-1.5204424858093262
1772903289971435500,4.648435546875,1.747546911239624,1.6914560794830322,2.60013484954834,1.4459168910980225,0.1423314958810806,-1.5870267152786257
1772903289990421200,4.667421142578125,1.940146803855896,2.065882921218872,2.2872486114501958,1.389106512069702,0.1484401375055313,-1.637117624282837
1772903290009407000,4.686406982421875,2.4121317863464355,2.463402032852173,2.368581771850586,1.3267983198165894,0.1404989063739776,-1.6053526401519775
1772903293730589200,8.407589111328125,1.6693449020385742,3.736682653427124,2.376922130584717,-0.3738492429256439,-0.3371973633766174,-0.088575392961502
1772903293749575000,8.426574951171874,1.7350363731384275,3.1471917629241943,2.4286670684814453,-0.4502073526382446,-0.3200931549072265,-0.0714711770415306
1772903293768560600,8.445560546875,2.2927088737487797,2.580510139465332,2.739055633544922,-0.4966330528259277,-0.346971184015274,-0.0030543238390237
1772903293787546000,8.464546142578126,2.7707533836364746,2.6610355377197266,2.587575435638428,-0.5839866995811462,-0.1649334877729416,0.1838703006505966
1772903293806531600,8.483531494140625,2.246847152709961,3.164304733276367,2.037423610687256,-0.7757982611656189,0.1038470119237899,0.3665188550949096
1772903293825517300,8.502517333984375,0.9293718338012696,2.7432186603546143,1.4482407569885254,-0.9553925395011902,0.2492328286170959,0.4056142270565033
1772903293844503000,8.5215029296875,0.2946324348449707,1.585920810699463,1.1755924224853516,-0.9773836731910706,0.1398880332708358,0.3622428178787231
1772903293863488500,8.540488525390625,0.6727914810180664,0.2936224937438965,1.4960808753967283,-0.9181297421455384,-0.1710421442985534,0.3457494676113128
1772903293882474200,8.55947412109375,1.5925445556640625,-0.2782254219055176,1.910551071166992,-0.8643736839294434,-0.3769035637378692,0.4269944727420807
1772903293901459700,8.578459716796875,2.073103904724121,-0.156133770942688,1.9527602195739744,-0.8790343999862671,-0.2009745091199875,0.5314523577690125
1772903293920445400,8.597445556640626,1.790576457977295,0.4140686988830566,1.5926542282104492,-1.0060943365097046,0.3121519088745117,0.6071996092796326
1772903293939431000,8.616430908203125,0.9209251403808594,0.4709498882293701,0.864720344543457,-1.1368193626403809,0.6420188546180725,0.6737838387489319
1772903293958416600,8.635416748046875,0.2107229232788086,0.0133181810379028,0.1853065490722656,-1.183245062828064,0.6163625717163086,0.7922916412353516
1772903293977402000,8.654402099609374,-0.1094880104064941,-0.9197285175323486,0.0430412292480468,-1.1313215494155884,0.3048215210437774,0.908355951309204
1772903293996387800,8.673387939453125,-0.3607635498046875,-1.7554192543029783,0.3907732963562011,-1.0818414688110352,0.0519235059618949,0.952949047088623
1772903294015373300,8.692373291015626,-0.6743607521057129,-2.2018630504608154,0.624321460723877,-1.072678565979004,0.0519235059618949,0.8662062287330627
1772903294034359000,8.711359130859375,-1.0286836624145508,-2.339578866958618,0.5226564407348633,-1.0580178499221802,0.2926042377948761,0.6652317643165588
1772903294053344500,8.730344482421875,-1.2570195198059082,-2.284233570098877,0.2824616432189941,-1.062904715538025,0.5308414697647095,0.4386008977890014
1772903294072330000,8.749330078125,-1.2045512199401855,-2.2261996269226074,-0.0142111778259277,-1.0708459615707395,0.6798924803733826,0.2687804996967315
1772903294091315700,8.768315673828125,-1.1063880920410156,-2.482124090194702,-0.3703432083129883,-1.0195332765579224,0.750141978263855,0.1795942485332489
1772903294110301400,8.787301513671874,-0.8965625762939453,-2.70485258102417,-0.5740747451782227,-0.9230166673660278,0.7385355234146118,0.1948658674955368
1772903294129287000,8.806286865234375,-0.9752449989318848,-2.8531901836395264,-0.629035472869873,-0.8142827749252319,0.5980366468429565,0.2345720827579498
1772903294148272400,8.8252724609375,-1.2069745063781738,-2.8854825496673584,-0.4588088989257812,-0.7464767694473267,0.4495964646339416,0.2351829409599304
1772903294167258000,8.844258056640625,-1.641528606414795,-2.9575324058532715,-0.3335742950439453,-0.7342594861984253,0.3500255048274994,0.1472184062004089
1772903294186243800,8.863243896484375,-1.9609684944152832,-3.024022102355957,-0.4988574981689453,-0.7183769941329956,0.328645259141922,-0.0207694023847579
1772903294205229300,8.882229248046874,-1.9574670791625977,-3.091174840927124,-0.6723737716674805,-0.6805033683776855,0.305432379245758,-0.1820377111434936
1772903294224214800,8.90121484375,-1.628777027130127,-3.0990684032440186,-0.7267160415649414,-0.638353705406189,0.2559523284435272,-0.2730565667152405
1772903294243200500,8.920200439453126,-1.549677848815918,-3.0033836364746094,-0.9616751670837402,-0.5790998339653015,0.1893680840730667,-0.3213148713111877
1772903294262186200,8.939186279296875,-1.5603313446044922,-2.727524757385254,-1.0984745025634766,-0.5119046568870544,0.1227838173508644,-0.3530798554420471
1772903294281171700,8.958171630859376,-1.7579841613769531,-2.547755241394043,-1.0401639938354492,-0.4673115611076355,0.0690277218818664,-0.3976729810237884
1772903294300157200,8.9771572265625,-1.7795705795288086,-2.5041513442993164,-0.9829626083374025,-0.4386008977890014,-0.0592538826167583,-0.4434878230094909
1772903294319143000,8.996142822265625,-1.65667724609375,-2.6366255283355717,-0.8469705581665039,-0.3824013471603393,-0.2345720827579498,-0.5155698657035828
1772903294338128600,9.015128662109374,-1.493425369262695,-2.726728200912476,-0.5033473968505859,-0.3359756171703338,-0.3335321843624115,-0.6328558921813965
1772903294357114000,9.034114013671877,-1.1226038932800293,-2.807628631591797,-0.0599966049194335,-0.305432379245758,-0.3323104381561279,-0.7568614482879639
1772903294376099600,9.053099609375,-0.8477168083190918,-2.962025880813598,0.5474505424499512,-0.3139844834804535,-0.3707949221134186,-0.8973603844642639
1772903294395085300,9.072085205078125,-0.8680882453918457,-3.269566059112549,1.0920090675354004,-0.3775144219398498,-0.4495964646339416,-1.135597586631775
1772903294414071000,9.091071044921875,-0.6194477081298828,-3.1878304481506348,0.8637309074401855,-0.4013381600379944,-0.3671297430992126,-1.3909391164779663
1772903294433056500,9.110056396484374,0.0793771743774414,-2.8207449913024902,0.5963521003723145,-0.3927860558032989,-0.3164279460906982,-1.4984513521194458
1772903294452042000,9.1290419921875,0.3556909561157226,-2.7942569255828857,0.7219805717468262,-0.4037816226482391,-0.430659681558609,-1.515555500984192
1772903294471027700,9.14802783203125,0.1981983184814453,-2.6583640575408936,0.6690821647644043,-0.4605920314788818,-0.4801397025585174,-1.5479313135147097
1772903294490013200,9.16701318359375,0.0618653297424316,-2.0893871784210205,-0.4372553825378418,-0.4214966893196106,-0.4098902642726898,-1.5986331701278689
1772903294508999000,9.1859990234375,0.200510025024414,-1.446319818496704,-1.4895353317260742,-0.2724456787109375,-0.2718348205089569,-1.5888593196868896
1772903294527984400,9.204984375,0.620882511138916,-0.9935160875320436,-1.7908520698547363,-0.1404989063739776,-0.1802051067352295,-1.459966778755188
1772903294546970000,9.22397021484375,0.7156610488891602,-0.8762428760528564,-1.661673069000244,-0.0586430206894874,-0.1600465774536132,-1.2907572984695437
1772903294565955600,9.24295556640625,0.1422743797302246,-0.8414265513420105,-1.455064296722412,0.0250454563647508,-0.2040288299322128,-1.2107340097427368
1772903294584941300,9.26194140625,-0.4017558097839355,-0.8684659600257874,-1.225306510925293,0.1374445706605911,-0.328645259141922,-1.2730422019958496
1772903294603926800,9.2809267578125,-0.194216251373291,-0.8631072044372559,-0.8591299057006836,0.263893574476242,-0.42088583111763,-1.397047758102417
1772903294622912500,9.29991259765625,0.6607322692871094,-0.6636583805084229,-0.3518872261047363,0.3909534513950348,-0.3799578845500946,-1.469740629196167
1772903294641898000,9.31889794921875,1.5513148307800293,-0.0743156671524047,-0.0148906707763671,0.4776962697505951,-0.2247982323169708,-1.4434734582901
1772903294660883700,9.3378837890625,1.8313336372375488,0.6836029291152954,0.1475486755371093,0.4996874034404754,-0.1539379209280014,-1.3597849607467651
1772903294679869200,9.356869140625,1.6023492813110352,1.398207664489746,0.2077851295471191,0.4911352694034576,-0.1832594275474548,-1.2925899028778076
1772903294698855000,9.37585498046875,1.4545245170593262,1.9525275230407717,0.4304995536804199,0.4752528071403503,-0.2388481348752975,-1.2455532550811768
1772903294717840400,9.39484033203125,1.417349338531494,2.4473893642425537,1.3806910514831543,0.3414734005928039,-0.2217439115047454,-1.2284491062164309
1772903294736826000,9.413826171875,1.273033618927002,2.688395977020264,2.016019344329834,0.0977383628487587,-0.0439822636544704,-1.284037709236145
1772903294755811600,9.4328115234375,1.1628813743591309,2.7513468265533447,1.7509279251098633,-0.1099556609988212,0.258395791053772,-1.390328288078308
1772903294774797300,9.45179736328125,1.1600418090820312,2.776357412338257,0.9511866569519044,-0.2186895906925201,0.5143481492996216,-1.4721840620040894
1772903294793782800,9.47078271484375,1.495954990386963,2.8114616870880127,0.316436767578125,-0.2345720827579498,0.6053670048713684,-1.4196497201919556
1772903294812768300,9.489768310546877,1.7757821083068848,2.8591132164001465,0.0952486991882324,-0.2247982323169708,0.5259546041488647,-1.230892539024353
1772903294831754000,9.50875390625,1.8486266136169436,3.0192127227783203,-0.0448694229125976,-0.2040288299322128,0.4025598764419555,-0.9908226728439332
1772903294850739700,9.52773974609375,1.5384159088134766,3.2229905128479004,-0.0456633567810058,-0.1966984570026397,0.3335321843624115,-0.7867938280105591
1772903294869725200,9.54672509765625,1.103532791137695,3.4740090370178223,-0.0713534355163574,-0.21319180727005,0.3213148713111877,-0.6499601006507874
1772903294888710700,9.565710693359376,0.7708353996276855,3.630017757415772,-0.0753774642944336,-0.2510654330253601,0.3439168632030487,-0.5656607747077942
1772903294907696400,9.5846962890625,0.7899942398071289,3.685201168060303,-0.1413297653198242,-0.2919933497905731,0.3652971386909485,-0.4874700903892517
1772903294926681900,9.603681884765624,0.7731256484985352,3.5974783897399902,-0.0998978614807128,-0.3115410506725311,0.3353647589683532,-0.4129445850849151
1772903294945667600,9.62266748046875,0.888667106628418,3.3902676105499268,0.1720590591430664,-0.3506363928318023,0.2504545450210571,-0.3347539007663727
1772903294964653000,9.641653076171876,1.196451187133789,3.1301205158233643,0.6361837387084961,-0.4221075773239136,0.1899789422750473,-0.2498437017202377
1772903294983638500,9.660638427734376,1.343961238861084,2.7896649837493896,1.1598806381225586,-0.5241219997406006,0.211359217762947,-0.2034179717302322
1772903295002624300,9.679624267578124,1.147989273071289,2.226124763488769,1.850240707397461,-0.6847794055938721,0.2938259541988373,-0.2828303873538971
1772903295021610000,9.69860986328125,1.201756477355957,1.6788880825042725,1.9494709968566892,-0.7709113359451294,0.5308414697647095,-0.4062250852584839
1772903295040595500,9.717595458984375,1.8507885932922363,1.695865511894226,1.5465779304504397,-0.8045089244842529,0.7519745230674744,-0.3933969140052795
1772903295059581000,9.736580810546876,2.266580581665039,1.7723815441131592,1.2673487663269043,-0.8741474747657776,0.7770199775695801,-0.2467893660068512
1772903295078566700,9.755566650390625,2.07473087310791,1.0337848663330078,1.4376726150512695,-0.9590576887130736,0.6988292932510376,-0.1099556609988212
1772903295097552100,9.77455224609375,2.015352249145508,0.2239322662353515,1.4339723587036133,-0.953559935092926,0.5705476999282837,-0.0048869182355701
1772903295116537900,9.793537841796876,2.220900535583496,-0.3167335987091064,1.5729765892028809,-0.9217949509620668,0.4709767401218414,0.0836884751915931
1772903295135523300,9.8125234375,2.248610496520996,-0.4917173385620117,1.7607970237731934,-0.9578359723091124,0.5882627964019775,0.1496618688106537
1772903295154509000,9.831509033203124,1.98322868347168,-0.3263642787933349,1.547739028930664,-1.0225876569747925,0.925460159778595,0.2095266133546829
1772903296303136500,10.980136474609376,1.7951903343200684,1.180738925933838,-0.2532448768615722,-0.544891357421875,-0.4166097939014435,-0.4654789566993713
1772903296322122000,10.9991220703125,1.799305438995361,1.3011751174926758,0.6093368530273438,-0.6273581385612488,-0.1857028901576995,-0.3744601011276245
1772903296341107700,11.018107666015624,0.908210277557373,1.3760361671447754,0.8730478286743164,-0.7446441650390625,0.2761108875274658,-0.4294379353523254
1772903296360093200,11.03709326171875,0.5559391975402832,1.4629600048065186,0.4531641006469726,-0.80389803647995,0.4593703150749206,-0.4728093445301056
1772903296379079000,11.056078857421875,0.8211698532104492,1.3937846422195437,0.1159090995788574,-0.8368847370147705,0.3689623177051544,-0.3371973633766174
1772903296398064400,11.075064453125,1.4251642227172852,1.3149868249893188,0.2952160835266113,-0.9364557266235352,0.1014035567641258,-0.0048869182355701
