time,seconds_elapsed,acc_z,acc_y,acc_x,gyro_z,gyro_y,gyro_x
1772650943777230600,0.066230712890625,0.0213531691521406,-0.0187053215244784,0.0074465988120529,0.0023568514734506,0.0003217160701751,-0.0002166625927202
1772650943787202300,0.076202392578125,0.0382663100302219,-0.0378696388628333,0.0121626310158986,2.31233425438e-05,0.0014916430227458,-0.0014230746310204
1772650943797175300,0.08617529296875,0.0313835647791624,-0.0339954643106088,0.0266832324679475,0.0009249462746083,-0.0001809359528124,0.0028258990496397
1772650943807147500,0.0961474609375,0.0149222593218088,-0.0397780297674238,0.0179066088948398,-0.0009027812629938,0.0023605190217494,0.0018024459714069
1772650943817119200,0.106119140625,0.0153776018738746,-0.0191770306894555,0.0183690753074362,-0.001269465778023,-0.0007757551502436,-0.0010676092933863
1772650943827092500,0.116092529296875,0.0302010769963264,0.0129107003036886,-0.0087482377288397,0.0016677347011864,-0.0028218617662787,-0.0008028910378925
1772650943837064400,0.126064453125,0.0346960503280162,0.0205554429031908,0.0027288313088472,-0.001293018227443,-0.0017440395895391,0.0005969901103526
1772650943847036400,0.136036376953125,0.0387368501514196,0.0214930160142481,-0.0207990880664903,-0.0005294899456202,0.0005516051314771,-0.0014821398071944
1772650943857009400,0.146009521484375,0.0269148949325084,0.0434719158492982,-0.0207057198277674,0.0003753337077796,0.0007857759483158,0.0006276236963458
1772650943866981600,0.155981689453125,0.0345405675053596,0.0364807417877018,-0.0078511518917977,-0.0011248248629271,0.0021075028926134,0.000657983648125
1772650943876954400,0.165954345703125,0.0408218397319316,0.0090093089509755,-0.0028529508788604,6.61863014101e-05,-7.80043192207e-05,-0.001388190081343
1772650943886926300,0.17592626953125,0.0300455941736698,-0.0136979416912421,0.0003383651088923,-0.0009830994531512,0.0007374556735157,0.0003359403344802
1772650943896898600,0.185898681640625,0.0447159245610237,-0.0195927718834951,0.0145320087620522,-0.0002032262273132,-0.0003819963894784,-0.0032288013026118
1772650943906871300,0.195871337890625,0.034541736549139,-0.0167115173587575,0.0002906352433376,-0.0033247172832489,0.0002899193204939,0.0012511684326454
1772650943916843500,0.205843505859375,0.0385872125476598,-0.0211146476885303,-0.0092132614247035,-0.0009270827285945,-0.0017456547357141,-0.0015102145262062
1772650943926815500,0.2158154296875,0.0329039062142372,-0.0186603864042088,0.0149015635936521,0.0017206319607794,-5.29494136571e-05,0.0016448323149234
1772650943936788200,0.225788330078125,0.0450268902063369,-0.0055506929297,0.0186681313192471,-0.0002893204800784,1.33011490106e-05,-0.0010610688477754
1772650943946760400,0.235760498046875,0.0210872116923332,0.0200736507356166,-0.0004244816229213,-0.0008144956082105,0.0023273220285773,0.0012865077005699
1772650943956733400,0.2457333984375,0.0388952555835247,0.0257015005547553,0.0035409148767124,-0.001315827248618,0.0020434134639799,-0.0013100714422762
1772650943966705400,0.255705322265625,0.0272229379683732,0.0211984535144642,-0.0168540676346048,-0.0009120921604335,-0.0014695625286549,0.0016734679229557
1772650943976677400,0.265677490234375,0.0324614231437444,0.0090602354206144,-0.0207065144122112,0.0020514531061053,-0.0017107813619077,0.000666499719955
1772650943986650400,0.275650390625,0.0306663564205169,0.007733078470081,-0.0037133214347064,-0.0031576899345964,0.0020445417612791,2.3073516786e-06
1772650943996622300,0.285622314453125,0.0269254163265228,0.0016267244189977,-0.0036718386468477,-0.0009247292764484,0.000102377962321,0.0013379327720031
1772650944006594300,0.29559423828125,0.0390402170121669,0.0061261181974783,-0.0049046775105874,-6.2049366533e-06,0.0005085100419819,0.0015725571429356
1772650944016567600,0.305567626953125,0.0323000951021909,0.005577398273535,0.005251965711452,-0.0006912830285727,-0.0002332031726837,0.0022194539196789
1772650944026539300,0.315539306640625,0.0287111306995153,-0.0185553185945376,-0.0033460224922746,0.0001854295842349,0.0003779921680688,-0.0020661046728491
1772650944036512300,0.32551220703125,0.0329033216923475,-0.0319617299932986,0.0099192999353632,0.0005964329466223,-0.0006613638252019,0.002847553929314
1772650944046484500,0.335484375,0.0182370829582214,-0.0105120781967416,-0.0077360193458385,-0.001889627892524,-0.0003388551995158,-0.0018428053008392
1772650944056456400,0.34545654296875,0.0574444732308387,0.0012569777911528,0.0062279072046745,0.0004810383543372,-0.0008291823323816,0.0005526081076823
1772650944066429400,0.355429443359375,0.0424824664205312,-0.0150800802320241,-0.0032584812061395,-0.0011205868795514,-0.0008899024687707,0.0004074657917954
1772650944076401400,0.3654013671875,0.0327560221761465,0.008269888760522,-0.0068536470207385,0.002863478846848,0.0006779762916266,-0.0003557670570444
1772650944086373400,0.375373291015625,0.0381382997363805,-0.002838072970137,-0.0356369296410121,-0.001021540723741,0.0023107603192329,0.0005614256369881
1772650944096346400,0.385346435546875,0.0391840093970298,0.0225522427435964,-0.0022065336009487,-0.0002179387956857,0.0042003747075796,-0.0012328214943408
1772650944106318600,0.395318603515625,0.0334942733228206,0.0199084137039259,-0.0040071532821282,-0.0001692026853561,0.0015433384105563,0.0001666696625761
1772650944116291600,0.40529150390625,0.0354296252995729,0.005993979717791,-0.0164532134824432,-0.0022326176986098,0.0001346473582088,0.0009441756410524
1772650944126263300,0.41526318359375,0.0460509725570678,-0.0088190470758825,-0.0152722418032586,-3.5520642995e-06,-0.0012059879954904,9.32956463657e-05
1772650944136235500,0.425235595703125,0.0300374108672142,-0.008485138946399,0.0075410173635464,0.0009221136569976,-0.0019298552069813,-0.0011822128435596
1772650944146208500,0.43520849609375,0.0354231955587863,-0.0208136554479599,-0.0004124897910282,-0.0004411581903696,0.0011181328445672,9.13108233362e-05
1772650944156180500,0.445180419921875,0.0324339506149291,-0.0086380644857883,0.0074088240849319,0.0002903449349105,4.9122609198e-05,-0.0007930375286377
1772650944166152400,0.45515234375,0.0280979672372341,-0.0217891859492287,0.0016802629708312,-0.0016921123024076,-0.0019133610185235,0.0007955380715429
1772650944176125400,0.46512548828125,0.0330395152926445,-0.0067772755825892,-0.0174222868434619,0.000688690226525,0.0013510165736079,-0.001050523482263
1772650944186097400,0.475097412109375,0.027353870871663,0.0170047646842896,-0.0241584266980644,-0.0009142667986452,-0.0002807020209729,0.0006738734082318
1772650944196070400,0.4850703125,0.0396276615113019,0.0157303243016824,-0.0161353523054625,0.0004355325363576,-0.0001816065050661,0.0002134477254003
1772650944206043100,0.495043212890625,0.0313946706950664,0.0024409634113311,-0.0075813311076257,-0.0009759427048265,-0.0024572778493165,0.0004533985629677
1772650944216015400,0.505015380859375,0.0346814372807741,0.0233940638625994,-0.0144861603263299,0.0005477233789861,-0.0010013389401137,0.0007131845341064
1772650944225988400,0.51498828125,0.0360211614519357,0.0073022127721458,-0.011330828967411,-3.95034439861e-05,0.0006330432370305,0.0017701932229101
1772650944235960300,0.524960205078125,0.0370662865906953,0.0095831633161753,-0.0051425505202263,-4.40995208919e-05,0.000931188929826,0.0004311667289584
1772650944245932300,0.534932373046875,0.0321200623601675,0.0046087724370881,-0.0030324538979213,-0.0006680781953036,-0.0003228937275707,0.0017638124991208
1772650944255905300,0.5449052734375,0.0394534739881753,-0.004628828844428,0.0083582154979463,-0.0017168740741908,-0.0017750493716448,0.0014212732203304
1772650944265877200,0.554877197265625,0.0325730668246746,-0.0083785002341493,0.0164571864046622,-0.0016590834129601,0.0012745363637804,-0.0023044890258461
1772650944275850200,0.564850341796875,0.0316810864210128,-0.0188468488870188,0.0107290271493606,-0.0014791034627705,-0.0028265533037483,-0.0018536879215389
1772650944285822500,0.574822509765625,0.0198649764209985,-0.0086377356922253,0.0064731872026342,6.26007094979e-05,-0.00067631714046,-0.0002347522822674
1772650944295794200,0.584794189453125,0.0378273340910673,-0.0047004693085327,0.0074127330750692,0.0006863512098789,-0.000758153386414,0.0019534467719495
1772650944305767400,0.594767333984375,0.04246609980762,-0.019608334778808,0.0033592107674106,0.0002977959811687,-0.0007280595600605,-0.0010391471441835
1772650944315739400,0.604739501953125,0.0394745167762041,-0.0012620558250695,0.008377678250242,0.0008139889687299,0.0023323823697865,-4.1265215259e-05
1772650944325711400,0.61471142578125,0.0390256039649248,0.0032416853349655,-0.0131148171741981,0.001191624905914,-0.000934783834964,0.0016799357254058
1772650944335684400,0.624684326171875,0.0403676662236452,0.00676646192763,-0.0226946560221258,-0.0022122096270322,0.0018216660246253,-0.0010594057384878
1772650944345656300,0.63465625,0.0253992296725511,0.0089812153676524,-0.0191683907252736,0.001015807967633,-0.0010335091501474,0.0028892632108181
1772650944355629300,0.64462939453125,0.0505348399728536,0.0160703699110075,-0.0179240714862942,0.0014946926385164,0.000759785529226,-0.002239438239485
1772650944365601300,0.654601318359375,0.0357195481568574,0.0069525225516408,0.0120877756814006,4.85964119434e-05,-0.0007417045999318,0.0006317156367003
1772650944375573500,0.664573486328125,0.0328735110759735,0.0069371423194184,-0.0020345015022903,-0.0007809791713953,-0.0011442147661,0.0009556039003655
1772650944385546200,0.674546142578125,0.0246381821721792,0.0035229864943772,0.0038151926402933,0.0003111832775175,-0.0009189113043248,6.23796950094e-05
1772650944395518200,0.684518310546875,0.04947860891819,0.003029065497592,-0.0041504159440286,-0.0008570975624024,0.0004458292387425,0.0010721645085141
1772650944405490400,0.694490478515625,0.0333165786683559,-0.0114671504318714,0.007623708944628,-0.0010049031116068,0.0007425057701766,-0.0010554349282756
1772650944415463200,0.704463134765625,0.0397515801519155,-0.0196596631072461,-0.0073731408501975,-0.0006452808156609,0.0002529695630073,0.0019323404412716
1772650944425435400,0.714435302734375,0.0406464831650257,-0.0047145343665033,0.0109831389077473,-9.8505988717e-06,0.0016929409466683,0.0018907950725406
1772650944435408400,0.724408447265625,0.0222393043369054,-0.0188715814694762,0.0247385646735783,0.001649834215641,-0.0001639244146645,1.0697403922e-06
1772650944445380000,0.734380126953125,0.0434860905051231,0.0194718489175662,0.0164947602023836,0.0027651656419038,-0.0001990781165659,0.0004151912871748
1772650944455352300,0.744352294921875,0.0449853891521692,0.0143417194874957,0.0055201881935819,0.0010853633284568,-0.0004640943370759,-0.0027875700034201
1772650944465325300,0.7543251953125,0.0352595294296741,0.0114199137566611,-0.0182723826004657,-0.0008848435245454,0.0008584312163293,0.000568812014535
1772650944475297300,0.76429736328125,0.0440834718763828,0.0255086813963949,-0.0205914001325611,0.0003661951050162,-0.0020118926186114,-0.0003501241153571
1772650944485269200,0.774269287109375,0.041684594041109,0.0444923449382185,-0.0242121205135248,0.0018298681825399,0.0009764404967427,0.0005990265053696
1772650944495242200,0.7842421875,0.0353957230299711,0.0305453238567337,-0.0133310902733821,-0.0005441703833639,0.0005996394902467,-0.0011961929267272
1772650944505214200,0.794214111328125,0.0207259771645069,0.013618556312099,-0.0162521562187001,0.0011991350911557,-0.0005210186354815,0.0016813524998724
1772650944515187200,0.804187255859375,0.0421183092832565,0.007813815556094,-0.0213164721372537,0.0028567700646817,-0.0026934880297631,0.0028283158317208
1772650944525159400,0.814159423828125,0.0249088158071041,-0.0220211315415799,-0.0076092694273218,0.0022130841389298,-0.0010111692827194,-0.0002444395795464
1772650944535131100,0.824131103515625,0.0196679925441741,0.0041306700639426,0.0266825292150489,0.0007710298523306,-0.0002040402032434,0.0057151550427079
1772650944545104400,0.8341044921875,0.0341775794118642,-0.0104552334429696,-0.0054952638148795,0.0018397564999759,-0.0005995195824652,2.21157097257e-05
1772650944555076400,0.844076416015625,0.0467442155182361,-0.0101652375204488,-0.0156957553118001,0.0016331952065229,-0.0008060336112976,0.0018224723171442
1772650944565048300,0.85404833984375,0.039562195059657,0.0043535920996218,0.0017000636498443,0.0016395868733525,0.0010595107451081,0.0005643950426019
1772650944575021300,0.864021240234375,0.0259457576394081,0.0034446970937773,-0.0120652898549567,-8.52537341415e-05,-0.0008380357176065,-0.0007651806809008
1772650944584993300,0.8739931640625,0.0295364756077528,-0.0090118297016248,0.0029465657127555,-0.0008940561674535,0.003386802971363,-0.0006125815561972
1772650944594966500,0.883966552734375,0.0299818812876939,0.0032967034578323,0.0063725033071357,0.0005622948519885,0.001029129140079,0.000874312245287
1772650944604938200,0.893938232421875,0.0289320799738168,-0.0007804097879678,-0.0141997719998471,0.001841677352786,0.0002179299481213,6.630923599e-05
1772650944614910500,0.903910400390625,0.0444885455459356,0.0113646764380857,-0.0065695419828873,0.0034414194524288,7.48988240957e-05,0.0026524139102548
1772650944624883500,0.913883544921875,0.0298228913336992,0.0050739787960425,-0.0092064206919632,0.0029836222529411,0.0013606729917228,-7.35976500436e-05
1772650944634855200,0.923855224609375,0.0334130247801542,-0.0105975279904901,-0.0060439472062047,0.0006746472790837,-0.0005645859055221,-0.0009891389636322
1772650944644827400,0.933827392578125,0.0329682036221027,-0.0017549904411658,-0.0008507076783571,0.0014357785694301,0.0030591776594519,-0.0016543965321034
1772650944654800400,0.94380029296875,0.0238379717051982,-0.0113122155984863,-0.0042362310639582,0.0018880530260503,0.00025329971686,0.0034213354811072
1772650944664772400,0.9537724609375,0.0495727169424295,0.0007635682510212,-0.0112580194595269,-0.0003346214070916,2.63983383774e-05,8.03998555056e-05
1772650944674745300,0.963745361328125,0.0233826291531324,-0.0133748106840997,0.0153286481656134,0.0010216776281595,-0.001578344264999,0.0013893286231905
1772650944684717300,0.97371728515625,0.0411859968692064,-0.0070707055712118,0.0197965508272871,0.0009401850402355,-0.0002403720282018,0.000781861541327
1772650944694689300,0.983689208984375,0.0555500377863645,0.010317432407476,0.0127488608054816,0.0008106562308967,0.0028738197870552,-0.0008173976675607
1772650944704662300,0.993662353515625,0.0500105238378047,0.001538461613655,0.0154990271633025,0.0003328854218125,0.0007534106262028,0.0001312203239649
1772650944714634500,1.003634521484375,0.0332440979540348,0.0096685765773057,-0.0071174947218503,0.0023122946731746,0.0012162984348833,0.0013579182559624
1772650944724606200,1.013606201171875,0.0408697705268859,0.0166019195044413,-0.0082716057935729,-0.0011247810907661,-0.0009416609536856,0.0018428798066452
1772650944734579200,1.0235791015625,0.031440263402462,0.0236554547451436,0.0004599730614107,-0.0020600960124284,-0.0011318265460431,0.0020044075790792
1772650944744551400,1.033551513671875,0.0253074597358703,0.022909787476994,0.0012180888191796,0.0005593891255557,-0.0014269046951085,4.64514014311e-05
1772650944754524200,1.043524169921875,0.0350309813708066,0.0108748470945283,-0.0050496206729207,-0.0030138087458908,-0.0003616479225456,0.0013147466816008
1772650944764496400,1.053496337890625,0.0564227289676666,-0.0096276965776458,-0.0014455500326585,0.000972943380475,0.0014423774555325,-0.0004384122730698
1772650944774468400,1.06346826171875,0.0393605350077152,-0.0077591262267902,-0.0094315072852652,0.0010164277628064,-0.0015281899832189,0.0013862596824765
1772650944784441300,1.07344140625,0.0303787716507911,-0.0009352350234985,-0.0162112579527311,0.0017775590531527,-0.0015526912175118,0.0018259475473314
1772650944794413300,1.083413330078125,0.0350216290205717,0.0106125428965315,0.0068374722040724,-0.0002290690317749,0.0013643302954733,0.0002421419485472
1772650944804385500,1.093385498046875,0.0338239436686039,0.0022205986589193,-0.0082118932292796,-0.0011880733072757,0.0013158605434,3.01543041132e-05
1772650944814358300,1.103358154296875,0.0321744228959083,0.0045177331527695,-0.0044262920096516,0.001538913231343,0.0022914535365998,0.0012440623249858
1772650944824330200,1.113330322265625,0.039657472127676,-0.0064105976946651,0.0126717404486611,-0.0017511560581624,-0.0005647866055369,0.0015191668644547
1772650944834303500,1.123303466796875,0.0422048185229301,-0.0022686025191098,0.0080264353934675,0.0002932823263108,0.0009471122175455,-0.001347585581243
1772650944844275200,1.133275146484375,0.0366635510087013,-0.0138024980442598,0.0092017993157729,0.0011071446351706,-0.0007836760487407,0.0016023979987949
1772650944854247400,1.143247314453125,0.0314250658333301,0.0030396964894607,-0.0020712441829498,0.0009332592599093,-0.0022456608712673,0.0019260795088484
1772650944864220400,1.153220458984375,0.033818098449707,0.0005892345974221,0.004051257285336,0.0017596380785107,-0.0002733236178755,-0.0007733005913905
1772650944874192100,1.163192138671875,0.0499795441776514,0.004786503624171,-0.0107109252370893,0.0028776312246918,-0.0013530007563531,-0.001115292077884
1772650944884164400,1.173164306640625,0.0338151758402585,0.0126845633976161,0.0105614611632656,-0.0009043239988386,-0.0004262207075953,0.0027494872920215
1772650944894137300,1.183137451171875,0.0302191971749067,0.0063673065422102,-0.001613664008025,-0.0006367582827806,0.0002460391260683,0.0007139834342524
1772650944904109300,1.193109375,0.0297679462760686,0.0127977779811248,-0.0104450043099001,0.0001147859729826,0.0001869169063866,-0.0001523428363725
1772650944914082300,1.203082275390625,0.0233364519238471,-0.0001623509548604,-0.0029726317357737,0.002159000840038,0.0014367122203111,-0.0011709604877978
1772650944924054300,1.21305419921875,0.0240828863769769,-0.004923062550649,-0.0072147080186288,0.0013672434724867,-7.86264427006e-05,0.0039140791632235
1772650944934026200,1.223026123046875,0.0342523982137441,-0.0021594065235927,-0.0016088965013623,-0.0005486984737217,0.0010836753062903,0.0024798274971544
1772650944943999200,1.232999267578125,0.032900399082899,-0.0148715155152603,0.0202263022803701,0.0022601373493671,-0.0023800318595021,0.0020960662513971
1772650944953971500,1.242971435546875,0.0381347926050424,-0.0090410923287272,0.0042056349962949,-0.000592962373048,-0.0023015842307358,0.0024325193371623
1772650944963943200,1.252943115234375,0.0273556244373321,-0.0093197996722534,0.0024189433757681,-0.0013338539283722,0.0010329596698284,0.0017835069447755
1772650944973916400,1.26291650390625,0.0254097510665655,-0.0127364397153258,0.0091612207102123,0.0001646005548536,0.0001931204460561,2.15664622373e-05
1772650944983888400,1.272888427734375,0.0373866045862436,-0.0075516940211877,0.0034084019376896,0.0013584955595433,0.0024014133960008,-0.000286561291432
1772650944993861400,1.282861328125,0.0303530526876449,-0.0062644672222435,0.0104268932644743,-0.0012690040748566,0.0009692083112895,-0.0007177724037319
1772650945003833300,1.292833251953125,0.0281067350655794,0.0001648351728916,0.025424318448035,-0.0007068109698593,0.0012062294408679,-0.0019614687189459
1772650945013805300,1.302805419921875,0.0309504340589046,-0.0014882657963782,0.0041697325658518,7.73346982896e-05,0.0007536928169429,-6.41508959233e-05
1772650945023778600,1.312778564453125,0.0321393515825271,0.0097868691947311,0.0169629348365589,-4.6235974878e-05,0.0005281227640807,0.0019784937612712
1772650945033750300,1.322750244140625,0.0349807124882936,-0.0050018634079024,0.0005495693073142,-0.0003472911193966,0.0008710417896509,-0.0008958464022725
1772650945043723300,1.33272314453125,0.0363297890096902,0.0137877023339271,0.0022485917775426,0.0011448781006038,-0.0002456214278936,-0.0014492513146251
1772650945053695500,1.342695556640625,0.0333335298031568,0.0092407430866733,-0.0172647307947278,0.001488147303462,-0.001278928015381,0.0036147655919194
1772650945063667200,1.352667236328125,0.023752631509304,0.0118211880339309,-0.0060625057762023,4.76432032883e-05,-0.0036083948798477,-0.0013014297001063
1772650945073640400,1.362640380859375,0.0354296252995729,0.0134666536860167,0.0171563476499635,-0.0023553008213639,0.0012376401573419,-0.0013259158004075
1772650945083612400,1.3726123046875,0.035725977897644,0.0064310559608042,-0.0021935188557486,0.0014759227633476,0.0003891568630933,0.0027505848556756
1772650945093584400,1.38258447265625,0.0411088399797677,0.0063776452731341,-0.0094408139697276,0.0016347235068678,-1.25155784189e-05,0.0013103180099278
1772650945103557400,1.392557373046875,0.0436515101999044,-0.0141050246547907,-0.0006341605845373,-0.0013285756576806,-0.0007667227182537,-0.0007067602709867
1772650945113529300,1.402529296875,0.0313835647791624,-0.0053339814390987,0.0037157417206559,0.0005870824679732,0.0010961410589516,-0.0011037138756364
1772650945123502300,1.41250244140625,0.0327343948662281,-0.001442453893274,-0.0086177888827398,0.0007058596238493,-0.001487657893449,-0.0022749721538275
1772650945133474300,1.422474365234375,0.0450105235934257,-0.0105581458281725,0.0078020703193731,-0.0015793165657669,-0.0006713771726936,-0.0007386691868305
1772650945143446300,1.4324462890625,0.0290010535567998,0.0009358195453882,0.0116144042822998,-0.0013340394943952,0.0001318319700658,-0.0003349339822307
1772650945153419300,1.442419189453125,0.0345370603740215,-0.0011520561119541,0.0005250011216383,0.0002001216635107,-0.0012372441124171,-0.0008488125167787
1772650945163391200,1.45239111328125,0.0429220268815755,0.0009587985621765,-0.0109544608025345,-0.0001972219906747,0.0008368259295821,-0.0023082247935235
1772650945173363200,1.46236328125,0.0317044672966003,0.0079837287629023,0.0053898672116454,-0.0006900401785969,-0.0006245216354727,0.0011326189851388
1772650945183336200,1.472336181640625,0.0279611891150474,-0.0065936991766095,-0.0194350514379795,-0.0032650507055222,-0.0014314595609903,-0.0012306701391935
1772650945193308400,1.482308349609375,0.0296089563220739,0.0083319576786831,-0.0101130141428671,-0.00131401931867,0.000334708020091,-0.0008875212515704
1772650945203279400,1.492279296875,0.0447223543018102,0.0098466000253334,-0.0037938758576288,0.0005208984948694,0.0017696195282042,0.001021698815748
1772650945213252400,1.50225244140625,0.0342453839510679,0.004796221300587,-0.0011651347892358,0.0013754060491919,-0.0016584659460932,-0.0001634110813029
1772650945223224300,1.512224365234375,0.0254191034168005,0.0103614176796749,-0.0038364454908762,-0.0009452723897993,-5.39114698767e-05,-0.0018294847104698
1772650945233197300,1.522197265625,0.0397878205090761,0.0096786230472847,0.013267998441914,-8.68807546794e-05,-0.0004359507001936,-0.0016389966476708
1772650945243169300,1.532169189453125,0.0405348394840955,-0.0044765243595466,0.003615952874301,0.0001746416091918,0.0013369158841669,0.0015722431708127
1772650945253141500,1.5421416015625,0.0379915847420692,-0.0165920922301709,0.0011170578638091,0.0007931017316877,-0.0017655179835855,-0.0005510691553354
1772650945263114200,1.5521142578125,0.0290133285164833,-0.0126758321018889,-0.0024229345642961,0.0022759498097002,0.0017149671912193,-0.0012408278416842
1772650945273086200,1.562086181640625,0.0273661458313465,-0.0098215751819312,-0.0041181941748596,-0.0021943119354546,0.00014976458624,-0.0007965575787238
1772650945283059500,1.5720595703125,0.0382931980371475,-0.0054467576311901,-0.009681993181305,-0.0010294453240931,-0.0008987218607217,-0.0021752761676907
1772650945293031200,1.58203125,0.0312625687479972,0.0075300667112693,-0.0064593322072178,0.0038280258886516,-0.0016093847807496,-0.000116899725981
1772650945303003400,1.59200341796875,0.0368026672184467,0.0023685557622462,0.0057531201666221,-0.0019409134984016,-0.0007635648362338,8.07068427093e-05
1772650945312976400,1.601976318359375,0.0222936648726463,-0.0019852920657023,0.0110192148681264,0.0010516089387238,-0.0002723503857851,-0.0019369770307093
1772650945322948000,1.611947998046875,0.0365133288830518,0.0032128976318985,-0.0009413725033402,0.0001812875270843,0.0004498991183936,-0.000449068902526
1772650945332920300,1.62192041015625,0.0384556951224803,0.0128926531903445,-0.0061625229514203,0.0006660930812358,-0.0004880023188889,-3.9062462747e-05
1772650945342893300,1.631893310546875,0.0327729733109474,0.0203104551661759,0.0014199771999847,0.0014930046163499,0.0006411778740584,-0.0030036931857466
1772650945352865300,1.641865234375,0.0299292743176221,0.0026924904869869,-0.0009256726107094,-0.0012337102089077,-0.0020876340568065,-0.0005726976669393
1772650945362838300,1.65183837890625,0.0540250201761722,-0.0049031522737815,0.0035991661362815,-0.0006432873196899,0.0003257226198911,-0.0027287928387522
1772650945372810200,1.661810302734375,0.0330780937373638,-0.0069351330254226,0.0091143676274921,0.0017454009503126,-0.0005481061525642,-0.0011233182158321
1772650945382782200,1.6717822265625,0.0390653514534235,-0.0026665157955139,-0.0009431443353183,0.0004577622748911,-8.33845697343e-05,-0.0003600561758503
1772650945392755200,1.681755126953125,0.0300911868810653,0.0038053470997139,-0.0012287746099755,-0.0009047510102391,-0.0011875282507389,-0.0002153220702894
1772650945402727400,1.6917275390625,0.0312906257987022,-0.0054218058530241,-0.0069788625692948,-0.0012224658858031,-0.0005896487273275,0.0006752390181645
1772650945412699100,1.70169921875,0.0241097743839025,0.0148986957831308,0.0081897087969351,0.0027537681162357,0.0005603032186627,-0.0018338719382882
1772650945422672400,1.71167236328125,0.0268085119485855,-0.0071607584748417,0.020783031980833,-0.002219419227913,-0.0005052275955677,-0.0008080222760327
1772650945432644400,1.721644287109375,0.0266600433886051,-0.0053883054422214,-0.0120913010790478,0.0016246084123849,-0.0003490652889013,0.0004364705528132
1772650945442617300,1.731617431640625,0.0301022927969694,0.0062995020030066,-0.0051427788490895,-0.0024348481092602,-0.0005908804014325,-0.0010447796666994
1772650945452589300,1.74158935546875,0.011397007805109,-0.0096813995262607,-0.00164866225617,0.0009799022227525,-0.0019891315605491,-0.0001364356721751
1772650945462561300,1.751561279296875,0.0407294852733612,0.0041732670966535,-0.0048333749732002,0.0028052325360476,-0.0011017662473022,-0.0009460366563871
1772650945472534500,1.761534423828125,0.0363958399832248,-0.016915807759203,-0.0078959774142131,-0.000391349196434,-0.0003490410745143,-0.000864275090862
1772650945482506200,1.77150634765625,0.0275730665802955,0.0196279162621125,0.0161605141461826,-0.0021224038209766,-0.0001160143874585,0.0010012693237513
1772650945492478500,1.781478515625,0.0396931279629468,0.0080958839004859,-0.0230936926765367,-0.001459902152419,-0.0011448960285633,-0.0006603437941521
1772650945502451500,1.791451416015625,0.0254758020401,0.0102012952145189,-0.0040584816105663,0.0012400108389556,0.0011424929834902,0.0012065321207046
1772650945512423200,1.801423095703125,0.0203846163809299,0.0122200876910239,-0.0012972458694595,0.0018428456969559,0.0002910257317125,-0.0011345458915457
1772650945522396400,1.811396484375,0.0537596472382545,0.008256371691823,0.0070188201203476,-0.0011140620335936,0.0007477579638361,0.0010567030403763
1772650945532368400,1.821368408203125,0.0348982949018478,0.0279154868097975,0.0004166819089557,-0.0001352867111563,3.6837067455e-05,2.90267635136e-05
1772650945542340400,1.83134033203125,0.0334036724299192,-0.0032409912152215,-0.0047900016223546,-0.0011619352735579,-0.0001935265026986,0.0001547279534861
1772650945552313300,1.841313232421875,0.0170879129230976,-0.0024789573341608,0.0010665058535058,-0.0022881908807903,-0.0004370058886706,-0.0003879246651194
1772650945562285300,1.851285400390625,0.04686754963696,0.019417707577534,-0.0035261191663797,0.0012024142779409,0.0011230739764869,-0.0011586435139179
1772650945572257300,1.86125732421875,0.0345990196943283,0.0125322223801165,-0.0014827859036624,0.0010533919557929,-0.0008872738108038,-0.0002273453574161
1772650945582230300,1.871230224609375,0.038944939944148,0.0125730658471584,-0.0147533598951529,0.0003266152925789,-0.0023522789124399,-0.0005349404527805
1772650945592202500,1.881202392578125,0.0343137730121612,0.0169016696359962,-0.0070921958838123,0.0011504050344228,-0.0003327960148453,-0.0014933506026864
1772650945602175200,1.89117529296875,0.0250426713198423,0.0128411421988159,-0.0022476510626263,0.0014193840324878,-0.0010997862555086,-0.0022739232517778
1772650945612147500,1.9011474609375,0.0380658190220594,0.0017150237569585,-0.013008936513774,-0.0022494955919682,0.0019005448557436,-0.0018508111825212
1772650945622119400,1.911119384765625,0.0286380654633045,-0.008952318066731,0.0039330103336833,4.48175705969e-05,0.00218150857836,-0.0015879571437835
1772650945632092200,1.921092041015625,0.026844752305746,-0.0037021789861842,0.0021547577479388,0.0028164209797978,-0.0013243237044662,-0.0008931335178203
1772650945642064400,1.931064453125,0.0332861835300922,-0.0062409402161836,-0.0009757679632864,0.0014116037636995,-0.0013070132117718,-0.0028391054365783
1772650945652036400,1.941036376953125,0.0240109901845455,-0.0144850004157051,-0.0046053292378317,0.0014550341293215,-0.0029522064141929,2.30107689276e-05
1772650945662009300,1.95100927734375,0.0289513691961765,-0.0079051471013575,0.0129224272741004,0.0003527519293129,-0.000748973339796,0.001521305181086
1772650945671981300,1.960981201171875,0.034043723899126,-0.0128184189103543,-0.0017017624165862,0.0021325554698705,0.000635702162981,0.001140555134043
1772650945681954300,1.970954345703125,0.0317979907989501,-0.009007409254834,-0.0225900174707174,-0.0002304674126207,-0.0014026812277734,-1.23272184282e-05
1772650945691926300,1.98092626953125,0.0303016147613525,-0.0052585050500929,-0.0035441023476421,0.0005129016935825,-0.0016293567605316,-0.0012804454891011
1772650945701898200,1.990898193359375,0.0216243873089551,0.0086439097046852,-0.0103649156778585,-0.0004735332913696,9.7170472145e-05,-0.0009398271795362
1772650945711871500,2.00087158203125,0.0163853176116943,0.0158774411547929,-0.0113877559195738,0.0017059911042451,0.0010398095473647,0.0018204086227342
1772650945721843200,2.01084326171875,0.0205693252980709,0.02251399309244,-0.0091107417651452,-0.0018173709977418,-0.0023056536447256,0.0002621930325403
1772650945731815400,2.0208154296875,0.0334352366119623,0.0143902713369578,-0.0014332476735115,0.0004596756771206,0.0008664964698255,-0.0010818662121891
1772650945741788400,2.030788330078125,0.0454074139565229,0.0161295527523383,0.001939617159916,-0.0009603216312825,0.0004896596074104,-0.0021370106842368
1772650945751760100,2.040760009765625,0.0487011948049068,-0.0006639803340658,-0.0047422169578727,0.0008170469664037,-0.0026102298870682,0.0008366367546841
1772650945761733400,2.0507333984375,0.0413660296112298,-0.0017567440068349,0.0042873219303786,0.0003067851066589,0.001297160051763,0.0017154798842966
1772650945771705300,2.060705322265625,0.030285832670331,-0.0199110440524294,0.0101725897098425,0.0002906001172959,0.0007845750078558,-0.0003665370168164
1772650945781677300,2.07067724609375,0.0326817878961563,-0.0062900765875354,0.0131473586037755,0.0009361505508422,-0.0025816604029387,0.0006217620684765
1772650945791650300,2.080650390625,0.0449561630576849,-0.011598704389669,0.0147962765882723,-0.0001487648114562,0.0008014529012143,0.0008698906749486
1772650945801622300,2.090622314453125,0.0255085352659225,-0.0076867916429415,-0.0192479222348891,-0.0020401417277753,0.0008648363873362,-0.0005538352415896
1772650945811594200,2.10059423828125,0.0249129074603319,0.0129033937800675,-0.0030166535405907,-0.0001906361430883,-0.0010905321687459,-0.000354904361302
1772650945821567200,2.110567138671875,0.0413730438739061,0.0070926616746932,-0.0050546895736828,0.0009310874156653,-0.0014346125535666,-0.0001996420614887
1772650945831539500,2.12053955078125,0.036138065829873,0.0054930809909477,-0.0150140109921805,0.0003605517558753,0.0017282515764236,-0.0004780066374223
1772650945841512400,2.130512451171875,0.0277566064536571,0.0153866254305467,-0.0011761402404401,-0.0010115089826285,-0.0009415673557668,-0.0004452497523743
1772650945851484400,2.140484375,0.0306014744907617,0.00678034432251,-0.0167855324430391,0.0001753424294292,0.0001211916096508,-0.0020604932215064
1772650945861456400,2.150456298828125,0.035392215898633,-0.0028598464105278,-0.0040355482595507,-0.0006675478070974,-0.0004133046604692,-0.0015225347597151
1772650945871429400,2.160429443359375,0.0452688822686672,-0.0098445541987195,0.0179016039261594,-0.0002032988704741,0.0012500737793743,0.0010957031045109
1772650945881401300,2.1704013671875,0.0478092144012451,-0.0068882251437753,0.0125372182156424,-1.15511938929e-05,0.002157945651561,0.0002610684023238
1772650945891374300,2.180374267578125,0.0445171871185302,-0.0030955183299258,0.000521247395128,0.0018640826456248,-0.0009862203150987,-0.000416689668782
1772650945901346300,2.19034619140625,0.0431762939035892,-0.0028078970275819,-0.000786209341092,0.0015239971689879,-0.0003835470415651,-0.001110176788643
1772650945911318300,2.200318359375,0.0225268891066312,-0.0205116037614643,0.0093502678757533,-0.0012476916890591,-0.0003319173119962,-0.0012074945261701
1772650945921291300,2.210291259765625,0.0273199686020612,-0.0106201051484793,0.0045573801765684,-0.0007139942608773,0.00103987660259,-0.0006186696118675
1772650945931263200,2.22026318359375,0.0264238965451717,-0.0083106591623276,-0.0120924609896726,0.002891176380217,0.0001547969877719,-0.0011612372472882
1772650945941235200,2.230235107421875,0.0243313081800937,0.0031673779897391,-0.0239930252695921,-0.0002691969275474,-0.0012393675278872,-0.0005465797148644
1772650945951208400,2.24020849609375,0.0330079511106014,-0.0036748891204595,0.0001517656287644,-0.000742026604712,0.0017185322940349,-0.0008954256772994
1772650945961180200,2.25018017578125,0.0364472779095172,0.0014676248671486,-0.0006156202808488,-0.0008434928022325,0.0003163777291774,0.000254527258221
1772650945971153200,2.260153076171875,0.0464712437957525,0.0262024358142167,-0.0031940742004197,0.0021040076389908,0.0014470098540186,-0.000680930505041
1772650945981125400,2.27012548828125,0.0374941566139459,0.0212085365170612,0.0024459044479299,-0.0005370494909584,0.0011769654229283,-0.000428995466791
1772650945991097000,2.28009716796875,0.039883097577095,-0.0018122735863551,0.009798093841644,0.0008833101019263,-0.0004985984414815,0.0013646646402776
1772650946001070300,2.2900703125,0.0324023864328861,0.0026877777792513,-0.0090942746875341,0.0002396237105131,0.0001227166503667,0.0010775760747492
1772650946011042300,2.300042236328125,0.040627193942666,0.0109011871121823,-0.0115540432640351,0.0006177709437906,-0.0006083797197788,0.0014244186459109
1772650946021014300,2.31001416015625,0.0401765275657176,-0.001403619720228,-0.0069211684321518,0.0005027223378419,-0.002933053066954,0.0001410412369295
1772650946030987300,2.3199873046875,0.0370358914524316,-0.0008294365614652,0.0335414917317219,0.0001890882849693,0.0008544465526938,-0.0018086101626977
1772650946040959200,2.329959228515625,0.0386824896156787,-0.0091939813354983,0.0024851952787023,-0.0007105274125933,-0.0016334783285856,0.0004726536571979
1772650946050932500,2.339932373046875,0.0443716411679983,-0.0080463091377168,0.002591331667453,-0.0013897838070988,-0.0013517062179744,-0.0020019083749502
1772650946060904200,2.349904296875,0.0377910937339067,-0.0009978153983131,-0.0039128625947982,-0.0009213336743414,0.001674709841609,-0.0014655475970357
1772650946070876400,2.35987646484375,0.0346440278798341,-0.0046124622315168,0.0110110406948253,0.0022548241540789,-0.0027507664635777,0.0010100458748638
1772650946080849400,2.369849365234375,0.032398879301548,-0.0083096362490206,0.0010556373996194,-0.000198746100068,-0.0015627301763743,-0.0008949132170528
1772650946090821400,2.3798212890625,0.0163935009181499,-0.0038295682255178,-0.0120627234385348,-0.0020346001256257,-0.0002568420022726,-0.0016007650410756
1772650946100793300,2.38979345703125,0.0211819042384624,0.0060458195028826,-0.0113310664294287,-0.0008494933135807,0.0021349429152905,-0.000988770625554
1772650946110766300,2.399766357421875,0.0240220961004495,0.0106922570692375,-0.0029892358107026,-0.0013424884527921,0.0008300300687551,-0.0011064624413847
1772650946120738300,2.40973828125,0.0395820688039064,0.0151104023050516,0.000763513452094,0.0006559477187693,0.0001860777847468,0.0019500474445521
1772650946130711300,2.419711181640625,0.0370353069305419,0.0119066378276795,-0.0083548910296987,0.0012876652181148,-0.0001403340138494,-0.0032220329158008
1772650946140683500,2.42968359375,0.0359901817917823,0.0165951244374737,0.0044424028942361,-0.0021757755894213,0.0012905825860798,0.0006259684450924
1772650946150655200,2.4396552734375,0.0225204593658447,0.0223501077676191,-0.0205435698023065,0.0008302642963826,0.0023100115358829,0.0007564594270661
1772650946160628200,2.449628173828125,0.0416688119500875,0.0067397565837949,-0.0079674443483818,4.6762637794e-05,-0.0015837962273508,0.0001058491761796
1772650946170600400,2.459600341796875,0.0433142410695552,0.0037689606120809,0.0104509134608786,0.0017406796105206,-0.0007607014849781,0.0005383130628615
1772650946180572200,2.469572265625,0.0353816945046186,0.0035176161995157,0.0166901549103204,-0.0009347321465611,0.0014680977910757,-0.0001458530023228
1772650946190545400,2.47954541015625,0.0440571683913469,-0.0155837554378435,0.0082194006823003,0.0006250268779695,0.0013154512271285,-0.0006959361489862
1772650946200518000,2.489517822265625,0.0328355171531438,-0.0090485449828207,-0.0025966654296964,-0.0014647557400166,0.0033333282917737,-0.0016932899598032
1772650946210490600,2.49949072265625,0.0470534275978803,-0.0225873871222138,0.0066656501679681,-0.0005398136563599,-0.0001953952014446,-0.0013452109415084
1772650946220462800,2.509462890625,0.0500420880198478,0.00581062250752,0.0107124870065134,-0.0017819118220359,0.0007500271312892,-0.0002181612362619
1772650946230434800,2.519434814453125,0.021464228311181,-0.0019268033441156,-0.0055026799363549,0.0015299473889172,0.0011780788190662,0.0001508804270997
1772650946240407800,2.52940771484375,0.0192202487766742,-0.0035728900507092,0.0036533257426228,0.0011168913915753,-0.000365755520761,-0.0011282358318567
1772650946250379800,2.5393798828125,0.0400222137868404,0.0188310302633792,0.0004537716494873,0.0001256936229765,0.0007881368510425,-0.002944947220385
1772650946260352000,2.54935205078125,0.0349392114341259,0.0086600936545059,0.0028610245874617,0.0008010710589587,-0.0014081720728427,0.0009616437018848
1772650946270324700,2.55932470703125,0.0265554139703512,0.0232839545516297,-0.0021351945309434,0.0005001509562134,0.0007553962059319,0.0006828341865912
1772650946280296700,2.569296630859375,0.0403191509068012,0.0082849767317995,-0.0085379103132523,-0.0028426488861441,-0.0013029610272496,0.0016857805894687
1772650946290270000,2.57927001953125,0.0440542457818984,0.0183129612060263,0.0087861768527422,-0.0010399734601378,-3.08537855744e-05,0.0004806882352568
1772650946300241700,2.58924169921875,0.03148117993474,0.0197572782628238,0.0089061865032184,0.0006439434364438,0.0008399998769164,0.0003643081290647
1772650946310214000,2.5992138671875,0.0391115286827087,0.0107040205722674,-0.0139136211353819,0.0006049661897122,0.0004666182212531,0.0019413600675761
1772650946320187000,2.609186767578125,0.0444967288523912,0.0016088599687442,0.0093996691085863,0.0016806172206997,-0.0004321984015405,0.0002326759276911
1772650946330158600,2.61915869140625,0.0391062679857015,0.0002665785143151,0.001245059024496,0.0025086179375648,-0.0001721000298857,0.0044431649148464
1772650946340130800,2.629130859375,0.0450876804828643,0.0074685457823798,0.0077683324465528,0.0003831493668258,2.603046596e-06,-0.0006461361190304
1772650946350103800,2.639103759765625,0.0344675022691488,0.0022741189444437,-0.002630321104126,0.0010344134643673,-0.0006914497353136,0.0002284055808559
1772650946360075800,2.64907568359375,0.0383586644887924,0.013819887570478,0.0049446259284857,0.0003063050098717,-0.0002437722869217,-0.0013609689194709
1772650946370048800,2.659048828125,0.0253454536586999,0.0160676664972677,-0.0037050924624782,-0.0018291145097464,0.0005885134451091,-0.002666427521035
1772650946380020700,2.669020751953125,0.0341769948899745,0.0180349479822441,-0.015308929684991,0.0012710713781416,-4.5727938413e-06,-1.39191979542e-05
1772650946389992700,2.67899267578125,0.0455447766005992,0.009654438454099,-0.006914282033639,0.0003687683492898,-0.0003111171536147,0.0020705545321106
1772650946399965700,2.688965576171875,0.0551250903725624,0.0006746843911707,0.0019323928346857,5.31836412847e-05,-3.7881545722e-06,-0.0021601431071758
1772650946409938000,2.69893798828125,0.0434539418011903,0.0114766854451969,-0.0082603172145783,0.0024726898409426,-0.0031175417825579,0.0011631979141384
1772650946419910700,2.70891064453125,0.030433132186532,0.0055307095875963,-0.0152096888279076,3.21688130497e-05,0.0001874412409961,0.0015032836236059
1772650946429883000,2.7188828125,0.0252010767519474,0.0061595090104267,0.0070330587082542,-0.0001767924986779,-0.0004691826179623,-0.000362767255865
1772650946439854800,2.728854736328125,0.0518418309181928,-0.0038357787705957,-0.011744980992563,-0.0032165246084332,-0.0007035408634692,-0.0019963502418249
1772650946449827600,2.73882763671875,0.0463087467104196,-0.0127539388393983,0.0118213158980943,0.0022030808031558,0.0010860403999686,-0.0009316226933151
1772650946459799800,2.7487998046875,0.0409235465407371,-0.01698200486321,0.0160320106619969,-0.0017210869118571,0.0002641887404024,-0.0003686303971335
1772650946469771800,2.758771728515625,0.0400257209181785,-0.0122009811317548,0.0190105332824401,-0.0010284199379384,0.0024317274801433,-0.0015384843572974
1772650946479744800,2.768744873046875,0.0325420871645212,-0.0135264575818553,0.0238880031256936,0.0010789395309984,-0.0001392881385982,-0.0018372910562902
1772650946489716700,2.778716796875,0.0288058232456445,-0.0056004138229414,-0.0014204429908655,-0.0008483063429594,0.0008849091827869,-0.000712068635039
1772650946499689700,2.788689697265625,0.0337485403448343,0.0099545539118349,0.0085456552282907,0.0002537094987928,0.0009917020797729,0.0003452062956057
1772650946509661700,2.79866162109375,0.0500607927203178,0.0221616725234314,0.0057068333394825,-0.0010844678618013,0.0020563625730574,-0.0024659386835992
1772650946519633700,2.808633544921875,0.0249245978981256,0.0053188204025849,-0.0092573014958295,0.0002274052239954,0.0013610115274786,-0.0030646175146102
1772650946529607000,2.81860693359375,0.0303109671115875,0.0135065473049879,-0.0090671309522818,0.001402978785336,0.0009171986021101,-1.57605390995e-05
1772650946539578600,2.82857861328125,0.0422808063685894,0.0117104211358353,0.0063903768905438,-0.0001256759278476,0.0003142589703202,-0.0007587824948132
1772650946549550800,2.83855078125,0.0330015213698148,-0.004397650437057,-0.0121606034555938,0.0019529946148395,0.0007381662726402,-0.0003232844755984
1772650946559523800,2.84852392578125,0.0365881476849317,0.0030562092328444,0.005426993484795,0.0013612401671707,0.0011861096136271,0.001479409285821
1772650946569495600,2.85849560546875,0.0355436070680618,-0.0088838559404015,0.0088097769240383,-0.0021037636324763,0.0008730390109121,-0.0012864470481872
1772650946579468800,2.86846875,0.0341992067217826,-0.0060066200036555,0.0055901116246357,-0.0007327683269977,-0.001159219071269,-0.0005349030252546
1772650946589440800,2.878440673828125,0.0353951385080814,-0.013516995633766,0.0073927132003474,-0.0008333711884915,0.0017523155547678,0.0020289327949285
1772650946599412700,2.888412841796875,0.0229746328741312,-0.0070500646419823,0.0050153987429104,-0.0008757151663303,-6.28950074315e-05,0.0013748605269938
1772650946609385700,2.8983857421875,0.03030629093647,-0.0014516966456547,0.0090239767971448,0.0012863944284617,-0.0013130183797329,0.0008125805179588
1772650946619358000,2.90835791015625,0.0467716880470514,0.0123548199865967,-0.012553867956344,0.0011031688190996,0.0023528230376541,-0.0026034561451524
1772650946629329700,2.91832958984375,0.0357078577190637,0.0084886095451191,-0.0061087834701873,-0.0004278519190847,0.0013101659715175,-0.0031106825917959
1772650946639302700,2.928302734375,0.0346603944927454,0.0177792196555063,0.0072370477146003,0.0028331889770925,0.0018489235080778,0.0013567698188126
1772650946649275000,2.93827490234375,0.0318120193243026,0.0199737705577164,0.0089164430357515,-4.43058088421e-05,-0.000190251506865,0.0031134209129959
1772650946659247900,2.948247802734375,0.0330097046762704,0.0085962346380576,0.0011573076758068,0.0013424018397927,-0.0003060991875827,6.14383025094e-05
1772650946669219800,2.9582197265625,0.0442307713925838,0.0219772193346172,-0.0024287341174203,-0.0010568187572062,0.0006704167462885,-0.0016578477807343
1772650946679191800,2.96819189453125,0.0361450800925493,0.0087867157088592,0.007663739560917,-0.0011151419021189,0.0013894704170525,0.0013573832111433
1772650946689164800,2.978164794921875,0.0389858564764261,0.0013360709093511,0.0161082359696738,-0.0020119475666433,-0.0003165188245475,0.0005358413327485
1772650946699136800,2.98813671875,0.0325514395147562,0.0013799831163138,0.0016747922112699,0.0009500202722847,-4.56753186881e-05,-0.000407183979405
1772650946709108700,2.998108642578125,0.0268652105718851,-0.0004487301481887,-0.003162656148849,-0.0009989948011934,-0.0026498683728277,0.0005567710613831
1772650946719082000,3.00808203125,0.0210357737660408,-0.0028107831044122,0.0169324027009774,-0.0017793010920286,-0.0028352243825793,-0.0008123600855469
1772650946729053700,3.0180537109375,0.0391471845179796,-0.0150555668452754,0.0047361982090398,4.9821101129e-06,-0.0005570738576352,0.0005890059983357
1772650946739026700,3.028026611328125,0.03825111246109,-0.0027661402450874,-0.0094668708595912,-0.0001143272966146,-0.0027326098643243,-0.0006198027986101
1772650946748999000,3.0379990234375,0.0415478159189224,-0.0106566742992028,0.0061629613428376,-0.0007207915186882,7.9283490777e-06,-0.0011002914980053
1772650946758970600,3.047970703125,0.0405015217363834,0.0026122283250093,0.0017940712093841,0.0008294344879686,0.0018196767196059,0.000618246383965
1772650946768943900,3.05794384765625,0.0345095878452062,0.0222139141673222,0.0147174939973279,0.0018058414570987,-4.2938627302e-06,0.0025133569724857
1772650946778915800,3.067915771484375,0.0406388843804597,0.0180313677856698,0.001045618329104,0.002157112583518,0.0012362068518996,-0.0003386221069376
1772650946788888600,3.077888671875,0.0364484469532966,0.023446963093616,-0.0001147763529326,0.0018720389343798,-0.0010524811223149,0.0009563258499838
1772650946798860800,3.08786083984375,0.0334556948781013,0.0205743667993694,-0.000804758777935,-0.0006092279218137,0.0019491678103804,-0.001347308512777
1772650946808832800,3.097832763671875,0.0204360543072223,0.0141371002934873,0.0040621348723769,0.0006549227982759,-0.000209136866033,0.0005306838429532
1772650946818805800,3.1078056640625,0.0307598799228668,0.0147072283316403,-0.0107134094551205,0.0004594470374286,-0.0009953018743544,0.0002419972443021
1772650946828777700,3.11777783203125,0.0347965880930423,0.0086878949768841,-0.0098051263706292,-0.000415809918195,-0.0017247258219867,0.000893204298336
1772650946838750000,3.12775,0.0373456880539655,-0.0037144904784858,-0.0034620683536864,0.0037653530016541,-0.0018019573763012,-0.000278053979855
1772650946848722700,3.13772265625,0.0385445424497127,-0.0055828781662508,0.0117728371138684,-0.0004286053590476,0.0010822815820574,0.0007005711086094
1772650946858695000,3.14769482421875,0.0421375985056161,-0.0011332052810117,0.007179070449667,0.0002214722335338,-0.0013204221613705,-0.001002520439215
1772650946868668000,3.15766796875,0.0463280359327793,0.0091992420325055,0.0196447030001319,-0.0024975829292088,-0.0016190693713724,0.000631163129583
1772650946878639600,3.1676396484375,0.0313689517319202,-0.0013560542514547,0.0015115005414932,0.0012289783917367,-0.0005921544507145,-0.0004700539866462
1772650946888611800,3.17761181640625,0.0265823019772768,0.0103419457942247,-0.0065423891144804,-0.0001115449704229,0.0005271052941679,0.0017082041595131
1772650946898584800,3.187584716796875,0.0334679698377847,0.0093770097522065,-0.002783502371842,0.0016195098869502,0.0001031300053,0.0010650508338585
1772650946908556800,3.197556884765625,0.0135667530596256,-0.002016015997529,0.0040676512977108,-0.0005087726749479,0.0020993407815694,-0.0004877978353761
1772650946918528800,3.20752880859375,0.0496264929562807,0.0047840194061398,-0.002844840637641,0.0004305243492126,-0.0025987415574491,0.0013444570358842
1772650946928501800,3.217501708984375,0.0391506916493177,0.0244101090373471,0.0008695311098359,0.001660413108766,-0.0010730663780122,0.0009515737183392
1772650946938473700,3.2274736328125,0.0295697933554649,0.0183833230284973,-0.0068098261453211,0.0003621219657361,0.0015900945290923,-0.0004220847331453
1772650946948446700,3.23744677734375,0.0268763164877891,0.0015822642227634,-0.0046875732943415,-6.1099417507e-06,0.0013584331609308,0.0009287383873015
1772650946958419000,3.2474189453125,0.0422843134999275,0.0122924222748726,-0.0301153258084785,-0.0016301055438816,-0.000217093154788,0.0015923980390653
1772650946968390700,3.257390625,0.0258218389987945,0.0195801681302487,-0.0131265624109189,0.0016283430159091,8.72411765158e-05,0.0007167012081481
1772650946978363600,3.26736376953125,0.015798457634449,0.0010041355412453,0.0093188498241826,0.0001577450893819,-0.000171351712197,-0.0011784041998907
1772650946988335900,3.2773359375,0.0171446115463972,-0.0085155340846627,-0.0036152952871751,-0.0007273517549037,-0.0025213123299181,0.0004063277738168
1772650946998307600,3.2873076171875,0.045576925304532,-0.0067194809807464,-0.0003968446973245,-0.0003712871111929,-0.0006911880336701,-0.0018845234299078
1772650947008280800,3.29728076171875,0.0394493823349475,-0.0100766824541613,-0.0027482575285248,-0.0016185489948838,-1.53561122715e-05,-0.0025805979967117
1772650947018252800,3.307252685546875,0.0536614475607871,-0.0055443727867677,0.0125028501551598,0.0001529855653643,0.0033066705800592,0.0003435529652051
1772650947028225800,3.317225830078125,0.0291197115004062,-0.0116933969357982,-0.0009061459263321,-0.0002723345533013,0.0006698952056467,-0.000105994840851
1772650947038197800,3.32719775390625,0.0446790996819734,-0.0015690759476274,-0.009129044606816,-0.0012148269452154,-0.0007429115939885,0.0021369194146245
1772650947048169700,3.337169677734375,0.0359983650982379,-0.0094019980629906,-0.0103663221836555,-0.0008524847216904,-0.0005935966037213,-0.0002677771844901
1772650947058143000,3.34714306640625,0.031363691034913,0.0114803021743893,-0.0307494133277796,0.00393987307325,-0.0008921369444578,-0.0004459426563698
1772650947068114700,3.35711474609375,0.0163999306589365,0.0235778594642877,0.0021332309027202,0.0020240079611539,0.0007806736975908,0.001904308097437
1772650947078087000,3.3670869140625,0.0374900649607181,0.00936922830455,-0.0039514319063629,0.0003464831970632,-0.0018167074304074,0.0003953610430471
1772650947088060000,3.377059814453125,0.0312006094276905,0.0104168011287227,-0.0094822784912772,-0.0007438906468451,-0.0022998517379164,0.0001502931700088
1772650947098031900,3.387031982421875,0.0464613069236278,0.0205410490516573,-0.0059669638467021,0.0004113889299333,-0.0019568367861211,0.0027162488549947
1772650947108004900,3.3970048828125,0.0362812736928463,0.0082783643279224,0.0141077098022215,0.0004334724508225,-0.0009170898701995,0.0008919459069147
1772650947117976600,3.4069765625,0.044511926421523,-0.0050387613521888,0.0131138307935092,-0.0005335211753845,0.0002957135438919,-0.0020958543755114
1772650947127948800,3.41694873046875,0.0308978270888328,-0.0137896750953048,-0.0063116947642993,0.0020815664902329,-0.0009477315470576,-0.0008626853814348
1772650947137921800,3.426921875,0.0312041165590286,-0.013977927676402,-0.0057875247597228,-0.0003120824694633,0.0005162078887224,-0.0019348738715052
1772650947147893800,3.436893798828125,0.0410819519728422,-0.0187184732669964,0.0078709343045018,0.0012766551226377,0.0010989718139171,0.0006305616698227
1772650947157866800,3.44686669921875,0.0466179587900638,-0.0075530091954395,0.013986065317085,0.0007141954265534,-6.472691893577576e-07,-0.0006741209654137
1772650947167838700,3.456838623046875,0.0241717337042093,-0.0087276059327647,-0.004114696176676,0.0018399250693619,-0.0003883768804371,0.0012557583395391
1772650947177810700,3.466810791015625,0.0258230080425739,0.0080302713183686,0.0120691897119395,0.0012348550371825,5.18439337611e-05,-0.00279704015702
1772650947187783700,3.47678369140625,0.0508113188266754,0.0167053433462977,0.0120007732513826,0.0030010007321834,0.000903801061213,0.0017363958759233
1772650947197756000,3.486755859375,0.0286643689483404,0.0153903882902115,-0.0022018574258312,5.02178445458e-05,-0.0023734851274639,0.0019118982600048
1772650947207727000,3.49672705078125,0.0325537776023149,0.0006634688774123,-0.0014957184504717,0.0009373719803988,-0.0001594452187418,0.0012333004269748
1772650947217700400,3.506700439453125,0.0410889662355184,0.0193373358177021,-0.0152503222323954,0.0014332523569464,-0.0013844994828104,-0.0024719557259231
1772650947227672000,3.516672119140625,0.0228390237957239,0.0102178810231387,-0.0049702170274686,0.0004976573400199,-0.0009692353196442,0.0006811675848439
1772650947237645000,3.52664501953125,0.037055765196681,0.0092004110762849,0.0110193153328262,0.0003631673753261,-0.0007673676591366,0.0004409505054354
1772650947247617300,3.5366171875,0.0431932450383901,-0.0046028906855732,0.0118779505893122,0.0006409757770597,-0.0018338954541832,0.0007864892249926
1772650947257589000,3.546589111328125,0.0309288067489862,-0.0049088148295879,-0.0036505857962649,1.6997102648e-05,-3.14679928123e-05,-0.0020143571309745
1772650947267562200,3.556562255859375,0.0378080448687076,-0.0160245214752852,0.0112887525245081,0.0031151650473475,-0.0007459467742592,0.0019025828223675
1772650947277534200,3.5665341796875,0.0431920759946107,-0.0103825335329398,-0.0027486045883968,-0.0022969113197177,0.000289489980787,0.0007779299630783
1772650947287506200,3.576506103515625,0.0247854816883802,-0.0085047569623216,0.0202326406896114,-0.0005206749774515,0.0021249107085168,0.0007530067232437
1772650947297479200,3.586479248046875,0.036009471014142,0.0029882950957864,-0.0117494379719719,0.0002092975191771,-3.81087884306e-05,-0.0001841596968006
1772650947307451100,3.596451171875,0.04364098880589,0.0100354736609384,-0.0142821256542112,0.0015406631864607,0.0003177635371685,1.09928660094e-05
1772650947317424000,3.606424072265625,0.0243371533989906,0.0081015099236741,-0.0155091740979813,-0.0012625802773982,-0.0002289833500981,-0.0015307110734283
1772650947327396000,3.61639599609375,0.0410930578887462,0.0038302623452618,-0.0003141622493974,0.0014995080418884,0.0021768528968095,-0.0002646158100105
1772650947337368300,3.626368408203125,0.0288216053366661,0.0133065312208607,-0.0034516930901445,0.0006020232103765,-0.0021571756806224,0.0003417859552428
1772650947347341000,3.636341064453125,0.0368967752426862,-0.0007205693595111,-0.0033706820094957,-0.0001676124520599,0.000438205897808,0.0019740746356546
1772650947357313300,3.646313232421875,0.0371878671437501,-0.0107971422158181,-0.0108558044673409,0.0003607589751482,0.0027538244612514,0.0027519839350134
1772650947367285200,3.65628515625,0.0307470204412937,-0.0016572291551157,0.0171897384629119,-0.000276664737612,-0.000406798440963,-0.0009226963156834
1772650947377258000,3.666258056640625,0.0325438407301902,-0.0019815292060375,0.0112055677530821,-0.0001807906664907,-0.0001103887334465,0.001474947668612
1772650947387230200,3.676230224609375,0.0362894569993019,-0.0070245648745447,0.0079957114616408,-0.0003452566452324,0.0017054420895874,-0.0013821929460391
1772650947397203200,3.686203125,0.039286300727725,0.000939217078872,0.0196897020524833,-0.0012999998871237,-0.0004756865091621,0.000331551185809
1772650947407175200,3.696175048828125,0.0261164380311965,0.0110755572983995,0.0011206197940744,-0.0010739522986114,0.0011925133876502,-0.000418641953729
1772650947417147100,3.706147216796875,0.0148947867929935,0.0124207248296588,0.0119731545920949,-5.55594451725e-05,-0.0007702361326664,0.0018703448586165
1772650947427120000,3.7161201171875,0.0443693030804395,0.0115848219947889,0.0063093201441224,-0.000404370483011,0.0005208062939345,0.0005371686420403
1772650947437092000,3.726092041015625,0.0255114578753709,0.0129283090256154,0.0084625617884099,-2.22069211304e-05,-0.0003047734498977,0.0032831539865583
1772650947447064000,3.73606396484375,0.0292500598818063,-0.0031411475699394,0.0147869699038099,0.0009028548374772,-0.0015811887569725,0.0001520146033726
1772650947457037300,3.746037353515625,0.0262532161533832,0.0196713900776579,0.0067185128663666,0.0005862051621079,-0.0008592058438807,0.001656966865994
1772650947467009000,3.756009033203125,0.0283434664309024,-0.0061140624335035,0.0026190781909041,-0.0002323212102055,0.001250744331628,0.0004486492834985
1772650947476982000,3.76598193359375,0.0234036719411611,-0.0023428367991,-0.0067525521332863,-0.0002477676607668,0.0014398288913071,0.0010483930818736
1772650947486954200,3.775954345703125,0.0319295082241296,-0.0008002104669809,-0.0067305686303414,0.0029201628640294,0.0016788165085017,0.0001496674958616
1772650947496926000,3.785926025390625,0.0443459222048521,-0.0048888314874842,-0.0030185897693503,0.001415210776031,-0.0005728863179683,-0.0001009359548334
1772650947506899200,3.795899169921875,0.0401601609528064,-0.0079747417388483,0.0009849467835854,0.0013175434432923,0.0004234085790812,-0.0010200557298958
1772650947516871200,3.80587109375,0.0344768546193838,0.0032246246023103,0.0043937231806106,-0.0011264393106102,-0.0004735440015792,0.0004998103249818
1772650947526843100,3.815843017578125,0.0506353777378797,0.0087103260044008,-0.0078116235990077,-0.0005627926439046,-0.0012362545821815,0.0018582449993118
1772650947536816000,3.825816162109375,0.0286368964195251,0.0043108124038204,0.0089049626605119,-0.001184906810522,-0.0025755583774298,0.0003612820873968
1772650947546788000,3.8357880859375,0.0302870017141103,0.0082736516201868,-0.0073011624593753,-0.0005890480242669,-0.0017134491354227,-0.0006356691010296
1772650947556761300,3.84576123046875,0.0433043041974306,0.0164487382367253,-0.0163209836712107,-0.0005520298145711,0.0004993714392185,0.0003667447017505
1772650947566733000,3.855733154296875,0.0331266090542078,0.0186038339113816,-0.0070762402628548,0.0014175763353705,0.001510209403932,0.0013409496750682
1772650947576705300,3.865705322265625,0.0439011010468006,0.003520502276346,-0.0015791132844518,0.0012932065874338,-0.0019713412038981,0.000722030934412
1772650947586678300,3.87567822265625,0.0504851556122303,0.00560198472552,0.0007937533267308,-0.0023907332215458,0.0018565799109637,-0.0022243079729378
1772650947596650200,3.885650146484375,0.0412123003542423,0.0005065978152677,0.0028789255703333,0.0006969356909394,0.002884560264647,-0.0039657489396631
1772650947606622200,3.895622314453125,0.0271504572540521,-0.0119611810265108,0.0133332000320777,-0.0011828206479549,9.23345796763e-05,-0.0018655774183571
1772650947616595200,3.90559521484375,0.0356798006683588,-0.0111366763684898,0.010336520700436,0.0001586135476827,0.0004273606464266,0.001352319959551
1772650947626567200,3.915567138671875,0.0461573555409908,-0.0074872504828497,0.0118205578462686,0.0015971842221915,0.0009044986218214,-0.0002388732391409
1772650947636540200,3.9255400390625,0.0301461319386959,-0.0070519643381237,0.0084961443976033,0.001724749803543,-0.0013320241123437,0.0017987112514674
1772650947646512400,3.935512451171875,0.0277542683660984,0.0032465807057917,-0.002775538261095,0.0002295789308845,0.0022903876379132,0.0016407812945544
1772650947656484000,3.945484130859375,0.0267062206178903,-0.0117263493573293,-0.011066908201063,-0.0002370066940784,-0.0020787944085896,0.0016599560622125
1772650947666457000,3.95545703125,0.0469072971254587,-0.0021153847187757,0.0148909234686288,0.0004029525443911,-0.000839821761474,-0.00091664964566
1772650947676429300,3.96542919921875,0.0276063843280076,0.0054620647981762,0.0079213219180237,0.0013835285790264,-0.0016353081446141,0.0002620654413476
1772650947686402000,3.975402099609375,0.0385281758368015,-0.0011895020455121,-0.0062280807346105,0.000220765825361,0.0005850801244378,-0.0020881539676338
1772650947696374300,3.985374267578125,0.0359831675291061,0.0056771323209628,0.0063543648622464,-0.0008679344318807,0.0002298145554959,-0.0006881301524117
1772650947706346200,3.99534619140625,0.0403226580381393,0.0103071302091702,-0.004871094901394,-0.0010298788547515,0.000714071560651,0.0011406706180423
1772650947716319000,4.005319091796875,0.0344862069696187,0.0090167250724509,0.0251158644202165,0.0004282016307115,-0.0013671887572854,-0.0015011851210147
1772650947726291200,4.015291259765625,0.0298550400376319,0.0084786726729944,0.009577847820241,-0.0003586551174521,0.0006913589313626,-0.003313053632155
1772650947736263200,4.02526318359375,0.0455687419980764,-0.0024221125803887,-0.0085181279005482,-0.000896347220987,-0.0020676758140325,0.0017794431187212
1772650947746236200,4.035236083984375,0.0380880308538675,-0.0181451668910682,0.0021621738694142,-0.0004226290620863,-0.0010371056850999,-0.0021121038589626
1772650947756208000,4.0452080078125,0.0472194318145513,-0.0026914310410618,0.0072604103238787,-0.001019443385303,-0.0008671961259096,0.0002035147044807
1772650947766181000,4.05518115234375,0.0328524682879447,-0.0202338097333908,-0.0048775794411078,-0.0003089387901127,-0.0010393466800451,0.00101910950616
1772650947776153000,4.065153076171875,0.0288110839426517,0.0038935368398204,0.0142700242244638,-0.0001347684301435,-0.0009996655862778,0.0027562896721065
1772650947786125000,4.075125,0.0389881945639848,-0.0090519059836864,0.0110588253593072,-0.0004153684712946,0.0001939362846314,-0.002471943385899
1772650947796098300,4.085098388671875,0.0353986456394195,0.011373809592612,0.0015925207552965,-0.001006590668112,0.0006618537008762,0.0008884331909939
1772650947806070000,4.095070068359375,0.0484153636008501,0.0054040144680067,-0.0035570988265331,-0.0002704388462007,-4.9059279263e-05,-0.0006438700365833
1772650947816042200,4.105042236328125,0.0478173977077007,0.0022173107232898,0.0041673488125205,-0.0012803096324205,0.0017384546808898,0.0003566795494407
1772650947826015200,4.11501513671875,0.0243196177423,0.0307853431576862,0.0083217376787681,-0.0013146398123353,0.0013693310320377,0.0019072163850069
1772650947835987200,4.1249873046875,0.0380816011130809,0.0188818471351638,0.0048721086815465,-0.0027665952220559,0.0021712090820074,8.90762312337e-05
1772650947845960200,4.134960205078125,0.0415232659995555,0.0011954933948814,0.011075219371682,-0.0010013445280492,0.0039372560568153,-0.0007861826452426
1772650947855932200,4.14493212890625,0.0231137490838766,0.0054561465140432,0.0049418311832007,0.000410130713135,0.0003055031411349,0.0001152973854914
1772650947865904000,4.154904052734375,0.0332850144863128,-0.0073240592777729,-0.0074144683744292,-0.0011511682532727,0.0020579723641276,-0.0005641826428472
1772650947875877000,4.164877197265625,0.0525865118056535,-0.0058721069037914,0.0010647157552186,-0.0019128322601318,0.0011538295075297,0.0008880390669219
1772650947885849300,4.174849365234375,0.0299935717254877,-0.0049933513078838,0.0070032663581892,0.001376423984766,-0.0018766527064144,0.0006593146827071
1772650947895821000,4.184821044921875,0.0412181455731391,-0.0131097300071269,-0.0013062511598225,0.0016267611645162,-0.0018018179107457,-8.47725605126e-05
1772650947905794000,4.1947939453125,0.0293967748761177,-0.0093673286084085,-0.0035453079240396,-0.0004892465658485,0.0004064254462718,-0.0001903151278384
1772650947915766300,4.204766357421875,0.0271516262978315,0.0083016721382737,0.0037416250805836,-0.0010442496277391,-0.0012673714663833,0.0018659115303307
1772650947925739000,4.214739013671875,0.0296948810398578,0.0053087008673697,0.005498359954264,-0.0003737034276127,0.0010863533243536,-0.001907484838739
1772650947935711200,4.224711181640625,0.0187719204872846,0.0212783868828788,-0.0108352366033475,0.000979715026915,0.0004349444061517,-0.0014377031475305
1772650947945683200,4.23468310546875,0.0380769249379634,0.0129144266307353,0.0030801106982398,7.75679945945e-05,-0.0013388814404606,0.0018512899987399
1772650947955656000,4.244656005859375,0.0258007962107658,0.0141943834386765,0.0064676159783732,-2.0436476916e-05,-0.0003090370446443,0.0009916215203702
1772650947965628200,4.254628173828125,0.0286456642478704,0.0099666462084278,-0.0192320031465496,0.0001045041717588,0.001180678140372,-0.0011036733631044
1772650947975600000,4.26460009765625,0.02430091304183,0.010924969846569,0.0025427158859092,-0.0023394788149744,-0.000864096917212,0.0004598684608936
1772650947985573000,4.274572998046875,0.0305868614435195,-0.0027292423008009,0.00343558220556,0.0005005523562431,0.001205759588629,-0.0002209289232268
1772650947995545000,4.284545166015625,0.0289431858897209,-0.0067361763872206,-0.0108685817505232,-0.0006499332375824,0.0022688936442136,-0.0003892407112289
1772650948005518000,4.29451806640625,0.0261012404620647,-0.007331037007831,-0.002099374298891,-0.0012737077195197,0.0022910400293767,-0.0010840131435543
1772650948015490000,4.304489990234375,0.0352326414227485,-0.004903298404254,0.0071355235688854,-0.0003429329954087,0.0010952805168926,-0.0002877279766835
1772650948025462300,4.314462158203125,0.0407698172837495,-0.0104068277239799,0.0044076421081088,-3.94727103412e-05,0.0012212796136736,0.000320580729749
1772650948035435300,4.324435302734375,0.0398684845298528,-0.001083045996353,0.0070894742037635,0.0001868959516286,0.0005256622098386,0.0011546827154234
1772650948045407000,4.334406982421875,0.0446580568939447,0.0080127721942961,-0.0015960187534801,0.0014577340334653,0.0003373213112354,0.0014022029936313
1772650948055379200,4.344379150390625,0.0301420402854681,0.013021065342985,-0.0023932700783945,0.0021911687217652,-0.0004874598234891,-0.0002449622552376
1772650948065352200,4.354352294921875,0.0319365224868059,0.0071807783495634,0.0156083327566739,0.0019098981283605,0.0009839213453233,0.0010767779313027
1772650948075324200,4.36432421875,0.0301373641103506,0.0127986182313412,0.0001299373894464,0.0012073563411831,0.0003724596463143,-0.00021432255744
1772650948085297200,4.374297119140625,0.0347737917393446,0.0104556718343868,0.0024832864494062,0.0001363707706332,0.0019792430102825,0.001083297887817
1772650948095269000,4.38426904296875,0.0268365689992904,0.0062723582677543,-0.00688553086319,0.0008676750585436,-0.0017603677697479,0.0021253926679491
1772650948105241000,4.394240966796875,0.0441962846010923,-0.0034755671560764,-0.0017392174832988,0.0003454983234405,-0.0007353171240538,-0.0022464960347861
1772650948115214000,4.404214111328125,0.0301256736725568,-0.0187395160550251,0.0166682901383843,-0.0008390760049223,-0.0002080113627016,0.0010441057384014
1772650948125186300,4.414186279296875,0.0378998148053884,-0.0056262058513239,0.0213991180525627,-0.0002206871286034,-0.0005629656370729,0.0017345971427857
1772650948135158000,4.424157958984375,0.0402916783779859,-0.0166158749645575,0.0021070370155386,-0.0012374822981655,0.0009760754182934,0.000343095511198
1772650948145131000,4.434131103515625,0.0287760126292705,-0.0267493291072547,0.0278783696698024,-0.0008608680218458,-0.0006351782940328,0.0001721269218251
1772650948155103200,4.444103271484375,0.0423959571808576,-0.0015538053132593,0.017226179749472,-0.0005359626375138,0.000832756049931,0.0022581811062991
1772650948165076200,4.454076171875,0.0343137730121612,-0.0197610045898705,-0.0077776208647061,7.20717944204e-05,-0.0004140106029808,-0.0002249503158964
1772650948175048200,4.464048095703125,0.0395534272313118,-0.0047062414621934,-0.0063806866135913,-0.0010107695125043,-0.0003258599899709,-0.0001543765538372
1772650948185020200,4.474020263671875,0.0278828631818294,0.0152945997655391,-0.0059667446509934,0.0008421479724347,-3.0482187867e-06,-0.0003982986381743
1772650948194993200,4.4839931640625,0.0262292507559061,0.0213329300817102,0.0026347141514532,-0.0010934374295175,0.0006651389412581,0.0012182401260361
1772650948204966000,4.4939658203125,0.0319137261331081,0.0219897865552455,0.001595288101118,-0.0003570923581719,-0.0007107907440513,0.0018455807585269
1772650948214937900,4.503937744140625,0.0307148717373609,-0.0044076238417997,0.0027253059112001,0.001792611554265,-0.0016498211771249,-0.0001901394862215
1772650948224910800,4.513910888671875,0.0311608619391918,0.0108228611789643,-0.0132524903455283,0.0015202895738184,-0.001108155818656,0.0019360333681106
1772650948234882800,4.5238828125,0.0351975701093673,0.0059906552495434,7.4891867116e-05,0.0018529184162616,0.0002625733613967,0.0013970097061246
1772650948244855800,4.533855712890625,0.0483574959337711,0.0129198699908331,-0.0089980112388264,0.000179664697498,0.0023419046774506,9.41091566346e-05
1772650948254828000,4.543828125,0.0456616809785366,0.0071515887876972,-0.0088644114544149,-0.0005223443731665,-0.0001135300844907,-0.0005897905793972
1772650948264799700,4.5537998046875,0.0299526551932096,0.001711370495148,-0.0029394418522249,0.0007446724921464,-0.0005425363779067,0.0004376487340778
1772650948274773000,4.56377294921875,0.0239706581741571,0.0122310840090736,0.0042236181775573,-0.0013597572688013,-0.0002786172553896,0.000369738205336
1772650948284745000,4.573744873046875,0.0241220493435859,-0.0025841347416862,-0.0020895744240842,-0.0008983225561678,0.000753135420382,-8.42193257994e-05
1772650948294717000,4.583717041015625,0.0447661934435367,-0.0070346478771418,-0.0031026239241473,-0.0003883275203406,-0.0005837713833898,0.001859089359641
1772650948304690000,4.59368994140625,0.0368371540099382,0.013105601821281,0.0090056008902378,0.0009980094619095,0.0011679325252771,-0.0005670756218023
1772650948314662000,4.603661865234375,0.039834582260251,0.0141916069597005,-0.013067845360469,6.67022541165e-05,-0.0014683306217193,-0.0014006451237946
1772650948324635000,4.613634765625,0.0387929642528295,0.0071147273760288,0.0064570671848952,-0.0004903208464384,0.0021092854440212,-0.0021744845435023
1772650948334606800,4.62360693359375,0.022782909694314,-0.0101815676007419,0.0157679620314855,0.0001001018099486,-0.000447881873697,0.001774184172973
1772650948344579000,4.6335791015625,0.0360959802538156,-0.014398308512941,0.0102160269927699,-0.0001498349010944,0.0002271495759487,0.0016885956283658
1772650948354551800,4.6435517578125,0.0390945775479078,-0.0091818525062873,0.0040839083127677,0.0013963966630399,0.001086551696062,-0.002846767893061
1772650948364523800,4.653523681640625,0.0387964713841676,-0.0175134448587894,-0.0033774588101543,-0.0006039408035576,0.0009185397066175,0.0005758363404311
1772650948374496000,4.66349609375,0.0247340437620878,-0.0082238576617091,0.0135928738815709,0.0003542643971741,0.0011390494182705,-0.0025448556989431
1772650948384468700,4.67346875,0.0420972664952278,-0.0093235990645363,-0.0014362524813506,0.000258341897279,0.000177726149559,0.0018852981738746
1772650948394441000,4.68344091796875,0.0349169996023178,0.0163456431884318,0.0003661298986524,-0.001256730640307,-0.000117618124932,-0.0014439193764701
1772650948404414000,4.6934140625,0.0435959806203842,0.0112575262691825,-0.0135627436047885,-0.0006979708559811,0.0002257884480059,-0.0014508554013445
1772650948414386000,4.703385986328125,0.0419493824571371,0.029384426851198,-0.0129663577473722,4.05237078666e-05,-0.0009856836404651,0.0009971222607418
1772650948424358000,4.71335791015625,0.0379039064586162,0.0439217785086482,-0.0245962244602851,0.001550433691591,-0.0001372727565467,0.0021996877621859
1772650948434331000,4.723330810546875,0.0455336706846952,0.0302405322238802,-0.0142237465304788,0.0008215266279876,0.0004342412576079,0.0015781060792505
1772650948444302800,4.733302734375,0.03685235157907,0.0244788634246215,-0.011068817030359,-0.0003524026833474,-0.00068617076613,-0.0009279039804823
1772650948454274800,4.74327490234375,0.0438847344338893,0.0145853920502588,-0.0193685255404096,0.0005554691888391,0.0029181516729295,-0.0011422884417697
1772650948464248000,4.753248046875,0.0438847344338893,-0.0041672392146661,0.0080638630607165,0.0008853268809616,-0.0014026260469108,-0.0020890405867248
1772650948474219800,4.7632197265625,0.0386480028241872,-0.0296254325328394,0.0132997452870476,0.0001963675022125,0.0002613170072436,0.0007256543613038
1772650948484192800,4.77319287109375,0.0329629429250955,-0.0281346094531938,0.0137978401354514,-0.0003859335556626,-0.0002336683683097,-0.0027980683371424
1772650948494165000,4.7831650390625,0.0368558587104082,-0.0353507513770833,0.0155516341333743,-0.001131884753704,-0.0016555301845073,0.0022531494032591
1772650948504136700,4.79313671875,0.0455348397284746,-0.015533340424858,0.0110337731164414,-0.0004092720337212,-0.0010034232400357,0.0005975408712401
1772650948514110000,4.80310986328125,0.0230880301207304,-0.0027560207098722,0.0068941616942174,-0.0021757469512522,0.0003380109556019,-0.0018421809654682
1772650948524082000,4.81308203125,0.0251847101390361,0.0040843832368031,-0.0078777019720058,0.0006522224284708,-0.0007804539054632,-0.0007272314978763
1772650948534055000,4.823054931640625,0.0343108504027128,0.0162692900165915,-0.0120656186485197,-0.0002191634848713,0.0007452708669006,0.0001289747888222
1772650948544027000,4.83302685546875,0.0301180748879909,0.0337653088165447,-0.0119637017771601,0.0010995147749781,0.0004294575192034,0.0002707612002268
1772650948553998800,4.842998779296875,0.0379027374148368,0.0165042312836274,-0.02532414600919,0.0015152338892221,-0.0010259598493576,-0.0032645852770656
1772650948563972000,4.85297216796875,0.0401525621682405,0.0253486685290932,-0.0147952810744289,0.0005462085828185,-0.0012178453616797,-0.0017749075777828
1772650948573943800,4.86294384765625,0.0275835879743099,0.0113432683238759,0.0015094273154158,0.0001488649286329,0.0035180542618036,-0.0004473217122722
1772650948583916000,4.872916015625,0.0238438169240951,0.002882788894698,-0.0065075095973443,-0.0018643180374056,-0.0017061871476471,-0.0007155649363994
1772650948593889000,4.882888916015625,0.0419511360228061,-0.0175300306674093,0.0085284757646266,0.0019589159637689,0.00069385394454,0.0001757950522005
1772650948603860700,4.89286083984375,0.0403080449908971,-0.0262792639100924,-0.0008456844433676,0.0015263864770531,-0.0005880729295313,0.0013420769246295
1772650948613834000,4.902833984375,0.0468932686001062,-0.0373979662304744,0.0060414447218645,-0.0009032157249748,0.0012947819195687,-0.0001884418306872
1772650948623806000,4.912805908203125,0.0515361259698867,-0.0084861983923241,0.0068032685403712,-0.0001316173002123,-0.0003105280920863,-0.0023255066480487
1772650948633778000,4.92277783203125,0.0320884981781244,-0.0188236506745219,0.009497284264164,-0.0002570524811744,-0.0011800501961261,-0.00253696157597
1772650948643751000,4.9327509765625,0.0270019886940717,-0.0025605346703901,0.0066096273981034,0.0002529914490878,0.0004782225005328,0.0006399371195584
1772650948653723000,4.942722900390625,0.0410650008380413,0.0314611235274001,-0.0295095693345181,0.0011928207240998,-0.0006269894074648,0.0009102479089051
1772650948663694800,4.95269482421875,0.0590250204205513,0.0256266452202573,-0.0207649483348708,-0.0008817547932267,0.0010997145436704,-0.0022772049997001
1772650948673667800,4.962667724609375,0.035989012748003,0.0293785450996831,-0.0105156127275433,0.0026956694200634,0.0010935892350971,-0.0011757216416299
1772650948683640000,4.97264013671875,0.0329991832822561,0.029060382528603,-0.0118497839407529,-0.0017371277790516,-0.0007733621168881,-0.0001001408672891
1772650948693612800,4.98261279296875,0.0463175145387649,0.0085834847543388,-0.0042918063092511,0.0015036729164421,-9.567476809e-06,-0.0018056291155517
1772650948703585000,4.9925849609375,0.0371919587969779,0.0176028401752933,-0.0045028004451189,0.0001351931132376,0.0019440720789134,-0.0021659922786056
1772650948713557000,5.002556884765625,0.0352460854262113,-0.009024031596072,0.0119160815094597,-0.000642982777208,5.18960878252e-05,-0.0004900650237686
1772650948723529700,5.01252978515625,0.0350970323443412,-0.035085853363201,0.0078608513019047,-0.0015756969805806,-0.0022437642328441,-0.0023453086614608
1772650948733502000,5.022501953125,0.04287643417418,-0.0158222038362175,0.0183053532883059,-0.0002814009785652,-0.0004293527454137,-0.0003772325580939
1772650948743474000,5.032473876953125,0.0430289943873882,-0.0152123283095657,0.0054855004726909,0.0010357787832617,0.0024430747143924,-0.0003123997885268
1772650948753447000,5.042447021484375,0.0424298594504594,-0.0079056950906291,0.0012086634037084,0.0004397635348141,0.0004981681704521,-0.001098298584111
1772650948763419000,5.0524189453125,0.0220791453391313,0.005152852718532,0.0038421628456097,3.74852679669e-05,-0.000114272814244,0.0018891687504947
1772650948773392000,5.062391845703125,0.0391325714707374,0.0210579125326126,-0.0047990069127175,-0.0017974327784031,5.16418367624e-05,0.002313942881301
1772650948783363800,5.07236376953125,0.0314981310695409,0.0444591733209788,-0.007394649429107,-0.0003786943852901,0.0033161570318043,0.0007079725619405
1772650948793335800,5.082335693359375,0.0270101720005273,0.0499266449466347,-0.0339761842214036,-0.001119319582358,-1.3429671525e-06,-0.0034026163630187
1772650948803309000,5.09230908203125,0.0306055661439895,0.0546275526465848,-0.0163685765394475,0.0006694998592138,-0.0031690800096839,-0.0015815799124538
1772650948813280800,5.10228076171875,0.0258230080425739,0.0549210557004436,-0.0201833125220146,2.34171748161e-05,0.0010901135392487,-0.0002526624593883
1772650948823253000,5.1122529296875,0.0336065015256404,0.0180577443359419,-0.0318308884215541,-0.0005557709373533,-0.0001001311466097,-0.0028012932743877
1772650948833226000,5.12222607421875,0.0318120193243026,-0.0176158457873389,0.0016371088156942,0.0013569113798439,0.0014658076688647,-0.0006172349094413
1772650948843197700,5.13219775390625,0.0289706584185361,-0.0501954154180362,0.0281473045379854,0.0009433222003281,0.0009499532170593,-0.0020713210105895
1772650948853171000,5.1421708984375,0.042887540090084,-0.0715061702005565,0.0246434063365682,-0.0003570993430912,-1.14478170871e-05,0.0011231407988816
1772650948863143000,5.152142822265625,0.0523152936488389,-0.0829213347168639,0.0317423516215756,0.0017186165787279,0.0023949262686073,-5.81959611736e-05
1772650948873115000,5.162114990234375,0.0321165552288293,-0.0810551755188033,0.0335436928219627,0.0015476420521736,0.0009368457831442,-0.0008209252846427
1772650948883088000,5.172087890625,0.0396036961138248,-0.0574699729982763,0.0306088814790826,-0.0019753570668399,0.0017476226203143,-0.0027591465041041
1772650948893060000,5.18206005859375,0.0403588983952999,-0.0352600774189457,0.007973590961378,-0.0011806699912995,0.0008522677235305,-0.0014555292436853
1772650948903031800,5.19203173828125,0.0309346519678831,-0.0036509602556005,-0.0100398758414201,-0.0004674759693443,0.0013759532012045,-0.0005306645180098
1772650948913004800,5.2020048828125,0.0345271235018968,0.0342907209301367,-0.0112845238739624,-0.0012288738507777,0.0008313367143273,-0.0006475773407146
1772650948922977000,5.21197705078125,0.0388753818392753,0.0258436855044215,-0.0336247861010022,0.0010075033642351,-0.0036780682858079,-0.0013972474262118
1772650948932950000,5.221949951171875,-0.0197784671813249,0.0481399441929534,-0.001041992466757,0.000237317290157,7.80541449785e-05,-0.0014150906354188
1772650948942922000,5.231921875,0.0396282460331916,0.09301354353372,-0.0061453069551382,0.0002106963656842,0.0005869627930223,0.0008829053840599
1772650948952894000,5.24189404296875,0.0786783999174833,0.0535997805014252,-0.0615236962353345,-0.0010678875260055,0.00097152357921,0.0001942120143212
1772650948962867000,5.251866943359375,0.0161269589364528,0.0297050371076911,0.0094733645324595,-0.0008118618279695,0.002058311831206,0.0016373556572943
1772650948972839000,5.2618388671875,0.0019131401449441,-0.0053548415640369,0.0346414066644851,-6.5215863287e-06,-0.0006842114962637,-0.0002103454899042
1772650948982811000,5.271810791015625,0.0553267504245042,-0.0050354734165593,-0.0090327902912627,-0.0002030744217336,0.0023313476704061,0.0012977494625374
1772650948992784100,5.2817841796875,0.0267412919312715,-0.0221180160447955,-0.0111843057693447,0.0004014633595943,0.0024426681920886,0.0007107887649908
1772650949002755800,5.291755859375,0.0062397711724042,-0.0170585772307589,0.0184795682108961,-0.0010726349428296,0.0016318005509674,-0.0011780636850744
1772650949012728800,5.301728759765625,0.0461883352011442,-0.0056939738579094,0.0066465162092354,0.0006592185236513,-0.0013778377324342,0.0020779171027243
1772650949022701000,5.311701171875,0.0446866984665393,0.0155651968678459,-0.0166992149996105,-0.000763279851526,0.0021303384564816,-9.84141952358e-05
1772650949032672800,5.3216728515625,0.0303197349399328,0.0358277943043038,-0.032728321318468,-0.0018743507098406,0.0001952857710421,0.0008446111460216
1772650949042645000,5.33164501953125,0.0120557639747858,0.0393608638012781,-0.0270422111066058,0.0011111753992736,-0.0008579771965742,0.0028713378123939
1772650949052618000,5.341617919921875,0.0512584780722856,0.0571420562181621,-0.0085249595001339,0.0014259610325098,-0.0026779812760651,0.0013136548222973
1772650949062590000,5.35158984375,0.0517068063616752,0.0097878190428018,-0.017997136722505,0.0011665648780763,-0.0020519194658845,0.0017708123195916
1772650949072562000,5.36156201171875,0.0069575640529394,-0.0019747341390699,0.0047135205863509,0.0027910931967198,2.37482599914e-05,0.0031474002171307
1772650949082535000,5.371534912109375,0.0421142176300287,-0.0204971368446946,0.0036489144289866,0.0003440398722887,0.0007099513895809,0.001235632924363
1772650949092507000,5.3815068359375,0.0335825361281633,-0.0521021258221939,0.0174889954041223,0.0002822545357048,-0.0001941919326782,0.0015687942504882
1772650949102479000,5.39147900390625,0.0153244103819131,-0.0665208195360377,0.0151527801420539,-0.0012014701496809,0.0003720498643815,4.19607968069e-05
1772650949112451800,5.401451904296875,0.0310351897329092,-0.0624357056468725,0.0241563534719869,-0.0011340922210365,2.10450962185e-05,-0.0010129172587767
1772650949122423800,5.411423828125,0.0195177704185247,-0.0443531191306188,0.0494075621091295,-6.55534677207e-05,-6.52633607387e-05,-0.0028130831196904
1772650949132396000,5.42139599609375,0.0307452668756246,-0.0470059351943433,0.0154856379587668,-0.0023034075275063,0.0011667152866721,-0.00445625372231
1772650949142368800,5.43136865234375,0.0132493576735258,-0.0221228748830035,0.0013632329109124,-0.0017431273590773,-5.21359033882e-05,-0.0039374842308461
1772650949152341000,5.441341064453125,0.0327098449468612,-0.0032613398835062,0.0093170323264319,0.0007530534639954,0.0009476146660745,-0.002660232130438
1772650949162314000,5.45131396484375,0.0226847100168466,0.0116961734147742,-0.0213426842907443,0.0017489311285316,0.0008337572216987,-0.0008122549043036
1772650949172285700,5.46128564453125,0.0295697933554649,0.0303476093275472,0.0021505199642386,0.0005965810269117,0.0008846237324178,-0.0033422578126192
1772650949182258000,5.4712578125,0.0433428826421499,0.0133576403535902,-0.0300972512956708,0.0012825136072933,-0.0006881006993353,-0.0015836916863918
1772650949192231000,5.48123095703125,0.032124738535285,0.0215763834487646,-0.0067637950465083,0.0014660055749118,0.0012674583122134,0.0002328504924662
1772650949202203000,5.491202880859375,0.0726759446322918,0.0256339517438784,-0.0223335310921538,0.0006619137711822,-0.0004051341675221,-0.0006493566324934
1772650949212175600,5.501175537109375,0.0336199455291032,0.0078516268158331,-0.0374296765429899,-0.0018497132696211,0.0024276701733469,6.99631636962e-05
1772650949222147600,5.511147705078125,0.0247901578634977,0.0096623294996097,-0.0119148667999077,0.0011475244536995,0.0019746883772313,-0.0009779600659385
1772650949232119600,5.52111962890625,0.0333148251026868,0.0124685825593769,0.0026983083064202,-0.0021390824113041,0.0018910649232566,0.00273954635486
1772650949242092500,5.531092529296875,0.0391460154742002,0.0261594369227066,-0.0157115008702036,0.0017324332147836,-0.0016294426750391,-0.0009688694262877
1772650949252064500,5.541064453125,0.0407961207687854,-0.0086870181940495,-1.82115101255e-05,-0.0026854847092181,0.0015679486095905,-0.0019252105848863
1772650949262036500,5.551036376953125,0.028379706788063,-0.0196122437689453,-0.0016107596648856,-0.0015574733261018,-0.0012666410766541,-0.0018588695675134
1772650949272009700,5.561009765625,0.0484317302137613,-0.0194287404282018,-0.0040216567315161,0.0006308462470769,0.0005232696421444,0.0022991239093244
1772650949281981400,5.5709814453125,0.0328670813351869,-0.0225080017430707,0.0113778647132217,0.0017698868177831,-0.0008950543124228,0.0005145096220076
1772650949291953700,5.58095361328125,0.0261333891659975,-0.0083057272588834,0.0011367215455044,0.0016124942339956,0.0010578418150544,-0.0001765806809999
1772650949301926700,5.5909267578125,0.034817630881071,0.0070895564021542,-0.0036333697999827,4.2624771595e-05,-0.0027756947092711,0.0003865810576826
1772650949311898400,5.6008984375,0.0397550872832536,0.0191993155864998,-0.0189488936225418,-0.000954729039222,0.0019120010547339,0.0003655421314761
1772650949321871600,5.61087158203125,0.0307750774919986,0.0210784073313698,-0.0130613334212917,-0.0019675698131322,-0.0011645348276942,0.0015276072081178
1772650949331843600,5.620843505859375,0.0451344422340393,0.0397951270326972,-0.0276192803421989,-0.0001488970592617,0.0024238084442913,0.002823235001415
1772650949341815600,5.630815673828125,0.0544102201014757,0.0477581418011337,-0.0243971034253016,0.0003153388388454,-0.0012739608064293,-0.0011430482845753
1772650949351788500,5.64078857421875,0.0367483066827058,0.071157685556449,-0.0158952690724283,0.00058298651129,0.0031466204673051,-0.000571267621126
1772650949361760500,5.650760498046875,0.0312076236903667,0.0542098021585494,-0.0273138676548376,-0.000669012311846,-0.0008795766625553,0.0016421230975538
1772650949371732500,5.660732421875,0.042719782307744,0.0339906420050188,-0.0311071407242678,0.0010228939354419,-0.0001224400475621,0.0018810087349265
1772650949381705500,5.67070556640625,0.0385252532273531,0.0350545083768665,-0.0360275911927223,0.0015857880935072,-0.0012165771331638,0.0028908513486385
1772650949391677700,5.680677734375,0.0280430221796035,0.0131619716510176,-0.0228280548771377,0.0007005534134805,0.0014055711217224,0.001088424003683
1772650949401650400,5.690650390625,0.0395581034064292,-0.0297285275811329,0.0015566183248534,0.003053578082472,0.0010184734128415,0.0033340109512209
1772650949411622400,5.700622314453125,0.005283493360877,-0.0284661064298823,0.0233279489569831,-4.84720803797e-05,0.0007995613850653,0.0003965442883782
1772650949421594600,5.7105947265625,0.0450841733515262,-0.0347085810160264,0.0224909866761881,0.0003067934885621,-0.000673433067277,0.0015635415911674
1772650949431567400,5.7205673828125,0.0440361256033182,-0.0319372896717861,-0.0041711664711125,0.0038256286643445,0.0004552146419882,-0.0014474284835159
1772650949441539600,5.73053955078125,0.0272790520697832,-0.0119499289801344,0.0145578281898982,0.001816636417061,-0.000486102188006,-0.0009445961331948
1772650949451512600,5.7405126953125,0.0379050755023956,-0.0336756943043321,0.0140254109467845,-0.0003565032966434,0.0013520116917788,0.0008951155468821
1772650949461484500,5.750484619140625,0.0359615402191877,-0.0205608862632885,0.0075699055313132,0.0006283004768192,0.0007851193659007,0.000238558743149
1772650949471456500,5.76045654296875,0.0428472080796957,-0.0112040059836581,0.0096744035298936,0.0007641217671334,-0.0011179756838828,-0.0018275215988978
1772650949481429500,5.770429443359375,0.0262374340623617,-0.0170078334242105,0.0175380221776198,0.0003929585218429,-0.0009710558224469,-0.0012424697633832
1772650949491401500,5.7804013671875,0.0355143809735774,-0.002823204194568,0.0051822706092614,0.0013706046156585,0.0021736049093306,0.0002518299152143
1772650949501373400,5.79037353515625,0.0295282923012971,0.0026826632127165,0.0013226086395792,0.0013707811012864,-0.0016487766988575,-0.0005709215183742
1772650949511346700,5.8003466796875,0.0183113172382116,-0.000873714094609,0.0008445062664337,0.0003284201957285,-0.0014402512460947,0.001766801229678
1772650949521318400,5.810318359375,0.0260872119367122,0.009289514131844,-0.0029208284833002,-0.0011568844784051,-0.000394414179027,-0.0006976065342314
1772650949531291400,5.82029150390625,0.0212976395726203,0.0110984632499516,0.0157052355261985,0.0001328843645751,0.0009464873000979,0.0008046826114878
1772650949541263600,5.830263671875,0.0281809693455696,0.0423349111760035,-0.0113117224081419,-0.0007556490600109,0.0022793821990489,-0.0020642126910388
1772650949551235300,5.8402353515625,0.0129237789809703,0.0368983461452648,-0.0120836292292457,-0.0003452561795711,0.0008628470823168,-0.0030165589414536
1772650949561208600,5.85020849609375,0.0473404278457164,0.039190293007344,-0.0103339086182415,-0.0009358935058116,-0.0011283527128398,-0.0002540502464398
1772650949571180500,5.8601806640625,0.0281827229112386,0.0172001776585355,-0.0165449103538878,0.003227159846574,-0.002138223266229,0.0028386786580085
1772650949581152500,5.870152587890625,0.0302811564952135,0.0291654503382742,-0.0169329415570944,0.0025610816664993,-0.0016023670323193,0.0003512186813168
1772650949591125500,5.88012548828125,0.0404535909414291,0.0345191228585317,-0.0146288293331861,-0.0016805347986519,0.0003981995396316,-0.0013047349639236
1772650949601097500,5.890097412109375,0.0302817410171031,0.0209586534092202,0.0041093989470507,-0.0007196408696472,-0.0001960447989404,-0.0013531710719689
1772650949611070700,5.90007080078125,0.0398655619204044,-0.0057611573426052,0.0168008304768707,-0.0012810351327061,-0.0014602474402636,0.00024099717848
1772650949621042400,5.91004248046875,0.0515408021450042,-0.0123360056882724,0.0246774547366425,-0.0015107041690498,-0.0023021411616355,0.0003704824484884
1772650949631014700,5.9200146484375,0.0287970554172992,-0.0363322366951033,0.0120747609362006,-0.0009916541166603,0.0012771473266184,-0.0007389904349111
1772650949640987600,5.929987548828125,0.0383703549265861,-0.0570543779347091,0.0284614759205374,0.0017014988698065,-0.0003333222121,0.0004491380532272
1772650949650959600,5.939959716796875,0.0427162751764059,-0.0608025514870882,0.0092708550971467,-0.0009787064045667,-0.0014654321130365,9.04102926142e-05
1772650949660931600,5.949931640625,0.026257307806611,-0.0502346149172633,0.0186352610961068,9.35597345232e-05,0.002232193481177,-0.0025365848559886
1772650949670904600,5.959904541015625,0.0470586882948875,-0.0462889094987884,0.0037343459564261,0.0002456260845065,-0.0003324304707348,-0.00164016475901
1772650949680876500,5.96987646484375,0.0253600667059421,-0.0160528342543169,-0.0048442525602411,0.0006420495919883,0.0022523081861436,0.0012637365143746
1772650949690848500,5.9798486328125,0.0201250886619091,0.0115216205654665,-0.0088245726343709,0.0007560327649116,-0.0012758476659655,0.0004048670525662
1772650949700821800,5.98982177734375,0.0413765510052442,0.0192381497595459,-0.0121867151443846,0.0016589784063398,0.0008245902135968,-0.0008444928098469
1772650949710793500,5.99979345703125,0.0332990430116653,0.0306225538114085,-0.0090047241074033,-0.0005788756534457,0.0002746474929153,0.0017526218434795
1772650949720766500,6.009766357421875,0.0509568647772073,0.0284008957065641,-0.0086163915100973,8.61487351357e-05,0.0007719653658568,0.0006859878194518
1772650949730738700,6.01973876953125,0.0355406844586133,0.0275891043996438,-0.0206543732330203,0.0017602117732167,0.0013448111712932,0.0030167864169925
1772650949740710400,6.02971044921875,0.0388286200881004,0.0277039994835853,-0.0255811529775615,-0.0029809020925313,0.0013915919698774,-0.0012101406464353
1772650949750683600,6.03968359375,0.0291021758437156,0.0384633669722825,-0.0003535809443332,0.0005214209668338,-0.001458522863686,-0.0011989553458988
1772650949760655600,6.049655517578125,0.035237317597866,0.0227170048512518,-0.0171817286863923,-0.0001727510243654,-0.0006825178861618,-7.72979110479e-05
1772650949770627600,6.059627685546875,0.0394283395469188,0.0190896811995655,-0.0067148778708651,0.0013532401062548,0.0014916867949068,-0.0012797150993719
1772650949780600600,6.0696005859375,0.0358399596661329,0.0037040421497076,-0.0063388202332425,-0.0008197664283216,0.0012552947737276,-0.0009515624842606
1772650949790572500,6.079572509765625,0.0356850613653659,-0.0021095029672607,0.0070100066262297,0.0003637424670159,0.0005596769042313,0.0013110592262819
1772650949800545500,6.089545654296875,0.0377735580772161,0.0169294344257563,-0.0060361292259301,0.0001486372202634,1.40480697154e-05,0.0036612544208765
1772650949810517500,6.099517578125,0.0347743762612342,0.0313581746095791,-0.0200833775451872,0.0014408030547201,-0.0024043684825301,-9.06070927157e-05
1772650949820489700,6.10948974609375,0.0244523042112588,0.030110841429606,-0.0017310250436887,-0.000340876635164,0.0002841195091605,0.0019931516144424
1772650949830462500,6.11946240234375,0.0335761063873767,0.0271455984158441,-0.0212436900288332,-0.0004894812591373,-0.0006778142414987,0.0028975610621273
1772650949840434400,6.129434326171875,0.0449473952293396,0.017164302627556,-0.009850445083389,0.0001909984275698,-0.0002419152297079,0.0002321207430213
1772650949850407700,6.13940771484375,0.048385552984476,0.0234183580536395,-0.0017304222554899,0.0002900683321058,-0.000752176856622,0.0027602594345808
1772650949860379400,6.14937939453125,0.0227910930007696,-0.0066894146360456,0.0054252673185896,0.0005892082117497,0.000813812483102,-0.0001157362712547
1772650949870351600,6.1593515625,0.0145639474034309,-0.0199042489854618,0.0057965209169313,0.0006499281153082,-0.0026309865061193,-0.000246497511398
1772650949880324600,6.16932470703125,0.0403051223814487,-0.0445289871541783,0.0143882711761165,0.0037391167134046,0.0002965084277093,-0.0011341756908223
1772650949890296600,6.179296630859375,0.029082886621356,-0.0498249746704474,0.0279055773371364,-0.0007232753559947,0.0014121066778898,-0.0010225891601294
1772650949900268500,6.1892685546875,0.0311795666396617,-0.0318161109775304,0.0207918546081054,0.0007510967552661,0.0007311678491532,-0.00126444385387
1772650949910241500,6.199241455078125,0.0494347697764635,-0.023379706543684,0.020586002438236,0.0004395069554448,-0.001704293070361,0.0028820978477597
1772650949920213500,6.209213623046875,0.0280354233950376,0.0067806365834549,0.01693505131579,0.0010952497832477,0.0002136528491973,-0.0006710967863909
1772650949930186500,6.2191865234375,0.0355237333238124,0.0173886859679594,0.0053713269079569,-0.0020464814733713,-0.0001149815507233,-0.003273005131632
1772650949940158700,6.22915869140625,0.0346317529201507,0.0194131410002708,-0.0174900731163565,0.0015267813578248,-0.0002505350857973,-0.0010891312267631
1772650949950130400,6.23913037109375,0.0201174898773431,0.034900450326316,-0.0162731898735743,-0.0014109518378973,0.000879444181919,-0.0004656852106563
1772650949960103400,6.249103515625,0.0412187300950288,0.0340394495828077,-0.0108075266125146,0.0026484294794499,-0.0003610397689044,8.39874264784e-05
1772650949970075600,6.25907568359375,0.0275976164996623,0.0412126656804233,0.0023844200516585,-0.0021801476832479,-0.0025893067941069,-0.0006755461217835
1772650949980047400,6.26904736328125,0.0367278484165668,0.0125945104939863,-0.0059248782706446,0.000830337870866,-0.0006270993035286,-0.0008806735277175
1772650949990020600,6.2790205078125,0.0355266559332609,-0.0157349639441818,0.0146862951414659,-0.0023718466982245,0.001948710065335,0.0017848844872787
1772650949999992600,6.28899267578125,0.0305862769216299,-0.025820268096216,0.0102006010947749,-0.0016805389896035,0.0005238368175923,-0.0012538449373096
1772650950009965300,6.29896533203125,0.0198123694509267,-0.029847075926885,0.005890510210162,-0.002282413188368,0.000377629417926,-0.0012248165439814
1772650950019937500,6.3089375,0.0362730903863906,-0.0217995246801525,0.0083792674191296,0.0013700639829039,0.0004875878803431,-0.0017243887996301
1772650950029909500,6.318909423828125,0.0510889667242765,-0.0248165709463879,0.0077001625811681,-0.0013996234629303,0.0020913435146212,0.0001989461597986
1772650950039882500,6.328882568359375,0.0379220266371965,-0.0144239178782328,0.0034150326078757,-0.0009381971322,0.0010409913957118,-0.0008991563227027
1772650950049854500,6.3388544921875,0.0440524922162294,0.021113843970932,-0.0032968861209228,-0.0008646938949823,0.0014673634432256,0.0006481402087956
1772650950059826700,6.34882666015625,0.0533276855617761,0.0500350006919354,-0.0105711057744454,0.0006879288703203,-0.0013513260055333,-0.0007723898743279
1772650950069799400,6.35879931640625,0.0443488448143005,0.0568754411712288,-0.0238537537962198,0.0014538541436195,-0.0006628988776355,0.0001605154830031
1772650950079771400,6.368771484375,0.0266945301800966,0.0403480116751044,-0.0191571660783607,0.0011311690323054,0.0012847636826336,-0.0011830541770905
1772650950089744600,6.37874462890625,0.0208586636334657,0.0358603813996538,-0.0194468058078549,-0.0001311693340539,-0.0019339327700436,-0.0009945023339241
1772650950099716400,6.38871630859375,0.0293856689602136,0.0147473776789382,-0.0034502774511929,0.0015032989904284,-0.0014375045429915,0.0017318170284852
1772650950109688600,6.3986884765625,0.0431464832872152,-0.0075309069614857,0.0067158551183994,-0.0012759759556502,0.0014200671575963,-0.0004815361753571
1772650950119661600,6.40866162109375,0.0395569343626499,-0.0350748570451512,0.0181535145943053,0.0003864602185785,-0.0001501627266407,-0.0012632237048819
1772650950129633500,6.418633544921875,0.0540729509711265,-0.0574036297637969,0.0098002857987303,-0.0009368644095957,-0.0006468419451266,-0.001256299437955
1772650950139605500,6.42860546875,0.0373141238719224,-0.0789815841151401,0.0175322956897318,-8.26902687549e-05,0.0006968006491661,0.0016122269444167
1772650950149578500,6.43857861328125,0.0346177243947982,-0.054703869285807,0.0099407719816546,0.0010891007259488,0.0012502055615186,-0.0019036782905459
1772650950159550500,6.448550537109375,0.0367120663255453,-0.0315345906224101,0.0209190155185759,0.0007816758006811,0.0013469262048602,0.0001067656558007
1772650950169522400,6.4585224609375,0.0301280117601156,-0.0172218049684539,0.0082409823264461,0.0009076432324945,0.0002566277980804,-0.0011118968250229
1772650950179495700,6.46849560546875,0.045685061854124,0.0220064454291015,-0.0183897253698203,0.001561012584716,-0.002520031761378,0.0034375574905425
1772650950189467400,6.47846728515625,0.031324528068304,0.0624752339396625,-0.0390262798183597,-0.0011357041075825,5.60441985726e-05,-0.0025167379062622
1772650950199440400,6.4884404296875,0.0452437478274106,0.0705198260443285,-0.0300951963359024,0.000154557172209,-0.0011293704155832,-0.0007363141048699
1772650950209412400,6.498412353515625,0.027889292922616,0.0711193993726745,-0.0086082904020324,-0.001180751947686,0.0007404349744319,-0.0006236623739823
1772650950219384300,6.50838427734375,0.0343207872748374,0.0512065286893397,-0.0204977396328933,0.0017608264461159,0.0003180764615535,0.0030676391907036
1772650950229357300,6.518357421875,0.0419523050665855,0.0386146120112389,-0.0335701059048529,-0.0024200703483074,-0.0008648994844406,-0.0017673298716545
1772650950239329300,6.528329345703125,0.0269821149498224,0.0158673581521958,0.0131689128484576,-0.0002004234120249,-0.0002948143519461,0.0014339754125103
1772650950249301200,6.53830126953125,0.0379009838491678,-0.0082663816291838,0.0181619810285512,-0.0014648924116045,0.0020240000449121,-0.0003229118883609
1772650950259274200,6.548274169921875,0.0343102658808231,-0.0312645049767568,0.0124595042037777,-0.0017960984259843,-0.0004398045130074,-0.0002753018925432
1772650950269246500,6.55824658203125,0.0281774622142314,-0.0473434965856373,0.0054562104461248,-0.0017572161741554,0.0007218662649393,-0.0002968735061585
1772650950279219500,6.568219482421875,0.0450870959609746,-0.0370250412648543,0.0201272166869137,0.0010527749545872,-0.0026559461839497,-0.0007095007458701
1772650950289191200,6.578191162109375,0.037456747213006,-0.0350472749184817,0.0193803438423667,0.0013979207724332,-0.0014007985591888,0.0023587271571159
1772650950299163400,6.588163330078125,0.0373041869997978,-0.0019711904751136,0.0187839945175684,0.0018772315233945,-0.0009990399703383,0.0011302626226097
1772650950309136400,6.598136474609375,0.0310164850324392,0.0097845676397904,-0.0129353780872188,-0.0005534356459975,0.0005256198346614,0.0015814020298421
1772650950319108400,6.6081083984375,0.0371481196552515,0.0368122387643903,-0.0143235262436792,0.0006449604406952,-0.0009053342510014,0.000835555314552
1772650950329080300,6.618080322265625,0.0371457815676927,0.0388167469872161,-0.0347119602832011,0.0014801281504333,-0.0003258301876485,-0.0002052080235444
1772650950339053300,6.62805322265625,0.0259264684170484,0.0259855416605249,-0.0293267601135186,0.0012118518352508,-0.0001454865559935,0.0019051044946536
1772650950349025300,6.638025390625,0.0142512281924486,0.0461115801705047,-0.0093556381706148,8.66660848259e-05,0.0012649237178266,-0.0023383763618767
1772650950358998300,6.647998291015625,0.0501665911823511,0.037188159404695,-0.0002979600332677,-0.0006565009243786,0.0002170954830944,-0.0010973339667543
1772650950368970500,6.657970458984375,0.0432844304531812,-0.009836042098701,-0.0010349599377717,0.0004577655345201,-0.0002934327349066,-0.0006264870753511
1772650950378942200,6.667942138671875,0.0284714767247438,-0.0182236024221405,-0.0021805954420939,0.000363441184163,-0.001315209781751,-0.0007740401197224
1772650950388915200,6.677915283203125,0.0301174903661012,-0.046230201581493,0.0218637672890909,-0.0001430921256542,0.0013255807571113,0.001357021392323
1772650950398887400,6.687887451171875,0.0444850384145975,-0.0581686227869242,0.0243357012274209,0.0011609238572418,-0.0005647984798997,-0.0012271184241399
1772650950408859100,6.697859130859375,0.0441904393821954,-0.0612877411881461,0.017034511368582,0.0020400332286953,0.0011891592293977,-0.0001344234333373
1772650950418832400,6.707832275390625,0.0256318693846464,-0.0430860583368688,0.0220952653568703,0.0010704761371016,0.0001603416167199,0.000701758719515
1772650950428804400,6.717804443359375,0.0458387911111116,-0.004981624337472,-0.0011485763800796,-0.0009013279341161,-0.0012253010645508,-0.0022556816693395
1772650950438777000,6.727777099609375,0.0413490784764289,0.0233041936220601,-0.0032902463175822,-0.001747372560203,0.0001439917832612,-0.0005772425211034
1772650950448749300,6.737749267578125,0.0229389770388603,0.042731911136955,-0.0278753739951178,-0.0002836994826793,0.0008923402056097,-0.0009530145325697
1772650950458721300,6.74772119140625,0.0316150354474782,0.0794253458272665,-0.0280091929752379,0.0017014541663229,0.0018221703357994,0.0014842284144833
1772650950468694300,6.7576943359375,0.0500187071442604,0.0749458623256534,-0.034243703450635,0.0015666983090341,-0.0002638837322592,-0.0002023514243774
1772650950478666200,6.767666259765625,0.0271200621157884,0.0732092112587764,-0.0596723144812975,0.0026790276169776,0.0020432756282389,-0.0014415155164897
1772650950488638500,6.777638427734375,0.0383417133539915,0.0403160456342622,-0.0215227718316949,0.0005927076563239,-0.0017772952560335,0.0018845062004402
1772650950498611200,6.787611083984375,0.0455178885936737,0.0062939855776727,0.0110685247694142,0.0012690755538642,-0.0017291866242885,0.0016807257197797
1772650950508583400,6.79758349609375,0.0565846415311098,-0.0030659269092604,0.0155976195664145,0.0006011547520756,0.0001845606602728,-0.0009339658427052
1772650950518556400,6.807556396484375,0.0136380647301673,-0.0422512514805421,0.0133434291651472,0.0003517381846904,0.0011511477641761,-0.0001925317337736
1772650950528528100,6.817528076171875,0.0321948811620473,-0.0557601003404706,0.0313282726616598,-0.0014903706032782,0.0005178479477763,-2.1156738512e-06
1772650950538500400,6.827500244140625,0.0411783980846405,-0.0475895803011953,0.0173243794269394,0.00064995046705,0.0034035122953355,-0.0020991866476833
1772650950548473300,6.837473388671875,0.0220236157596111,-0.0320459011454135,0.0158369721470866,0.0007005506195127,-2.10464932024e-05,0.0017884958069771
1772650950558445300,6.8474453125,0.0423766679584979,-0.0197001047154888,0.0274943479214329,-0.0003387643955647,-0.0016313439700752,-0.0007342875469475
1772650950568417300,6.857417236328125,0.0423708227396011,0.0052711453359574,-0.000883934094524,-0.0004966901615262,0.0014256983995437,0.0028133091982454
1772650950578390300,6.867390380859375,0.0326426249295473,0.0088853172451257,-0.0223329191708005,0.0009013265371322,-0.0008174937684088,0.0005938116228207
1772650950588362200,6.8773623046875,0.0416208811551332,0.0331618995632976,-0.019428968757065,0.0017087967135012,0.0004032989963889,0.0001442700740881
1772650950598335200,6.887335205078125,0.0354874929666519,0.0296047916036099,-0.0235992036464158,0.0029762592166662,0.0001255385577678,-5.36314910277e-05
1772650950608307500,6.897307373046875,0.0302490077912807,0.0323569398559629,-0.0175775596035644,0.0016518696211278,-0.0027338974177837,5.12970727868e-05
1772650950618279200,6.907279052734375,0.0351882177591323,0.0306734072158113,-0.000974407123262,-8.43666493892e-05,0.0015041311271488,-0.0028899076860398
1772650950628252200,6.917252197265625,0.0410234997838735,-0.0059210971446707,0.0277100090992636,0.0018221903592348,0.0004612375050783,0.0009540991741232
1772650950638224400,6.927224365234375,0.0251595756977796,-0.0245886439420282,0.0228126929112244,-0.0010710903443396,0.0012971414253115,0.0003427551710046
1772650950648196000,6.937196044921875,0.0428162284195423,-0.0459035634430125,0.0206967054042499,0.0011401325464248,0.0014816988259553,-0.0034205578267574
1772650950658169300,6.94716943359375,0.0359305605590343,-0.0409022480243816,0.0146943049179855,-0.0005396739579737,-0.0010132859461009,0.0015840721316635
1772650950668141300,6.957141357421875,0.0508949054569005,-0.0377804992746561,0.0161939962906762,-0.0006994637660682,0.0002043112181127,0.0006026970804668
1772650950678114000,6.967114013671875,0.023959552258253,-0.0259210981221869,0.003203554414818,-0.0007326956838369,0.0011255317367613,-0.0021552895195782
1772650950688086300,6.977086181640625,0.033985856232047,0.0017603242034092,-0.0020022979994304,-0.0007585282437503,-0.0015240472275763,-0.000950209214352
1772650950698058200,6.987058349609375,0.0220171860188245,0.0208049606848508,0.0090161222842521,-0.0005884142592549,0.0014655985869467,-0.0022828849032521
1772650950708031200,6.99703125,0.0354874929666519,0.0430085361212492,-0.0168864355342462,0.0015844590961933,-0.0004401593469083,-0.0002895087818615
1772650950718003200,7.007003173828125,0.0344423678278923,0.0601459142092615,-0.0209359209876041,-0.0007861484773457,0.0012187473475933,-0.0027380136307328
1772650950727975400,7.016975341796875,0.0229185187727212,0.0510677047405391,-0.0218152428390923,-0.0003041164018213,-0.0004694303497672,0.0004266207688488
1772650950737948200,7.0269482421875,0.0281546658605337,0.0283164688261225,-0.0003871087545994,-0.0001914561726152,0.0010500350035727,-0.0015239652711898
1772650950747920400,7.03692041015625,0.0281575884699821,0.0204208567380905,-0.0044724601057823,-0.0004868009127676,-0.0011161803267896,0.0012963223271071
1772650950757893400,7.046893310546875,0.0356377150923013,0.0064131549779325,0.002735681174742,-0.0002137292176485,-0.0006074060220271,-0.0003308407322037
1772650950767865000,7.056864990234375,0.0555395163923501,-0.0038758185200393,-0.0043924171395134,0.0007367529906332,-0.0004974172916263,-6.61225058138e-05
1772650950777837300,7.06683740234375,0.0369844535261392,-0.0046917014801874,0.0171786234138533,-0.0002041780389845,0.0038214102387428,0.0010788810905069
1772650950787810300,7.076810302734375,0.041917818275094,-0.0248499982919543,0.0190342886173632,-0.0001035104505717,6.20917417109e-05,-0.0006670872680842
1772650950797782300,7.0867822265625,0.0193248781949281,-0.0202777584729716,0.0173894988187123,0.0016889418475329,0.0013178912922739,-0.0003978681052103
1772650950807755300,7.09675537109375,0.0254617735147476,-0.0246788795087486,-0.0049189252316486,0.0010311412625014,0.0010076332837343,-0.0003435396356508
1772650950817727200,7.106727294921875,0.0202191966861486,-0.0214681007687002,-0.008711960839061,0.0008730706758797,-0.0016460812184959,-0.0017853649333119
1772650950827699200,7.11669921875,0.028750878188014,0.0037948257056996,-0.0133986208179499,0.0004962333478033,0.001295646186918,-0.0011126504978165
1772650950837672200,7.126672119140625,0.0317477219164371,0.020968626813963,-0.0302939337783958,0.001849384047091,0.0029771788977086,-0.001694505685009
1772650950847644400,7.13664453125,0.0455085362434387,0.030450485180132,-0.0034713659049943,-0.0002318765036761,0.0011446578428149,0.0021716053597629
1772650950857616100,7.1466162109375,0.0359323141247034,0.0258394111881032,0.0006585278408136,0.0019980301149189,-0.0016282594297081,0.0002750345156528
1772650950867589000,7.156589111328125,0.0330839389562606,0.013559957992658,0.0001598576036747,-0.0002581998705863,0.0011209216900169,0.0019237974192947
1772650950877561300,7.166561279296875,0.0244043734163045,0.0173326449317857,-0.0021879750309512,-0.0022798764985054,-0.0014016286004334,0.0009436684194952
1772650950887533300,7.176533203125,0.045949850270152,-0.0008546806005761,-0.004589839407755,0.0005015288479626,0.0044384174980223,-0.0012478467542678
1772650950897506300,7.18650634765625,0.0324830504536628,0.0113686584934592,-0.0110984449836425,0.0005324427038431,-7.601454854e-06,-0.00133633101359
1772650950907478300,7.196478271484375,0.0287450329691171,-0.0083022201275452,0.0018180000742431,-0.000664381776005,0.0012414208613336,-0.0034287765156477
1772650950917451300,7.206451171875,0.0377332260668277,0.004286408614926,-0.015782702942891,0.0029697637073695,-0.0022306987084448,-0.0008995584212243
1772650950927423200,7.21642333984375,0.044167058506608,0.0168854856861755,0.0107328265416435,0.0006512152031064,0.0015528541989624,0.0015063412720337
1772650950937395500,7.2263955078125,0.0404237803250551,0.0069439739190042,-0.0148308821107726,-6.94431364536e-05,-0.0016287481412291,0.0003703630063682
1772650950947368400,7.236368408203125,0.0417734413683414,0.023201573497802,-0.0100926106756553,-0.0005860961973667,-0.0016399333253502,-0.0011281976476311
1772650950957340200,7.246340087890625,0.0211263746589422,0.0260891846980899,-0.0237426398382522,-0.0009919232688844,0.0013859276659786,9.53155686147e-05
1772650950967312400,7.2563125,0.0254652806460857,0.0184857604896649,-0.0145913560001645,0.0028323759324848,0.0012133549898862,0.0010133071336895
1772650950977285400,7.266285400390625,0.0420715475320816,0.0191509464001283,-0.0111059707029722,-0.0006758421659469,0.0022493111900985,-0.0009920792654156
1772650950987257300,7.27625732421875,0.0357896907836198,0.0200822724334895,0.0049892231220379,0.0007619983516633,0.0009614066220819,-0.0007270947098731
1772650950997230300,7.286230224609375,0.0462625694811344,-0.0002079801948741,0.0003693721685092,0.0001947153359651,0.0014278166927397,0.0007190546020865
1772650951007202300,7.296202392578125,0.0372843132555484,-0.0087734178358688,-0.013315472579142,-0.0007927850820124,0.0012267478741705,-0.0013187961885705
1772650951017174300,7.30617431640625,0.0327981077522039,-0.0149294927801936,-0.0170670710644684,0.0012684892863035,0.0014188992790877,-0.0001836421433836
1772650951027147300,7.316147216796875,0.0263642753124237,-0.0130406102936714,0.0012845964504405,0.0016591749154031,0.0023779035545885,-0.0016960513312369
1772650951037119500,7.326119384765625,0.0293576119095087,0.0037475524978712,0.000915324746631,0.0007190778851509,-0.0023808577097952,0.0035333558917045
1772650951047091200,7.33609130859375,0.0224777892678976,0.0094229677857831,-0.0023159670584835,-0.0002183550968766,-0.0021531574893742,-0.0020496947690844
1772650951057064200,7.346064208984375,0.0287649067133665,0.0126496747473254,-0.0044157066835556,-0.0008174027316272,0.0006502643227577,-4.84240008518e-05
1772650951067036400,7.356036376953125,0.029515432819724,0.0279138063093647,0.0080212112290784,-0.0006536184810101,0.0016779783181846,-0.0007552269962616
1772650951077009200,7.366009033203125,0.0356470674425363,0.002605542855896,0.0134169693253934,0.0002022511325776,-0.0017636793199926,0.0013185425195842
1772650951086981400,7.3759814453125,0.0218733936339616,0.0166201127482578,-0.015228868452413,0.0002243556082248,0.0008414248004555,0.0017025703564286
1772650951096953300,7.385953369140625,0.0305547127395868,0.012239523043856,-0.0109386056462768,0.0002456856891512,-0.0004136362113058,-0.0009081101743504
1772650951106926000,7.395926025390625,0.0321989728152751,0.0145445120505988,0.0169075605206657,0.0005663302727043,-0.0013015340082347,0.0026219098363071
1772650951116898300,7.405898193359375,0.0450631305634975,0.0160534918414428,-0.0158532930942252,0.0018259920179843,0.0002676001749932,-0.0010406791698187
1772650951126870300,7.415870361328125,0.0410223307400941,-0.0001448152981698,-0.0069968366174027,-0.0005852342583239,0.0002633393742144,-0.0009623822988942
1772650951136843300,7.42584326171875,0.028155834904313,-0.0126356827545911,-0.0113075850891415,0.0004591038450598,-7.89701007306e-05,0.0002414983464404
1772650951146815200,7.435815185546875,0.0281564194262027,-0.0048748394947499,-0.0131034646631218,-0.0009521055035293,0.0005000014789402,-0.0004487929982133
1772650951156788200,7.445788330078125,0.0458113185822963,-0.0194692551016807,0.0087350129210855,-0.0005473406054079,0.0012802588753402,0.0011890524765476
1772650951166760200,7.45576025390625,0.0402735581994056,-0.0018272884923964,-0.0023070530996657,-0.0007337620481848,0.0020022420212626,-0.0006242938688956
1772650951176732400,7.465732421875,0.0269587340742349,0.0059848830958828,-0.0113521000843029,-0.0001484816893935,-0.0001674043014645,-0.0022776955738663
1772650951186705400,7.475705322265625,0.044912908437848,0.0090192458231002,-0.0242759521305095,-0.0021905933972448,0.0003833374939858,0.0016933439765125
1772650951196677000,7.485677001953125,0.0384784914761781,0.0134030138652771,-0.0176285591384395,-0.0021479793358594,-0.0025442263577133,-0.0021335687488317
1772650951206649900,7.49564990234375,0.0588303746312856,0.0027979236228391,-0.0077722688361536,-0.001075258012861,-0.0009697654750198,0.0004539584042504
1772650951216622800,7.505622802734375,0.0455102898091077,0.0122790878692641,-0.0009128222622908,0.0038411128334701,0.0003591575659811,0.0002146760816685
1772650951226594600,7.515594482421875,0.0265063141316175,0.0054121247092261,-0.0053818848345894,0.0015683709643781,-0.0022986773401498,-0.0018940148875117
1772650951236567800,7.52556787109375,0.0311497560232877,0.0072318874822929,-0.0196977666279301,-0.0018560814205557,0.0017018290236592,-0.0009431645157746
1772650951246539800,7.535539794921875,0.0425181222558021,-0.0034111601503565,-0.015961009518709,-0.0014914947096258,-0.0007512087468057,0.0010747127234935
1772650951256511700,7.54551171875,0.0386240374267101,0.0020812632534652,-0.0069602948661427,0.0005447999574244,-0.0003895657137036,0.0009909039363265
1772650951266484700,7.555484619140625,0.0194698396235704,0.0030254853010177,-0.0043626613220665,0.0039714886806905,0.0010216431692242,0.0015251340810209
1772650951276457000,7.56545703125,0.0333832141637802,0.0013477978797629,0.0036260815426707,-0.0009370329789817,-0.0009401587303727,0.0029855764005333
1772650951286428700,7.5754287109375,0.0279980139940977,-0.0049489276442676,-0.0120039241896942,-0.000504002906382,-0.000668516382575,-0.0001969011500477
1772650951296401700,7.585401611328125,0.0525403345763683,-0.0044202275950461,0.0136859133267309,-9.04100015759e-05,0.0010948097333312,-0.0002343445667065
1772650951306374000,7.595373779296875,0.034433599999547,-0.0045602571202442,0.0072320153464563,0.0001745745539665,-0.0011558276601135,0.0003765846486203
1772650951316347000,7.605346923828125,0.0212613992154598,-0.0003843231424689,-0.0015418043482117,0.0015871217474341,0.0018917992711067,0.0015469749923795
1772650951326318800,7.61531884765625,0.0443067592382431,0.0058392275474965,-0.003112907856144,-0.0019775195978581,0.0003322521224617,0.0001341680763289
1772650951336290800,7.625290771484375,0.0226104757368564,0.0001536927243694,0.0110347868965938,0.0011346875689923,-0.0005354271270334,6.90955785103e-05
1772650951346263800,7.635263916015625,0.0169271694034338,0.0135382210848852,-0.0034572003823239,-0.0005308534018695,0.0005431529134511,0.0007101185037754
1772650951356235800,7.64523583984375,0.029494974553585,0.0066884282553568,-0.0075631835295818,-0.0007921829819679,0.0001691500656306,-0.0013050010893493
1772650951366207700,7.655207763671875,0.0288993467479944,-0.0009038169719278,-0.0075789930200669,0.0018368898890912,0.0004114978946745,-4.10649226978e-05
1772650951376181000,7.665180908203125,0.0206669404536485,-0.0016258111035451,0.0032321411884855,0.0015634661540389,0.000960748642683,0.0003303533885627
1772650951386152700,7.675152587890625,0.040714872226119,-0.0008014891086146,-0.0001369151195045,-9.35522839426e-05,0.0013905828818678,0.0026528961025178
1772650951396125700,7.685125732421875,0.0347246919006109,0.0025611191922798,0.0013702197741251,0.0006481921300292,0.0007508173584938,-0.0019178746733814
1772650951406098000,7.695097900390625,0.0374216758996248,-0.0061927902255207,0.0075548997584264,0.0017036027275025,-0.0012050082441419,7.28382146917e-05
1772650951416069600,7.705069580078125,0.0324848040193319,-0.0109647538676857,-0.0096783947184216,-0.0018544998019933,-0.0010311855003237,-0.0001810666290111
1772650951426043000,7.71504296875,0.0383206705659627,-0.0037759383421391,-0.0098101222061552,0.0008201128803193,-0.0017212105449289,0.0005603574682027
1772650951436014800,7.725014892578125,0.0285924727559089,0.0031607655858621,-0.0060611906019505,0.0004123081453144,0.0002515944652259,-0.0006817064713686
1772650951445986800,7.73498681640625,0.0339811800569295,0.0109205493997782,-0.0109262758876662,0.0014109937474131,-0.0004456215538084,-0.0011722607305273
1772650951455959800,7.744959716796875,0.0259042565852403,0.0113119598701596,-0.0079834273688029,0.0010009589605033,-0.0016752968076616,-0.0001621437841095
1772650951465931800,7.754931884765625,0.041468320941925,0.0098155107673257,0.0118797954865265,0.0019719470292329,-0.0021783679258078,0.0001443860237486
1772650951475904800,7.76490478515625,0.0327899244457483,0.0184815592385828,0.0072651321647688,-0.000190844759345,-0.0009303514380007,-0.0005066107842139
1772650951485876700,7.774876708984375,0.0422188470482826,0.0063415145138278,0.001196214914089,-0.0023496029898524,-0.0003215526230633,-0.0031042580958455
1772650951495849000,7.784848876953125,0.0438677832990884,-0.0031514863008633,-0.0036676373957656,0.0021525952033698,-0.0013408937957137,0.0014320333721116
1772650951505821700,7.79482177734375,0.0314466931432485,-0.0044402474697679,0.0154993376905564,-0.0005816724151372,0.0022477158345282,-0.0002710581175051
1772650951515794000,7.8047939453125,0.0281499896854162,0.0019542393403127,-0.0029630967224482,0.0025212704204022,0.0010067671537399,0.0026459998916834
1772650951525766000,7.814765869140625,0.0365250193208456,-0.0028684315757825,0.0055018670856021,-0.0004857047460973,-0.0001293374225497,0.0027717009652405
1772650951535738600,7.824738525390625,0.0300894333153963,-0.0107215927615761,0.0009529898758977,-0.0011045257560908,-0.0027128118090331,0.0005013877525925
1772650951545710800,7.8347109375,0.0118324766129255,-0.0012104352356866,-0.0007549465531483,0.0001357081346213,0.0017157588154077,-0.0012107584625482
1772650951555683800,7.844683837890625,0.0341308176606893,0.0090502985484898,-0.0141818162180483,-0.0022790976800024,0.0002908897586166,0.0005050171166658
1772650951565655800,7.85465576171875,0.0490969161242246,0.0105124435229226,-0.0213082248987164,-0.0011501838453114,-0.0025831935927271,0.0004871739074587
1772650951575627800,7.864627685546875,0.0402677129805088,0.0118344493743032,-0.0008701795638073,-0.0005606892518699,5.74910081923e-05,0.0019064277876168
1772650951585600800,7.874600830078125,0.0329278716117143,0.0126263304043561,-0.0171338070245925,0.001048925332725,0.0016154400072991,-0.0001282271696254
1772650951595572700,7.88457275390625,0.0342763636112213,0.0073452847288921,-0.0196711617487948,-0.00103962700814,-0.0003805528394877,-0.0006732479087077
1772650951605544700,7.894544677734375,0.0237958861291408,0.0056819911591708,-0.0124277299591805,-0.0003565261140465,0.0011816574260592,1.5971018001e-06
