time,seconds_elapsed,acc_z,acc_y,acc_x,gyro_z,gyro_y,gyro_x
1772903796549343500,0.139343505859375,-0.3987107276916504,0.3234890103340149,-0.1081762313842773,0.6181951761245728,-1.018311619758606,0.1685986816883087
1772903796568329700,0.158329833984375,-0.2391107082366943,0.0331652164459228,-0.311772346496582,0.7018836140632629,-1.3390156030654907,-0.0054977829568088
1772903796587316000,0.17731591796875,0.2288751602172851,0.2925153374671936,-0.1453533172607422,0.6976075768470764,-1.6908737421035769,-0.1881463527679443
1772903796606302200,0.19630224609375,1.5087509155273438,1.1227338314056396,-0.691899299621582,0.5503891706466675,-1.9932518005371092,-0.0421496704220771
1772903796625288400,0.215288330078125,2.187338352203369,2.0040042400360107,-0.7755999565124512,0.1178968995809555,-1.905287265777588,0.4929678738117218
1772903796644274700,0.234274658203125,1.6702518463134766,1.283430099487305,-0.2659344673156738,-0.2901607751846313,-1.8173227310180664,1.1209368705749512
1772903796663261000,0.253260986328125,-0.4446697235107422,0.1801872551441192,0.1290841102600097,-0.6493492722511292,-1.6646065711975098,1.425147533416748
1772903796682247000,0.272246826171875,-2.589418411254883,-0.8626279830932617,-0.7571249008178711,-0.7202095985412598,-1.6169590950012207,1.2266165018081665
1772903796701233200,0.291233154296875,-2.914180278778076,-2.4687492847442627,-0.0882139205932617,-0.2602283954620361,-1.5528182983398438,0.4941896200180053
1772903796720219400,0.310219482421875,-0.7471504211425781,-5.333389759063721,3.7739338874816895,0.6860011219978333,-2.0134103298187256,-0.3659079968929291
1772903796739206000,0.329205810546875,4.91316032409668,-6.864502429962158,10.524503707885742,1.884517788887024,-2.8741188049316406,-0.7959567904472351
1772903796758192000,0.348192138671875,13.077739715576172,-6.859600067138672,20.79437255859375,2.526536703109741,-3.0659303665161133,-0.5216785073280334
1772903796777178400,0.367178466796875,16.68072509765625,-6.232723712921143,30.98939323425293,1.2345577478408811,-1.792277216911316,0.0519235059618949
1772903796796164600,0.38616455078125,12.495199203491213,-5.699656486511231,26.40482521057129,-0.2327394783496856,-0.2999345958232879,0.0940731763839721
1772903796815150800,0.40515087890625,9.465217590332031,-3.5058939456939697,14.81918239593506,-0.2834412455558777,0.1069013327360153,-0.1386663019657135
1772903796834137000,0.42413720703125,7.855557441711426,-2.0047993659973145,10.89428424835205,-0.4288270771503448,0.0384844802320003,-0.1606574356555938
1772903796853123300,0.443123291015625,5.727646827697754,-0.1195168495178222,6.890913009643555,-1.219896912574768,0.0152716198936104,0.1447749584913253
1772903796872109600,0.462109619140625,1.8400053977966309,2.6016640663146973,-2.442140579223633,-1.6707152128219604,-0.1404989063739776,0.3420842885971069
1772903796891095800,0.481095703125,-1.8238277435302732,2.698553562164306,-8.748393058776855,-1.783114314079285,-0.0006108647794462,0.3219257295131683
1772903796910082000,0.50008203125,-4.9973883628845215,0.8933286666870117,-12.87314796447754,-1.833205223083496,0.2168570011854171,0.2816086709499359
1772903796929068300,0.519068359375,-6.435647964477539,0.1983181238174438,-17.33284568786621,-1.5418226718902588,-0.0952949076890945,0.4227184355258941
1772903796948054500,0.538054443359375,-7.5447235107421875,-0.027077317237854,-19.234054565429688,-1.0873392820358276,-0.8368847370147705,0.5320632457733154
1772903796967040800,0.557040771484375,-7.618337631225586,0.0058684945106506,-19.43100357055664,-0.5821541547775269,-1.2993093729019165,0.4636463820934295
1772903796986027000,0.576027099609375,-6.382356643676758,0.571321964263916,-18.168628692626957,-0.1032361462712287,-1.293811559677124,0.3384190797805786
1772903797005013200,0.59501318359375,-5.441730499267578,0.5636919140815735,-16.394569396972656,0.2138026654720306,-0.952949047088623,0.2528980076313019
1772903797023999500,0.61399951171875,-4.927502155303955,0.4930340051651001,-14.668416976928713,0.38850998878479,-0.7483093738555908,0.211359217762947
1772903797042985700,0.63298583984375,-4.073267459869385,0.8666501641273499,-13.153121948242188,0.5375609993934631,-0.9877683520317078,0.2437350451946258
1772903797061972000,0.651971923828125,-3.2171998023986816,1.401244044303894,-11.343989372253418,0.637742817401886,-1.2284491062164309,0.2431241869926452
1772903797080958200,0.670958251953125,-3.1576499938964844,1.8823765516281128,-9.377269744873049,0.6640099883079529,-0.8087849617004395,-0.0360410213470459
1772903797099944400,0.6899443359375,-3.002744436264038,2.047060012817383,-7.3340654373168945,0.546113133430481,0.1588248461484909,-0.5320632457733154
1772903797118930700,0.7089306640625,-1.5827243328094482,2.6810057163238525,-5.957221031188965,0.2419024556875229,0.8539889454841614,-0.8429933786392212
1772903797137917000,0.7279169921875,-0.1085953712463378,3.703534841537476,-4.951744556427002,-0.0983492285013198,1.194240689277649,-0.9211840629577636
1772903797156903200,0.746903076171875,0.2463343143463134,4.504708766937256,-3.360929012298584,-0.3988946974277496,1.7495167255401611,-1.0329723358154297
1772903797175889400,0.765889404296875,0.3393521308898926,5.371754169464111,-1.1794638633728027,-0.7434224486351013,2.459341526031494,-1.2699878215789795
1772903797194875600,0.784875732421875,2.513275146484375,6.133470058441162,0.350168228149414,-1.046411395072937,3.1887142658233643,-1.4117084741592407
1772903797213862000,0.80386181640625,5.770771026611328,5.127242565155029,4.330496788024902,-1.4685189723968506,3.61998462677002,-1.174692988395691
1772903797232848100,0.82284814453125,8.037378311157227,1.9484224319458008,7.466599464416504,-1.7415754795074463,3.794081211090088,-0.7837395071983337
1772903797251834400,0.84183447265625,10.206205368041992,0.2678096890449524,9.06352424621582,-1.5192207098007202,3.4135124683380127,-0.657290518283844
1772903797270820600,0.860820556640625,14.565502166748049,-0.4582542777061462,13.998575210571287,-1.340237379074097,2.5809037685394287,-0.8118392825126648
1772903797289806800,0.879806884765625,20.901403427124023,-2.0996484756469727,18.048229217529297,-1.5595377683639526,2.937037944793701,-0.9645555019378662
1772903797308793000,0.89879296875,25.45756721496582,-4.488663673400879,14.034185409545898,-0.9511164426803588,3.947408199310303,-0.1979201883077621
1772903797327779300,0.917779296875,25.335430145263672,-6.199029922485352,9.889142990112305,0.3494146466255188,3.430616617202759,1.7745622396469116
1772903797346765600,0.936765625,17.450977325439453,-6.533029556274414,12.196096420288086,0.9138537049293518,1.884517788887024,3.7177231311798096
1772903797365751800,0.955751708984375,1.1992683410644531,-6.689197540283203,13.755120277404783,0.5400044918060303,1.186299443244934,3.7201664447784415
1772903797384738000,0.974738037109375,-10.43058967590332,-4.375582695007324,11.225570678710938,-0.131946787238121,1.1991275548934937,2.0781619548797607
1772903797403724300,0.993724365234375,-14.047679901123049,-3.817938327789306,6.063791275024414,-0.5870410799980164,1.851531147956848,0.2211330533027649
1772903797422710800,1.012710693359375,-10.111552238464355,-2.2019944190979004,-0.4801840782165527,-0.6780598759651184,1.7336342334747314,-0.5418370366096497
1772903797441696800,1.03169677734375,-4.610899925231934,-2.384183168411255,-3.960634708404541,-0.4172206521034241,0.9376774430274964,0.0360410213470459
1772903797460683000,1.05068310546875,-4.204385757446289,-3.434620857238769,-4.132598400115967,-0.2364046722650528,0.555276095867157,0.9334014058113098
1772903797479669200,1.069669189453125,-8.892181396484375,-3.7286548614501953,-4.634824752807617,-0.1258381456136703,0.6511818766593933,1.183245062828064
1772903797498655500,1.088655517578125,-12.808757781982422,-3.8457963466644287,-5.364409446716309,0.0226019974797964,0.8032872080802917,0.8032872080802917
1772903797517641700,1.107641845703125,-12.64201545715332,-3.470122814178467,-5.345715522766113,0.1893680840730667,0.6597339510917664,0.3451386094093323
1772903797536628000,1.1266279296875,-9.927926063537598,-3.1834309101104736,-4.069462776184082,0.2419024556875229,0.4386008977890014,0.130114197731018
1772903797555614200,1.1456142578125,-7.169184684753418,-3.020087480545044,-3.304413080215454,0.2877173125743866,0.4899135529994964,0.1264490038156509
1772903797574600400,1.164600341796875,-5.354068756103516,-2.71494197845459,-2.6747751235961914,0.2755000293254852,0.5534434914588928,0.3011563420295715
1772903797593586700,1.183586669921875,-5.2298359870910645,-2.524496793746948,-1.8825936317443848,0.1264490038156509,0.6310232877731323,0.5583304166793823
1772903797612573200,1.2025732421875,-6.084351539611816,-2.2405104637146,-2.8168869018554688,0.0733037739992141,0.62857985496521,0.7812960743904114
1772903797631559400,1.221559326171875,-6.960146427154541,-2.0023765563964844,-3.4673635959625244,0.1356119811534881,0.4416552484035492,0.9291253089904784
1772903797650545400,1.24054541015625,-7.219961166381836,-1.6294374465942385,-2.8849968910217285,0.131946787238121,0.3371973633766174,0.9676098227500916
1772903797669531600,1.25953173828125,-7.29262638092041,-1.2611459493637085,-1.4779212474822998,-0.0604756139218807,0.5674933791160583,0.8197805285453796
1772903797688518000,1.278517822265625,-6.567288398742676,-0.7893140316009521,-0.8627424240112305,-0.3323104381561279,0.695164144039154,0.646905779838562
1772903797707504000,1.297504150390625,-4.466566562652588,-1.032522439956665,-1.4047919511795044,-0.4373791813850403,0.7049379348754883,0.7269290685653687
1772903797726490400,1.316490478515625,-3.119964122772217,-0.9591546058654784,-2.276197910308838,-0.2675587832927704,0.6426297426223755,0.9547816514968872
1772903797745476600,1.3354765625,-2.260134696960449,-0.373302698135376,-1.3294572830200195,-0.0971274971961975,0.6157516837120056,1.0885610580444336
1772903797764462800,1.354462890625,-0.9375152587890624,0.0253889560699462,1.004725217819214,-0.1569922417402267,0.7409789562225342,1.0329723358154297
1772903797783449000,1.373448974609375,1.556504249572754,0.3517050743103027,2.2774770259857178,-0.2938259541988373,0.9114102721214294,0.8759800791740417
1772903797802435300,1.392435302734375,3.2214298248291016,1.3435378074645996,2.2225992679595947,-0.3842339515686035,0.5302306413650513,0.5852084755897522
1772903797821421800,1.411421875,5.103757858276367,2.902883529663086,1.3084633350372314,-0.3384190797805786,-0.1759290546178817,-0.1215620934963226
1772903797840407800,1.43040771484375,10.210144996643066,2.190452814102173,1.0675060749053955,0.0720820426940918,-0.3677406013011932,-0.6102539300918579
1772903797859394000,1.44939404296875,14.498187065124512,1.260399580001831,1.590533971786499,0.5839866995811462,-0.1484401375055313,-0.4526508152484894
1772903797878380300,1.46838037109375,14.46379280090332,1.9218478202819824,2.425198793411255,0.9046907424926758,-0.2278525680303573,-0.002443459117785
1772903797897366500,1.487366455078125,11.062618255615234,2.5633862018585205,3.36637806892395,1.035415768623352,-0.4996874034404754,0.2840521335601806
1772903797916352800,1.506352783203125,5.230633735656738,3.7785511016845694,5.007080078125,0.7312051653862,-0.7263182401657104,-0.0824667438864708
1772903797935339000,1.525339111328125,1.16058349609375,3.488820791244507,5.783071517944336,0.0439822636544704,-0.4825831651687622,-0.981048822402954
1772903797954325200,1.5443251953125,0.8595552444458008,1.9556059837341309,2.8076696395874023,-0.3799578845500946,-0.1172860413789749,-1.5796962976455688
1772903797973311500,1.5633115234375,1.140275955200195,0.5094189643859863,-1.174560785293579,-0.3481929302215576,-0.1759290546178817,-1.6200133562088013
1772903797992297700,1.582297607421875,1.2503938674926758,-0.6497230529785156,-4.739668369293213,0.1374445706605911,-0.5589412450790405,-1.1588104963302612
1772903798011284000,1.601283935546875,0.4702405929565429,-1.5010300874710083,-4.938023567199707,0.6114756464958191,-1.1087195873260498,-0.2632827162742615
1772903798030270200,1.620270263671875,-3.1769161224365234,-1.3543609380722046,-2.546902894973755,0.6053670048713684,-1.3194679021835327,0.3506363928318023
1772903798049256400,1.63925634765625,-7.810020923614502,-0.9935126304626464,-0.6477015018463135,0.2235765159130096,-0.7287616729736328,0.1679878085851669
1772903798068242700,1.65824267578125,-10.402859687805176,-1.0407795906066897,-1.416553974151611,-0.1209512278437614,-0.2809978127479553,-0.2706131041049957
1772903798087229000,1.67722900390625,-10.995842933654783,-1.2201792001724243,-2.907412528991699,-0.2577849328517914,-0.462424635887146,-0.6029235124588013
1772903798106215200,1.696215087890625,-9.96321964263916,-1.6633914709091189,-3.8080201148986816,-0.2779434621334076,-0.7128791809082031,-0.758083164691925
1772903798125201400,1.715201416015625,-8.767992973327637,-1.9325616359710691,-3.808879375457764,-0.2480110973119735,-0.7079922556877136,-0.822834849357605
1772903798144187600,1.734187744140625,-8.423714637756348,-2.0722732543945312,-3.566408395767212,-0.264504462480545,-0.360410213470459,-0.9676098227500916
1772903798163174000,1.753173828125,-7.033615589141846,-1.7210537195205688,-3.884386777877808,-0.2559523284435272,-0.1832594275474548,-0.9694424271583556
1772903798182160100,1.77216015625,-5.499609470367432,-1.72540283203125,-3.9336018562316895,-0.2327394783496856,-0.2302960157394409,-0.721431314945221
1772903798201146400,1.791146484375,-5.17725133895874,-1.490644931793213,-4.256480693817139,-0.1496618688106537,-0.3738492429256439,-0.4337140023708343
1772903798220132600,1.810132568359375,-5.330214500427246,-1.141032099723816,-3.842413902282715,-0.0806341543793678,-0.3402516841888428,-0.2828303873538971
1772903798239118800,1.829118896484375,-5.066162109375,-0.3501355648040771,-2.8368818759918213,-0.1288924664258957,-0.211359217762947,-0.2761108875274658
1772903798258105000,1.84810498046875,-4.343595504760742,0.0871980190277099,-1.9037761688232424,-0.2076940238475799,0.1423314958810806,-0.3585776388645172
1772903798277091300,1.86709130859375,-2.031824111938477,0.1846590042114257,-1.0319819450378418,-0.268169641494751,0.3316995799541473,-0.2767217457294464
1772903798296077600,1.88607763671875,-0.4564294815063476,-0.5669052600860596,0.8182296752929688,-0.3213148713111877,0.0433713980019092,-0.2235765159130096
1772903798315063800,1.905063720703125,1.4162960052490234,-1.3171665668487549,3.071974754333496,-0.2895499169826507,-0.3530798554420471,-0.6731730103492737
1772903798334050000,1.924050048828125,8.546371459960938,-0.991357147693634,5.517639636993408,-0.2528980076313019,-0.5937605500221252,-1.2095122337341309
1772903798353036300,1.943036376953125,15.212393760681152,-2.5578160285949707,9.025390625,-0.3707949221134186,-0.2009745091199875,-1.693317174911499
1772903798372022500,1.9620224609375,21.565017700195312,-2.799057483673096,7.590986251831055,-0.0036651887930929,-0.3561341762542724,-1.7385212182998655
1772903798391008800,1.9810087890625,26.974830627441406,-1.9065330028533936,6.566527366638184,0.7342594861984253,-0.7312051653862,-0.7257073521614075
1772903798409995000,1.9999951171875,22.718345642089844,-0.5752790570259094,8.58823013305664,0.9761618971824646,-1.0793980360031128,0.2474002391099929
1772903798428981200,2.018981201171875,12.343844413757324,0.9520010352134703,8.309049606323242,0.7043271064758301,-1.1252129077911377,-0.0684168562293052
1772903798447967500,2.037967529296875,6.420384407043457,1.1100318431854248,5.433130264282227,0.4062250852584839,-0.8271108865737915,-0.9107993841171264
1772903798466953700,2.05695361328125,4.772743225097656,0.9824786186218262,2.154162883758545,0.1661552190780639,-0.8784235715866089,-1.0317505598068235
1772903798485939700,2.075939697265625,3.001580238342285,0.0571571886539459,-1.847515106201172,0.2064722925424575,-0.8649845123291016,-0.3042106628417969
1772903798504926200,2.09492626953125,-1.3919248580932615,-0.3904563188552856,-4.723057746887207,0.2028071135282516,-1.1197150945663452,0.7990111112594604
1772903798523912400,2.113912353515625,-7.539517879486084,-0.0352488458156585,-7.694683074951172,0.232128620147705,-2.028071165084839,1.5424336194992063
1772903798542898700,2.132898681640625,-12.003418922424316,-0.3009914755821228,-9.32882308959961,0.3225366175174713,-2.81119966506958,1.5833615064620972
1772903798561885000,2.151885009765625,-12.327314376831056,-0.7894696593284607,-9.190210342407228,0.3726275265216827,-3.1697773933410645,1.2901464700698853
1772903798580871200,2.17087109375,-11.80211353302002,-0.3406072854995727,-10.291643142700195,0.6768381595611572,-3.110523462295532,0.6927206516265869
1772903798599857200,2.189857177734375,-10.187692642211914,-0.4250232279300689,-9.872274398803713,1.054352641105652,-2.84907341003418,-0.0274889152497053
1772903798618843400,2.208843505859375,-5.346662998199463,-0.1152679920196533,-8.990705490112305,1.276707410812378,-2.4049746990203857,-0.2174678593873977
1772903798637829600,2.22782958984375,-2.212364196777344,-0.6286835670471191,-6.662092208862305,1.202792763710022,-2.2027783393859863,0.3090975880622864
1772903798656815900,2.24681591796875,-2.0793910026550293,-0.0651125609874725,-6.548041820526123,1.0317505598068235,-2.064723014831543,0.907134175300598
1772903798675802000,2.265802001953125,-4.57878303527832,0.1711485981941223,-7.772078037261963,0.971885859966278,-1.858250617980957,1.0525200366973877
1772903798694788400,2.284788330078125,-6.867421627044678,0.7023053765296936,-9.332612991333008,1.091004490852356,-1.952934741973877,0.7324268817901611
1772903798713774600,2.303774658203125,-7.155327796936035,1.3884223699569702,-9.69036102294922,1.378721833229065,-1.894291639328003,0.1710421442985534
1772903798732760800,2.3227607421875,-5.304992198944092,1.592583179473877,-8.154383659362793,1.6413936614990234,-1.2522728443145752,-0.2657261788845062
1772903798751747000,2.3417470703125,-2.398866653442383,2.5512733459472656,-5.288404941558838,1.555261731147766,-0.7703005075454712,-0.1240055486559867
1772903798770733300,2.3607333984375,-1.2992844581604004,3.851473569869995,-3.4491891860961914,1.1362085342407229,-0.8222240209579468,0.3720166385173797
1772903798789719600,2.379719482421875,-2.856536388397217,4.999717712402344,-2.83462905883789,0.6688969135284424,-0.8552106618881226,0.5821541547775269
1772903798808705800,2.398705810546875,-5.411324501037598,5.946202278137207,-2.1458234786987305,0.3762927055358886,-0.0830776095390319,0.0769689604640007
1772903798827692000,2.417692138671875,-5.396947860717773,5.464910507202148,0.4745464324951172,0.2443459182977676,0.6517927050590515,-0.7605266571044922
1772903798846678300,2.43667822265625,-2.1948490142822266,0.5881003141403198,9.085145950317385,0.3714057803153991,-0.2541197538375854,-1.5027273893356323
1772903798865664500,2.45566455078125,2.428056240081787,-6.013084411621094,19.732257843017575,1.0030399560928345,-0.9560033679008484,-2.267529964447021
1772903798884650800,2.474650634765625,10.623727798461914,-7.806221008300781,32.58515548706055,1.1777472496032717,-0.7458658814430237,-3.017061233520508
1772903798903637000,2.493636962890625,20.549219131469727,-6.932898044586182,41.59656524658203,-0.4434878230094909,2.086103200912476,-2.809367179870605
1772903798922623200,2.512623291015625,27.650415420532227,-4.096587181091309,29.05286979675293,-1.1380411386489868,2.270584344863892,-0.2419024556875229
1772903798941609500,2.531609375,20.25347137451172,-5.94066858291626,20.85201644897461,-1.0219768285751345,-0.0769689604640007,1.9834779500961304
1772903798960595700,2.550595703125,8.54874324798584,-8.300694465637207,15.438050270080566,-0.7984002828598022,-0.4471530318260193,2.2864668369293213
1772903798979581700,2.569581787109375,0.5309181213378906,-4.3608174324035645,8.436511039733887,-0.5100721120834351,0.0525343716144561,1.201570987701416
1772903798998568000,2.58856787109375,-2.8110499382019043,-0.5789356827735901,4.175436019897461,-0.8729257583618164,0.9749401807785034,-0.2382372617721557
1772903799017554400,2.607554443359375,-1.4807276725769043,1.3502298593521118,-2.518662452697754,-1.3170244693756104,1.7959424257278442,-0.7892373204231262
1772903799036540700,2.626540771484375,0.278447151184082,1.746005296707153,-8.908750534057617,-1.2608249187469482,1.3646719455718994,-0.1514944583177566
1772903799055527000,2.64552685546875,0.4799365997314453,0.9318746328353882,-11.739164352416992,-0.9327905178070068,0.2406807243824005,1.0598503351211548
1772903799074513000,2.664512939453125,-1.9929187297821045,-0.5338758230209351,-12.782156944274902,-0.6493492722511292,-0.3445277214050293,2.045175313949585
1772903799093499100,2.6834990234375,-6.821270942687988,-1.1357673406600952,-13.638614654541016,-0.5039634704589844,-0.2351829409599304,2.167959213256836
1772903799112485400,2.7024853515625,-10.4882230758667,-1.2094402313232422,-14.951116561889648,-0.3255909383296966,0.0458148568868637,1.5381574630737305
1772903799131471600,2.7214716796875,-11.315972328186035,-0.8638906478881836,-14.94936180114746,-0.0256563201546669,0.1802051067352295,0.6688969135284424
1772903799150457900,2.740457763671875,-10.598508834838867,-0.0036948919296264,-15.151233673095703,0.4862483739852905,0.1417206227779388,-0.173485592007637
1772903799169444000,2.759444091796875,-8.375882148742676,-0.1692891120910644,-12.681861877441406,0.6768381595611572,-0.1386663019657135,-0.6719512343406677
1772903799188430300,2.778430419921875,-5.286116600036621,0.1268941462039947,-10.840251922607422,0.7012727856636047,-0.2596175372600555,-0.685390293598175
1772903799207416600,2.79741650390625,-3.1215264797210693,0.2255307883024215,-9.650239944458008,0.6725621223449707,-0.407446801662445,-0.3872882723808288
1772903799226402800,2.81640283203125,-2.5150721073150635,0.5340681076049805,-9.161903381347656,0.6768381595611572,-0.5143481492996216,-0.0287106446921825
1772903799245389000,2.83538916015625,-2.8971853256225586,0.7970694303512573,-8.753296852111816,0.6273581385612488,-0.6157516837120056,0.2425133138895034
1772903799264375300,2.854375244140625,-3.4786369800567627,0.8970984816551208,-8.531765937805176,0.5821541547775269,-0.6267472505569458,0.4001164436340332
1772903799283361500,2.873361572265625,-3.712199926376343,1.072964787483215,-8.42037582397461,0.6035344004631042,-0.6743947267532349,0.5369501113891602
1772903799302347500,2.892347412109375,-3.5773751735687256,1.599601984024048,-7.202319622039795,0.5247328281402588,-0.850934624671936,0.7373138070106506
1772903799321334000,2.911333984375,-4.13215970993042,1.803966164588928,-6.133975028991699,0.2700022459030151,-0.8155044913291931,0.7849612236022949
1772903799340320300,2.9303203125,-5.049777507781982,1.895718097686768,-5.472362518310547,-0.0806341543793678,-0.6414080262184143,0.5998691916465759
1772903799359306500,2.949306396484375,-5.12343692779541,2.129807949066162,-4.625226974487305,-0.3439168632030487,-0.5051851868629456,0.4031707644462585
1772903799378292500,2.96829248046875,-4.834793567657471,1.0978482961654663,-2.7474570274353027,-0.4416552484035492,-0.4856374859809875,0.2186895906925201
1772903799397278700,2.98727880859375,-4.097616195678711,-2.387019157409668,1.7792396545410156,-0.0287106446921825,-1.1062761545181274,-0.1062904745340347
1772903799416265000,3.006264892578125,-2.3180298805236816,-7.655445098876953,10.98536777496338,1.0378592014312744,-2.185063362121582,-0.8985821008682251
1772903799435251200,3.025251220703125,3.418942451477051,-13.146380424499512,24.99249267578125,2.306625366210937,-1.719584345817566,-1.7806708812713623
1772903799454237400,3.044237548828125,10.508830070495604,-13.597847938537598,41.970462799072266,1.9834779500961304,0.7269290685653687,-2.2736387252807617
1772903799473223700,3.0632236328125,18.70273208618164,-7.876873016357422,43.74944686889648,-0.2284634262323379,2.62183165550232,-0.767857015132904
1772903799492210000,3.0822099609375,17.099506378173828,-3.7757415771484375,27.050262451171875,-0.8258891701698303,0.9596685767173768,1.5192207098007202
1772903799511196200,3.101196044921875,5.907934188842773,-2.968677043914795,17.68877410888672,-0.7910698652267456,-0.8600975871086121,2.2204935550689697
1772903799530182400,3.120182373046875,-4.83017635345459,-3.461560010910034,11.938880920410156,-0.5656607747077942,-0.4667007029056549,0.7428115606307983
1772903799549168600,3.139168701171875,-7.273531436920166,-2.5384271144866943,7.27424144744873,-0.4691441655158996,0.7721330523490906,-1.25715970993042
1772903799568155000,3.15815478515625,-4.307025909423828,0.3293757736682892,0.6430130004882812,-0.6860011219978333,1.102000117301941,-2.417191982269287
1772903799587140900,3.177140869140625,-0.676795482635498,2.547700881958008,-5.516327857971191,-0.7959567904472351,0.9144645929336548,-2.5949535369873047
1772903799606127000,3.196127197265625,2.488746166229248,3.424232721328736,-8.838162422180176,-0.7837395071983337,0.4838049113750458,-1.9291110038757324
1772903799625113600,3.215113525390625,4.010721683502197,3.6023402214050293,-10.367164611816406,-0.6860011219978333,-0.0421496704220771,-0.7641918659210205
1772903799644099800,3.234099853515625,3.1422653198242188,3.1836047172546387,-11.16295051574707,-0.5577195286750793,-0.4276053309440613,0.4141663312911987
1772903799663085800,3.2530859375,0.1331391334533691,2.337062358856201,-11.789824485778809,-0.4856374859809875,-0.6084213256835938,1.1362085342407229
1772903799682072000,3.272072021484375,-3.087421417236328,1.965152740478516,-13.017430305480955,-0.3243691921234131,-0.5100721120834351,1.2235621213912964
1772903799701058300,3.291058349609375,-4.840043067932129,1.9696624279022217,-13.444140434265137,-0.1191186308860778,-0.2797760665416717,0.9114102721214294
1772903799720044500,3.31004443359375,-5.393654823303223,1.9655827283859253,-13.11543083190918,0.0384844802320003,-0.1270598769187927,0.4654789566993713
1772903799739030800,3.32903076171875,-4.753865718841553,2.0420501232147217,-12.76650047302246,0.1795942485332489,-0.0482583157718181,0.0995709598064422
1772903799758017000,3.34801708984375,-3.712069272994995,2.0315098762512207,-11.976760864257812,0.287106454372406,0.0610864795744419,-0.0830776095390319
1772903799777003300,3.367003173828125,-2.8680360317230225,2.1401114463806152,-10.891797065734863,0.2186895906925201,0.0635299384593963,-0.088575392961502
1772903799795989500,3.385989501953125,-2.669337749481201,2.224939346313477,-10.462759017944336,0.1380554437637329,-0.0384844802320003,-0.0842993408441543
1772903799814975700,3.404975830078125,-2.427320718765259,2.1803698539733887,-9.765596389770508,0.0616973415017128,-0.0213802680373191,-0.0965166315436363
1772903799833962000,3.4239619140625,-1.6975629329681396,2.2165467739105225,-8.840926170349121,-0.0855210721492767,0.0006108647794462,0.002443459117785
1772903799852948000,3.442947998046875,-0.7929990291595459,2.0856900215148926,-8.61517333984375,-0.1624900251626968,-0.0623082071542739,0.3017672002315521
1772903799871934200,3.461934326171875,-0.625542163848877,1.995291829109192,-8.254487991333008,-0.185092031955719,-0.2461785078048706,0.6811142563819885
1772903799890920400,3.48092041015625,-1.1403772830963137,1.8893775939941408,-6.499831676483154,-0.3738492429256439,-0.430048793554306,0.9511164426803588
1772903799909906700,3.49990673828125,-1.987194538116455,1.764684796333313,-4.755655765533447,-0.7073814272880554,-0.4202749729156494,0.9950987100601196
1772903799928893000,3.518892822265625,-2.7727184295654297,1.8873666524887085,-3.556207656860352,-0.8888082504272461,-0.0635299384593963,0.7599157691001892
1772903799947879200,3.537879150390625,-2.782712697982788,1.1193653345108032,-0.3004789352416992,-0.8405499458312988,0.3200931549072265,0.4459312856197357
1772903799966865400,3.556865478515625,-2.1613335609436035,-0.9066902995109558,3.773408889770508,-0.4440986812114715,0.2144135385751724,0.098960094153881
1772903799985851600,3.5758515625,-1.475001573562622,-5.388306140899658,10.943970680236816,0.9352339506149292,-0.4776962697505951,-0.564439058303833
1772903800004838000,3.594837890625,4.118729591369629,-7.879217624664307,23.977203369140625,2.6426010131835938,-0.5332849621772766,-1.0769546031951904
1772903800023824000,3.613823974609375,10.885993003845217,-7.458772659301758,42.68949890136719,1.9535455703735352,0.3207040131092071,-1.1074978113174438
1772903800042810400,3.632810302734375,15.039612770080566,-7.120486259460449,44.14425659179688,-0.0739146396517753,1.545487880706787,-0.1270598769187927
1772903800061796600,3.651796630859375,15.140270233154297,-4.141508102416992,27.964710235595703,-0.526565432548523,0.7641918659210205,1.6340632438659668
1772903800080782600,3.670782470703125,7.05177116394043,-2.2826764583587646,17.483367919921875,-0.4105011224746704,-0.7342594861984253,2.561966896057129
1772903800099768800,3.689768798828125,-3.2291736602783203,-1.6288020610809326,10.822619438171388,-0.3652971386909485,-0.7409789562225342,1.6884303092956543
1772903800118755000,3.708755126953125,-7.821861743927002,-0.6904730796813965,5.72465705871582,-0.5888736248016357,0.2993237376213074,-0.1050687432289123
1772903800137741300,3.7277412109375,-6.779489040374756,1.0272583961486816,-1.5790414810180664,-0.924238383769989,1.2370011806488037,-1.552207350730896
1772903800156727600,3.7467275390625,-3.212221384048462,0.8513402938842773,-8.277774810791016,-1.0140355825424194,1.479514479637146,-1.92361319065094
1772903800175713800,3.7657138671875,0.036109447479248,0.2635457217693329,-12.890864372253418,-0.794124186038971,0.9352339506149292,-1.16552996635437
1772903800194700000,3.784699951171875,-0.1229913234710693,0.0526551306247711,-14.886033058166504,-0.411722868680954,0.0177150778472423,-0.0623082071542739
1772903800213686300,3.803686279296875,-2.502413272857666,0.1360864639282226,-14.778142929077148,-0.1227838173508644,-0.648127555847168,0.618806004524231
1772903800232672500,3.822672607421875,-5.234061241149902,0.4041251540184021,-13.927740097045898,0.0513126403093338,-0.905912458896637,0.5583304166793823
1772903800251658500,3.841658447265625,-6.325845241546631,0.6633504629135132,-12.799171447753906,0.1789833754301071,-0.813060998916626,0.0018325943965464
1772903800270644700,3.860644775390625,-5.220606803894043,0.7308605909347534,-11.367122650146484,0.2284634262323379,-0.4410443603992462,-0.5992583632469177
1772903800289631000,3.879630859375,-3.202486515045166,0.6421663761138916,-9.986676216125488,0.1472184062004089,-0.0073303775861859,-0.9291253089904784
1772903800308617200,3.8986171875,-1.2210054397583008,0.5363074541091919,-9.281149864196776,0.0012217295588925,0.2877173125743866,-0.8735366463661194
1772903800327603500,3.917603515625,-0.5864803791046143,0.4184044599533081,-9.388510704040527,-0.0800232887268066,0.4752528071403503,-0.6212494969367981
1772903800346589700,3.936589599609375,-1.2497570514678955,0.7702107429504395,-9.824920654296877,-0.0934623107314109,0.4324922561645508,-0.4257727563381195
1772903800365576000,3.955575927734375,-1.6816184520721436,1.074420690536499,-9.646891593933104,-0.0788015574216842,0.2950477004051208,-0.3139844834804535
1772903800384562200,3.974562255859375,-1.827654838562012,1.148802399635315,-8.919578552246094,-0.1087339296936988,0.2138026654720306,-0.2419024556875229
1772903800403548200,3.993548095703125,-1.709165096282959,0.9905207753181458,-8.245384216308594,-0.1606574356555938,0.2797760665416717,-0.1588248461484909
1772903800422534400,4.012534423828125,-1.2857341766357422,0.8583266735076904,-7.601294994354248,-0.2590066790580749,0.3133736252784729,0.0171042140573263
1772903800441520600,4.031520751953125,-0.6323227882385254,0.6818500757217407,-7.223464012145996,-0.3182605504989624,0.3121519088745117,0.3671297430992126
1772903800460507000,4.0505068359375,-0.7214622497558594,0.5537722110748291,-6.69410514831543,-0.3158170878887176,0.2119700759649276,0.7257073521614075
1772903800479493000,4.0694931640625,-0.5413627624511719,0.7450876235961914,-4.843527793884277,-0.2577849328517914,0.0354301556944847,0.9969313144683838
1772903800498479400,4.088479248046875,-0.3302900791168213,0.2707687616348266,-0.6575632095336914,-0.0293215103447437,-0.2156352698802948,1.092226266860962
1772903800517465600,4.107465576171875,-0.8042128086090088,-1.885805606842041,6.449247360229492,0.3488037884235382,-0.4318813979625702,0.6114756464958191
1772903800536451800,4.126451904296875,0.6053204536437988,-6.849771022796631,15.272517204284668,1.1221586465835571,-0.4404335021972656,-0.4135554432868957
1772903800555438000,4.14543798828125,7.894207954406738,-6.25653886795044,24.2767333984375,1.7299690246582031,-0.2028071135282516,-1.3066397905349731
1772903800574424300,4.16442431640625,17.306358337402344,-6.171813011169434,34.76025390625,1.331685185432434,0.9969313144683838,-1.1557561159133911
1772903800593410300,4.183410400390625,21.92001342773437,-6.103584289550781,33.995697021484375,0.1881463527679443,1.6511675119400024,0.4153880476951599
1772903800612396500,4.202396484375,15.842546463012695,-2.852713108062744,22.97348403930664,-0.1783725172281265,0.6823359727859497,1.746462345123291
1772903800631382800,4.2213828125,5.659387588500977,-2.076802968978882,13.79692268371582,-0.1123991161584854,0.1411097645759582,1.701869249343872
1772903800650369000,4.240369140625,-0.8631763458251953,-0.3798257112503052,6.870523452758789,0.0397062115371227,0.5558869242668152,0.6334667801856995
1772903800669355300,4.259355224609375,-1.617591381072998,1.586636662483215,1.903151512145996,-0.0354301556944847,1.1691951751708984,-0.2669478952884674
1772903800688341500,4.278341552734375,-1.0284643173217771,2.62608003616333,-2.189152717590332,-0.3035998046398163,1.4043781757354736,-0.5510000586509705
1772903800707327700,4.29732763671875,-1.1895074844360352,2.3969614505767822,-6.156964302062988,-0.5381718873977661,1.4288127422332764,-0.3555232882499695
1772903800726314000,4.31631396484375,-2.666762351989746,1.335100173950195,-9.305341720581056,-0.6078104376792908,1.1716386079788208,0.0598647482693195
1772903800745300000,4.335300048828125,-5.186905860900879,0.8340217471122742,-11.603907585144045,-0.5137372612953186,0.5668824911117554,0.3665188550949096
1772903800764286200,4.3542861328125,-6.831541061401367,0.7677189111709595,-12.855355262756348,-0.2889390289783478,-0.1282816082239151,0.4428769648075104
1772903800783272400,4.3732724609375,-7.728123188018799,1.0720593929290771,-12.622285842895508,-0.0409279391169548,-0.4508182108402252,0.1899789422750473
1772903800802258700,4.3922587890625,-7.054276943206787,0.9534146785736084,-11.51295566558838,0.1105665266513824,-0.401949018239975,-0.0891862586140632
1772903800821245000,4.411244873046875,-6.310794830322266,0.6109627485275269,-10.654937744140623,0.1539379209280014,-0.0855210721492767,-0.2474002391099929
1772903800840231200,4.430231201171875,-6.369565486907959,0.5229609608650208,-10.52766227722168,0.2046397030353546,0.1576031148433685,-0.3836230933666229
1772903800859217400,4.449217529296875,-6.140913009643555,1.1408741474151611,-10.124753952026367,0.268169641494751,0.1356119811534881,-0.5229002237319946
1772903800878203400,4.468203369140625,-5.763136863708496,1.8291829824447632,-8.828873634338379,0.21319180727005,0.1582139730453491,-0.667064368724823
1772903800897189600,4.487189697265625,-5.548480033874512,2.336132526397705,-7.612100124359131,0.0616973415017128,0.4825831651687622,-0.8668171167373657
1772903800916176000,4.50617578125,-4.870381832122803,2.6613893508911133,-6.909296989440918,-0.1307250559329986,0.971885859966278,-1.0134246349334717
1772903800935162000,4.525162109375,-4.047021865844727,3.114990711212158,-6.07675838470459,-0.3347539007663727,1.4172062873840332,-0.9865466356277466
1772903800954148400,4.5441484375,-3.836414813995361,3.0034313201904297,-4.973215579986572,-0.4838049113750458,1.7537927627563477,-0.8436042666435242
1772903800973134600,4.563134521484375,-3.904783248901367,3.292776107788086,-3.889965057373047,-0.6646208763122559,1.943160891532898,-0.6780598759651184
1772903800992120600,4.58212060546875,-3.689184904098511,3.415020227432251,-2.9163761138916016,-0.8301652073860168,2.0189080238342285,-0.5332849621772766
1772903801011106800,4.60110693359375,-2.026651382446289,3.317399740219116,-1.5571203231811523,-0.8924734592437744,2.171624183654785,-0.2730565667152405
1772903801030093000,4.620093017578125,-0.2719507217407226,1.2105333805084229,0.7825498580932617,-0.7141009569168091,2.2876884937286377,0.0012217295588925
1772903801049079300,4.639079345703125,0.7373180389404297,-2.480666160583496,4.367627143859863,-0.3555232882499695,1.255937933921814,0.0274889152497053
1772903801068065500,4.6580654296875,3.1163487434387207,-5.116086959838867,8.216716766357422,0.0653625279664993,-0.4245510101318359,-0.3591884970664978
1772903801087051800,4.6770517578125,7.62229585647583,-6.249141216278076,12.593544006347656,0.2125809490680694,-1.591302752494812,-1.103221774101257
1772903801106038000,4.6960380859375,15.235221862792969,-7.800143241882324,13.30190658569336,0.9028581380844116,-0.5870410799980164,-1.4477494955062866
1772903801125024000,4.71502392578125,24.517547607421875,-7.720898151397705,13.952054977416992,1.7073670625686646,0.6407971382141113,-0.1740964651107788
1772903801144010200,4.73401025390625,23.70229721069336,-6.351028919219971,14.686025619506836,2.069609880447388,-0.3097084462642669,1.795331597328186
1772903801162996500,4.75299658203125,14.591896057128906,-4.365914344787598,14.532308578491213,1.8197661638259888,-1.8057162761688232,2.783099889755249
1772903801181982700,4.771982666015625,5.9958271980285645,-3.355407476425171,12.730435371398926,1.2779290676116943,-2.0628902912139893,2.351829290390014
1772903801200969000,4.790968994140625,1.036855697631836,-2.0638015270233154,11.873048782348633,0.4245510101318359,-0.6701186895370483,1.0830632448196411
1772903801219955200,4.809955078125,-2.1538290977478027,-1.1017615795135498,7.890087604522705,-0.5571087002754211,1.2999202013015747,-0.2089157551527023
1772903801238941400,4.82894140625,-3.7909398078918457,1.4733449220657349,-0.2375826835632324,-1.028085470199585,2.44468092918396,-0.970053255558014
1772903801257927400,4.847927490234375,-4.692813396453857,2.8884005546569824,-6.399970054626465,-1.0286962985992432,2.595564365386963,-1.1081087589263916
1772903801276913700,4.86691357421875,-4.97223711013794,2.735703706741333,-9.205446243286133,-0.7360920310020447,1.96148681640625,-0.7312051653862
1772903801295900000,4.88589990234375,-5.411627769470215,2.3083431720733643,-9.357922554016112,-0.356745034456253,1.0262528657913208,-0.1331685185432434
1772903801314886100,4.90488623046875,-7.121381759643555,1.5188837051391602,-7.73681116104126,-0.2125809490680694,0.3176496922969818,0.2718348205089569
1772903801333872400,4.923872314453125,-8.986867904663086,1.156812071800232,-6.812949180603027,-0.2217439115047454,0.0977383628487587,0.2492328286170959
1772903801352858600,4.942858642578125,-9.91139793395996,1.2117080688476562,-6.907983779907227,-0.21319180727005,0.2205221801996231,-0.1111773923039436
1772903801371844600,4.9618447265625,-9.410951614379885,1.5733160972595217,-7.204868316650391,-0.1166751757264137,0.3597993552684784,-0.5320632457733154
1772903801390831000,4.9808310546875,-7.747978687286377,1.656516671180725,-6.531223773956299,-0.0207694023847579,0.4373791813850403,-0.7519745230674744
1772903801409817000,4.999817138671875,-5.366276264190674,1.8177183866500852,-5.211670875549316,-0.0397062115371227,0.5803215503692627,-0.5852084755897522
1772903801428803300,5.01880322265625,-4.218943595886231,1.8507829904556277,-4.440574645996094,-0.1350011229515075,0.813060998916626,-0.1545487940311432
1772903801447789600,5.03778955078125,-5.261425495147705,2.1390204429626465,-4.413279533386231,-0.192422404885292,1.1068869829177856,0.152716189622879
1772903801466775600,5.056775634765625,-6.868147850036621,2.476925611495972,-5.173716068267822,-0.1252272725105285,1.2858703136444092,0.2223547846078872
1772903801485761800,5.07576171875,-7.316827297210693,2.692699909210205,-5.324506759643555,0.0335975624620914,1.103221774101257,0.2608392536640167
1772903801504748300,5.094748291015625,-6.376747131347656,2.774050712585449,-4.096769332885742,0.0879645273089408,0.8026763200759888,0.4440986812114715
1772903801523734300,5.113734375,-5.26944637298584,2.743457317352295,-2.556809663772583,-0.0036651887930929,0.627968966960907,0.758694052696228
1772903801542720500,5.132720458984375,-4.58350133895874,3.084279775619507,-1.3044404983520508,-0.1820377111434936,0.5210676789283752,0.988990068435669
1772903801561706800,5.151706787109375,-4.224582672119141,2.633526563644409,-0.4224576950073242,-0.2993237376213074,0.481361448764801,0.9315688014030457
1772903801580692700,5.170692626953125,-2.960738182067871,0.1093378663063049,2.520848274230957,-0.3481929302215576,-0.0726929083466529,0.4960221946239471
1772903801599679000,5.189678955078125,0.2810707092285156,-3.574686050415039,5.635165214538574,-0.296269416809082,-0.7654135823249817,-0.4599811732769012
1772903801618665200,5.208665283203125,6.978512763977051,-3.976019144058228,7.5972418785095215,-0.0977383628487587,-1.1679733991622925,-1.6884303092956543
1772903801637651500,5.2276513671875,18.54041862487793,-5.366424560546875,11.03139305114746,-0.0702494531869888,-0.4996874034404754,-2.216217517852783
1772903801656637700,5.2466376953125,29.400535583496094,-10.172382354736328,14.230257034301758,-0.0629190728068351,0.5827649831771851,-1.2870920896530151
1772903801675624000,5.2656240234375,30.32334899902344,-8.271056175231934,11.269317626953123,0.296269416809082,0.8582650423049927,0.3817904889583587
1772903801694610000,5.28460986328125,20.083715438842773,-4.786162376403809,9.864225387573242,0.4416552484035492,0.4776962697505951,1.1820234060287476
1772903801713596400,5.303596435546875,9.80083465576172,-1.7244725227355957,9.07773780822754,0.1417206227779388,0.3390299379825592,0.8533781170845032
1772903801732582400,5.32258251953125,4.357349395751953,0.1582266986370086,6.948058128356934,-0.3714057803153991,0.6554579138755798,0.0897971242666244
1772903801751568600,5.341568603515625,1.7944822311401367,1.0742650032043457,4.207169532775879,-0.8381064534187317,1.1808016300201416,-0.5913171172142029
1772903801770554600,5.3605546875,0.4911737442016601,2.463632106781006,1.7090349197387695,-1.2913681268692017,1.565646409988403,-0.7929024696350098
1772903801789540900,5.379540771484375,-1.336106300354004,2.689554214477539,-1.3607640266418457,-1.469740629196167,1.8270965814590452,-0.5412262082099915
1772903801808527000,5.398527099609375,-4.598546028137207,2.069589853286743,-3.2060718536376958,-1.4483604431152344,2.051283836364746,-0.0421496704220771
1772903801827513300,5.417513427734375,-9.16067123413086,1.6375881433486938,-4.4674272537231445,-1.342680811882019,1.9126176834106443,0.3298669755458832
1772903801846499600,5.43649951171875,-12.99683952331543,1.7662725448608398,-5.689793109893799,-1.1557561159133911,1.29503333568573,0.3762927055358886
1772903801865485800,5.45548583984375,-14.613428115844728,1.853738784790039,-6.157670497894287,-0.934012234210968,0.5290089249610901,0.1148425787687301
1772903801884471800,5.474471923828125,-14.985926628112791,1.8169262409210205,-5.738542556762695,-0.7617483735084534,0.0757472291588783,-0.4618137776851654
1772903801903458000,5.4934580078125,-12.823541641235352,1.5007750988006592,-5.251084327697754,-0.5754346251487732,0.2052505612373352,-1.0506874322891235
1772903801922444300,5.5124443359375,-8.5786771774292,1.3179768323898315,-4.178092002868652,-0.4184423685073852,0.6976075768470764,-1.1111630201339722
1772903801941430500,5.531430419921875,-6.200567245483398,0.9889453649520874,-3.457756519317627,-0.3194822669029236,0.8845322132110596,-0.767857015132904
1772903801960416800,5.550416748046875,-5.75923490524292,1.5511070489883425,-3.469557285308838,-0.1918115466833114,0.4703658819198608,-0.2987128794193268
1772903801979403000,5.569403076171875,-6.674997329711914,2.043685913085937,-3.115811347961426,-0.1631008982658386,-0.1875354945659637,-0.036651886999607
1772903801998389000,5.588388916015625,-6.441487789154053,1.8149492740631104,-2.819003105163574,-0.1295033395290374,-0.306043267250061,0.0177150778472423
1772903802017375200,5.607375244140625,-5.187216758728027,1.3264856338500977,-2.4139575958251958,-0.0390953458845615,0.2186895906925201,0.0873536616563797
1772903802036361500,5.626361572265625,-3.741294860839844,1.143750548362732,-2.1680493354797363,0.0861319303512573,0.7116574645042419,0.346971184015274
1772903802055347700,5.64534765625,-2.471980094909668,1.2010235786437988,-0.724027156829834,0.0433713980019092,0.5894845128059387,0.8723149299621582
1772903802074334000,5.664333984375,-2.4264936447143555,1.504852533340454,-0.0511195659637451,-0.1313359290361404,0.1001818254590034,1.3066397905349731
1772903802093320000,5.68331982421875,-3.588282585144043,1.0550405979156494,-0.1020324230194091,-0.164322629570961,0.0219911318272352,1.1447606086730957
1772903802112306200,5.70230615234375,-0.7389850616455078,-0.4014694392681122,-0.6416711807250977,0.2467893660068512,0.4880809485912323,0.7849612236022949
1772903802131292400,5.72129248046875,4.465073585510254,-1.7114973068237305,2.078251600265503,0.4776962697505951,0.516791582107544,0.7666352987289429
1772903802150278700,5.740278564453125,9.03465747833252,-1.0498839616775513,6.170698165893555,-0.1185077652335167,-0.2901607751846313,0.8710931539535522
1772903802169265000,5.759264892578125,11.225961685180664,-2.307443618774414,4.486552715301514,-0.3164279460906982,-0.5229002237319946,0.4343248605728149
1772903802188251000,5.7782509765625,14.038894653320312,-4.772336959838867,2.078994035720825,0.5222893953323364,-0.3573558926582336,-0.3659079968929291
1772903802207237000,5.797237060546875,21.284032821655277,-5.136708736419678,4.671640396118164,1.2247838973999023,-0.8032872080802917,-0.2730565667152405
1772903802226223400,5.816223388671875,24.68891143798828,-4.729098796844482,8.768980026245117,1.122769474983215,-0.9309579133987428,0.8093958497047424
1772903802245209600,5.835209716796875,16.57971954345703,-2.528331995010376,8.616674423217773,0.6676751971244812,-0.3549124300479889,1.1698060035705566
1772903802264195600,5.854195556640625,6.772038459777832,-0.4103446006774902,6.685973167419434,0.1582139730453491,0.5051851868629456,0.4453204274177551
1772903802283181800,5.873181884765625,1.0547370910644531,0.1207327842712402,4.8827056884765625,-0.4050033390522003,1.153923511505127,-0.4135554432868957
1772903802302168000,5.89216796875,-1.2140398025512695,0.282894492149353,0.7718074321746826,-0.554665207862854,0.9187406301498412,-0.6817250847816467
1772903802321154300,5.911154296875,-3.3026509284973145,0.6287298798561096,-1.637798309326172,-0.4789179861545563,0.2657261788845062,-0.5424479246139526
1772903802340140500,5.930140625,-5.2877197265625,0.5797732472419739,-2.375096559524536,-0.3909534513950348,0.0097738364711403,-0.296269416809082
1772903802359126500,5.94912646484375,-7.487800121307373,0.6361942887306213,-2.4157168865203857,-0.3640754222869873,-0.0537560991942882,-0.0623082071542739
1772903802378112800,5.96811279296875,-9.700021743774414,0.7684491872787476,-1.972184538841248,-0.4783071279525757,0.0122172953560948,-0.0036651887930929
1772903802397099000,5.98709912109375,-11.5633544921875,0.854720950126648,-2.5777840614318848,-0.5571087002754211,0.2034179717302322,-0.2272416949272155
1772903802416085200,6.006085205078125,-12.17032241821289,0.7609633207321167,-3.694714307785034,-0.4709767401218414,0.3952295184135437,-0.6212494969367981
1772903802435071500,6.025071533203125,-10.745268821716309,0.4150710105895996,-4.088961124420166,-0.2559523284435272,0.5308414697647095,-0.8875865340232849
1772903802454057500,6.044057373046875,-8.431404113769531,0.0388078093528747,-3.662492275238037,-0.0348192937672138,0.4862483739852905,-0.851545512676239
1772903802473043700,6.063043701171875,-6.411474227905273,-0.1724952161312103,-2.4504294395446777,0.0482583157718181,0.3329212963581085,-0.4996874034404754
1772903802492030000,6.082030029296875,-6.355392932891846,-0.1514098346233368,-1.4654752016067505,-0.0360410213470459,0.1496618688106537,-0.0751363709568977
1772903802511016200,6.10101611328125,-7.913046836853027,-0.011247307062149,-1.2960258722305298,-0.1881463527679443,0.0543669648468494,0.185092031955719
1772903802530002200,6.120002197265625,-9.680412292480469,0.0819231569766998,-1.608414888381958,-0.2950477004051208,0.0690277218818664,0.2186895906925201
1772903802548988400,6.138988525390625,-11.041498184204102,-0.1899455189704895,-2.167846918106079,-0.2877173125743866,0.1386663019657135,0.1154534444212913
1772903802567974700,6.157974609375,-11.530753135681152,0.1176204681396484,-2.766035556793213,-0.21319180727005,-0.0250454563647508,-0.067805990576744
1772903802586961000,6.1769609375,-10.506080627441406,0.3005465865135193,-2.4602770805358887,-0.1576031148433685,-0.2785543501377105,-0.1368337124586105
1772903802605947100,6.195947021484375,-9.623714447021484,0.1612931191921234,-2.513995885848999,-0.0800232887268066,-0.5094612240791321,-0.1386663019657135
1772903802624933000,6.21493310546875,-8.072404861450195,0.3818886280059814,-2.626579761505127,0.0904079899191856,-0.6731730103492737,-0.0757472291588783
1772903802643919400,6.23391943359375,-4.977811813354492,0.7425674200057983,-2.4387247562408447,0.3433060050010681,-0.5534434914588928,0.0507017783820629
1772903802662905600,6.252905517578125,-1.7832884788513184,0.765612781047821,-0.5501313209533691,0.3958403766155243,-0.4831940531730652,0.0384844802320003
1772903802681891600,6.2718916015625,1.4200849533081057,-0.6960556507110596,2.21732759475708,0.3952295184135437,-1.40559983253479,-0.6548470258712769
1772903802700877800,6.2908779296875,12.040611267089844,-1.1265769004821775,7.735160827636719,0.2528980076313019,-2.984074354171753,-2.1410810947418213
1772903802719864000,6.309864013671875,32.70149230957031,-5.194476127624512,13.410036087036133,0.0372627526521682,-1.601076602935791,-3.273624420166016
1772903802738850300,6.328850341796875,54.83964157104492,-13.057233810424805,15.73159885406494,-0.0910188555717468,2.092211961746216,-1.4373648166656494
1772903802757836300,6.347836181640625,50.05931854248047,-7.419755935668945,9.076472282409668,0.3714057803153991,1.6975932121276855,1.7232495546340942
1772903802776822500,6.366822509765625,27.28866195678711,-3.1838841438293457,8.688329696655273,0.2474002391099929,-0.2272416949272155,2.836245059967041
1772903802795808800,6.385808837890625,9.685019493103027,0.6387116312980652,5.249279499053955,-0.0598647482693195,-0.439822643995285,1.7550145387649536
1772903802814795000,6.404794921875,5.098012924194336,2.5200109481811523,3.0549237728118896,-0.2987128794193268,0.5491674542427063,0.3848448097705841
1772903802833781200,6.42378125,6.09032154083252,1.6218600273132324,1.533487319946289,-0.638353705406189,0.8869756460189819,0.2412915825843811
1772903802852767200,6.442767333984375,1.0894050598144531,1.6659047603607178,-2.17957067489624,-0.6444623470306396,0.7385355234146118,0.5332849621772766
1772903802871753500,6.46175341796875,-5.757569313049316,0.9614018201828004,-5.025816917419434,-0.3182605504989624,0.7379246354103088,0.5790998339653015
1772903802890739700,6.48073974609375,-10.363347053527832,0.2182312607765197,-5.136285781860352,-0.002443459117785,0.8197805285453796,0.5051851868629456
1772903802909726000,6.499725830078125,-13.002405166625977,0.1458099484443664,-3.869925975799561,0.0390953458845615,0.6029235124588013,0.4605920314788818
1772903802928712000,6.5187119140625,-14.935773849487305,0.45884770154953,-3.3732786178588867,-0.0445931293070316,0.4184423685073852,0.2070831656455993
1772903802947698200,6.5376982421875,-14.28834629058838,0.4827815890312195,-2.7170774936676025,-0.164322629570961,0.4789179861545563,-0.0745255053043365
1772903802966684400,6.556684326171875,-12.431979179382324,0.2088536620140075,-2.635301113128662,-0.1948658674955368,0.7922916412353516,-0.1747073233127594
1772903802985670700,6.575670654296875,-10.811253547668455,0.0622036457061767,-2.813323974609375,-0.0659733936190605,1.212566614151001,-0.1014035567641258
1772903803004656600,6.59465673828125,-10.394627571105955,-0.1477701663970947,-2.2172327041625977,0.0702494531869888,1.5106686353683472,0.0788015574216842
1772903803023643000,6.613642822265625,-10.847618103027344,0.1125949621200561,-1.7123908996582031,0.1404989063739776,1.1808016300201416,0.3011563420295715
1772903803042629000,6.632629150390625,-11.198139190673828,0.3041223287582397,-0.8315829038619995,0.0629190728068351,0.5393936038017273,0.4917461574077606
1772903803061615400,6.651615478515625,-11.07858943939209,-0.0814189910888671,-0.7778390645980835,0.0671951249241828,0.4667007029056549,0.5693259835243225
1772903803080601300,6.670601318359375,-10.882534980773926,-0.6356212496757507,-0.4857395887374878,0.1692095398902893,0.9028581380844116,0.6340776681900024
1772903803099587600,6.689587646484375,-10.99479866027832,-0.8364693522453308,0.4032228887081146,0.1820377111434936,1.2705987691879272,0.7452550530433655
1772903803118573800,6.70857373046875,-11.83535099029541,-0.7407658100128174,0.8628628253936768,0.088575392961502,0.9132428169250488,0.8649845123291016
1772903803137559800,6.727559814453125,-12.945757865905762,-0.7015700340270996,0.3039004206657409,0.0519235059618949,0.2290742993354797,0.7721330523490906
1772903803156546000,6.746546142578125,-11.028141021728516,-1.3452470302581787,-0.283330351114273,0.2370155304670334,0.119729496538639,0.6994401812553406
1772903803175532300,6.7655322265625,-8.626490592956543,-1.8118820190429688,-0.2416048794984817,0.5033525824546814,0.3579667508602142,0.7861829996109009
1772903803194518500,6.7845185546875,-6.458597183227539,-1.436161756515503,-0.9623677730560304,0.8289434909820557,0.3830122053623199,1.043357014656067
1772903803213504500,6.80350439453125,-5.519708633422852,0.4382569789886474,-0.464040070772171,0.8588758707046509,-0.6957749724388123,1.1710277795791626
1772903803232490800,6.82249072265625,-4.199481964111328,3.2621166706085205,-0.7774310111999512,0.720820426940918,-2.399476766586304,0.3280344009399414
1772903803251477000,6.84147705078125,5.8410491943359375,4.429564952850342,2.701709747314453,0.3249800503253937,-3.3151631355285645,-0.850934624671936
1772903803270463200,6.860463134765625,19.143585205078125,2.1850242614746094,8.070232391357422,-0.1814268380403518,-2.0940444469451904,-2.04028844833374
1772903803289449200,6.87944921875,31.524620056152344,-1.352411866188049,9.277782440185549,-0.5222893953323364,0.5100721120834351,-2.6554291248321533
1772903803308435500,6.898435546875,40.35308837890625,-3.1004533767700195,5.243224620819092,-0.573602020740509,1.2651009559631348,-1.466075420379639
1772903803327421700,6.917421630859375,38.36998748779297,-2.387861490249634,-1.3457794189453125,0.2211330533027649,0.0452039949595928,0.5259546041488647
1772903803346408000,6.936407958984375,28.386371612548828,-1.3945995569229126,-1.4271998405456543,0.9993748068809508,-1.072678565979004,2.084270715713501
1772903803365394000,6.955393798828125,12.525559425354004,1.0759207010269165,1.812803149223328,1.0152572393417358,-1.3451242446899414,2.0940444469451904
1772903803384380200,6.974380126953125,0.4813241958618164,2.649655818939209,4.276026725769043,0.4178315103054046,-0.665842592716217,0.8686497211456299
1772903803403366400,6.993366455078125,-2.728281021118164,2.1204943656921387,2.792607069015503,-0.0726929083466529,0.0647516697645187,-0.2864955961704254
1772903803422352600,7.0123525390625,-2.153609275817871,0.7858688831329346,0.2646145820617676,-0.2089157551527023,-0.0122172953560948,-0.5797106623649597
1772903803441338600,7.031338623046875,-1.7546510696411133,-0.4213502407073974,0.3693010807037353,-0.3298669755458832,-0.1130099818110466,-0.2095266133546829
1772903803460324900,7.050324951171875,-5.2146711349487305,-1.3903716802597046,-0.0420280694961547,-0.5045742988586426,0.4294379353523254,0.1014035567641258
1772903803479311000,7.06931103515625,-10.83112621307373,-1.6265459060668943,-2.3862078189849854,-0.4312705397605896,1.053130865097046,-0.0232128612697124
1772903803498297000,7.088297119140625,-13.651226043701172,-1.3333845138549805,-3.365756034851074,-0.287106454372406,1.054352641105652,-0.194254994392395
1772903803517283300,7.107283447265625,-14.81711196899414,-0.8441174030303955,-3.1857876777648926,-0.2712239623069763,0.4392117857933044,-0.264504462480545
1772903803536269600,7.12626953125,-14.906723022460938,-0.8044800758361816,-3.597172498703003,-0.1789833754301071,-0.0439822636544704,-0.3988946974277496
1772903803555255600,7.145255615234375,-13.323983192443848,-0.8197367787361145,-3.6456820964813232,0.0623082071542739,-0.1130099818110466,-0.4996874034404754
1772903803574241800,7.16424169921875,-11.424211502075195,-0.8269644975662231,-2.483445167541504,0.1869246214628219,-0.1484401375055313,-0.4532616734504699
1772903803593228000,7.18322802734375,-10.633331298828123,-0.3972237110137939,-1.4787203073501587,0.1459966748952865,-0.3628536760807037,-0.4361574649810791
1772903803612214300,7.20221435546875,-9.94237995147705,0.0535917282104492,-1.1130788326263428,0.0653625279664993,-0.4483747482299804,-0.4917461574077606
1772903803631200300,7.2212001953125,-8.729911804199219,0.1072804927825927,-1.032360553741455,0.0103847011923789,-0.3225366175174713,-0.5320632457733154
1772903803650186500,7.2401865234375,-7.132291793823242,0.3023680448532104,-1.036715030670166,-0.0250454563647508,-0.1044578775763511,-0.4673115611076355
1772903803669172700,7.2591728515625,-6.496649742126465,0.4454389810562134,-1.313349366188049,-0.0280997790396213,0.0702494531869888,-0.3671297430992126
1772903803688158700,7.27815869140625,-5.717053413391113,0.5368834733963013,-1.6249130964279177,-0.0091629717499017,0.1282816082239151,-0.1710421442985534
1772903803707145000,7.29714501953125,-5.105443000793457,0.5211501121520996,-1.6268973350524902,-0.0171042140573263,0.0568104237318038,0.1539379209280014
1772903803726131200,7.316131103515625,-5.293707847595215,0.3735283613204956,-1.769173264503479,-0.0054977829568088,-0.0244345907121896,0.4080576598644256
1772903803745117400,7.335117431640625,-4.46956729888916,0.2187848091125488,-1.6208990812301636,0.088575392961502,0.0073303775861859,0.545502245426178
1772903803764103400,7.354103515625,-1.5531353950500488,0.2792037725448608,-0.0371533632278442,0.1551596522331237,0.2675587832927704,0.6591231226921082
1772903803783089700,7.373089599609375,2.3302364349365234,-0.5367244482040405,2.5816092491149902,-0.0048869182355701,0.9309579133987428,0.8313869833946228
1772903803802075600,7.39207568359375,3.119410514831543,-0.0176671743392944,2.153423309326172,-0.2223547846078872,0.6603448390960693,0.4520399272441864
1772903803821062100,7.411062255859375,2.9218406677246094,4.031826496124268,0.3234385251998901,-0.5754346251487732,-0.9450078010559082,-1.26021409034729
1772903803840048000,7.430048095703125,15.288812637329102,0.1604405641555786,1.627109408378601,-0.4996874034404754,-1.71836256980896,-3.543015718460083
1772903803859034400,7.449034423828125,41.81361389160156,-8.933869361877441,4.585104942321777,0.1136208474636077,0.5009090900421143,-2.833801746368408
1772903803878020400,7.468020263671875,47.449440002441406,-8.38297176361084,2.0830769538879395,1.0030399560928345,1.2351685762405396,0.2901607751846313
1772903803897006600,7.487006591796875,28.609275817871094,-1.4181947708129885,1.4434174299240112,1.5497639179229736,-1.3939933776855469,2.043953657150269
1772903803915992800,7.505992919921875,13.819570541381836,1.717738389968872,7.399512767791748,0.8210022449493408,-2.274860382080078,2.3377795219421387
1772903803934979000,7.52497900390625,0.7455062866210938,2.9901442527771,8.15062427520752,-0.3042106628417969,-0.2834412455558777,1.1136064529418943
1772903803953965000,7.543965087890625,-6.001477241516113,2.579890727996826,3.434453010559082,-1.0097594261169434,1.8985676765441892,-0.3023780584335327
1772903803972951300,7.562951416015625,-6.799249172210693,0.2581655979156494,-2.311379194259644,-1.0677915811538696,2.5607452392578125,-0.6304124593734741
1772903803991937500,7.5819375,-7.886726379394531,-1.111714243888855,-6.0979766845703125,-0.5503891706466675,1.626121997833252,-0.1484401375055313
1772903804010923500,7.600923583984375,-10.488484382629396,-1.3400208950042725,-6.37116003036499,0.0342084281146526,0.2266308367252349,0.3775144219398498
1772903804029909800,7.61990966796875,-13.557435989379885,-1.1971118450164795,-5.003564357757568,0.5009090900421143,-0.4996874034404754,0.4728093445301056
1772903804048896000,7.63889599609375,-15.683778762817385,-0.9229655265808104,-2.4703376293182373,0.6139190793037415,-0.430048793554306,0.1368337124586105
1772903804067882200,7.65788232421875,-16.283884048461914,-0.7641830444335938,-1.4000799655914309,0.5962040424346924,0.0219911318272352,-0.379347026348114
1772903804086868200,7.6768681640625,-15.82011604309082,-0.6997648477554321,-1.1495769023895264,0.5400044918060303,0.2138026654720306,-0.8374956250190735
1772903804105854500,7.6958544921875,-14.288558959960938,-0.8796662092208862,-0.7742589712142944,0.4605920314788818,-0.0079412423074245,-1.0409135818481443
1772903804124840400,7.71484033203125,-11.499261856079102,-0.9019068479537964,-1.134117841720581,0.5962040424346924,-0.3439168632030487,-0.8051197528839111
1772903804143826700,7.73382666015625,-11.180874824523926,-0.8767357468605042,-0.3227745294570923,0.7043271064758301,-0.7428115606307983,-0.4563159942626953
1772903804162813000,7.75281298828125,-12.319677352905272,-0.3371374309062958,0.4363467693328857,0.6450732350349426,-1.094058871269226,-0.3488037884235382
1772903804181799200,7.771799072265625,-13.070396423339844,-0.0613190233707428,1.1321982145309448,0.4367683231830597,-1.1563670635223389,-0.526565432548523
1772903804200785200,7.79078515625,-13.297211647033691,-0.189904510974884,0.1800199747085571,0.38850998878479,-0.9505056142807008,-0.9388991594314576
1772903804219771400,7.809771484375,-11.64906883239746,0.0742663741111755,-0.4257519245147705,0.4642572402954101,-0.8668171167373657,-1.1911863088607788
1772903804238757600,7.828757568359375,-8.27276611328125,0.3023555278778076,-0.1265544891357422,0.4532616734504699,-1.2986985445022583,-0.9566142559051514
1772903804257743600,7.84774365234375,-4.9175567626953125,0.3514817357063293,-1.0208892822265625,0.5925388336181641,-1.821598768234253,-0.2803869247436523
1772903804276729600,7.8667294921875,-3.6260080337524414,1.0511620044708252,-2.107211112976074,1.0152572393417358,-2.4966044425964355,0.3353647589683532
1772903804295716000,7.885716064453125,-1.843240737915039,0.8408440947532654,0.6859986782073975,1.2137882709503174,-3.004232883453369,0.4948004782199859
1772903804314702000,7.9047021484375,-1.8570194244384768,-1.3870409727096558,4.737921714782715,1.1148282289505005,-3.031111001968384,-0.565049946308136
1772903804333688300,7.923688232421875,5.521702766418457,-1.3831465244293213,8.692656517028809,0.739757239818573,-3.1502296924591064,-2.2736387252807617
1772903804352674600,7.942674560546875,20.488994598388672,-4.899943828582764,10.20827293395996,0.7843503952026367,-2.455065488815308,-3.136179685592652
1772903804371660500,7.96166064453125,35.67780303955078,-12.254838943481444,13.54361343383789,1.278540015220642,-1.3738348484039309,-2.1868958473205566
1772903804390646800,7.980646728515625,43.69157409667969,-10.809768676757812,15.546682357788086,1.6267329454421997,-2.2394301891326904,0.5754346251487732
1772903804409633000,7.999633056640625,32.519466400146484,-6.496394157409668,17.671405792236328,0.9969313144683838,-2.3377795219421387,2.2308781147003174
1772903804428619000,8.018618896484375,15.413246154785156,-3.4919393062591557,17.59803009033203,-0.0959057733416557,-0.1783725172281265,1.285259485244751
1772903804447605200,8.037605224609376,8.212075233459473,-1.891323685646057,12.914087295532228,-0.8399390578269958,1.7690644264221191,-0.2840521335601806
1772903804466591500,8.056591552734375,8.979957580566406,-1.2125672101974487,7.0049262046813965,-1.221118688583374,2.0964879989624023,-0.7922916412353516
1772903804485577500,8.075577392578126,9.334951400756836,0.5670371055603027,2.1262969970703125,-1.378721833229065,1.6401718854904177,-0.4153880476951599
1772903804504563700,8.094563720703125,7.533596992492676,2.4577131271362305,-2.3049652576446533,-1.2156208753585815,1.204625368118286,0.2950477004051208
1772903804523550000,8.113550048828126,4.12193775177002,1.94883394241333,-3.797008514404297,-0.9413426518440248,1.191797137260437,1.0916153192520142
1772903804542536200,8.1325361328125,-2.849569320678711,1.1435115337371826,-3.134884834289551,-0.9676098227500916,1.4404191970825195,1.5699224472045898
1772903804561522200,8.151522216796875,-10.785795211791992,1.831308126449585,-4.247735500335693,-1.1001675128936768,1.5033382177352903,1.4300343990325928
1772903804580508400,8.17050830078125,-15.132030487060549,2.8514206409454346,-6.187047004699707,-1.102000117301941,1.386052131652832,0.8436042666435242
1772903804599494400,8.189494384765625,-15.382298469543455,3.215383291244507,-6.458573341369629,-1.0867284536361694,0.8790343999862671,0.263893574476242
1772903804618480600,8.208480712890625,-13.15675926208496,2.3572874069213867,-6.136364936828613,-1.0341941118240356,0.7959567904472351,-0.0079412423074245
1772903804637467000,8.227466796875,-11.26419448852539,0.9814082384109496,-5.507959365844727,-0.916297197341919,1.0818414688110352,0.1191186308860778
1772903804656452900,8.246452880859374,-12.558603286743164,0.9950124025344848,-5.58542537689209,-0.7373138070106506,1.0586286783218384,0.1148425787687301
1772903804675439000,8.265439208984375,-13.658523559570312,1.2972445487976074,-5.6421003341674805,-0.500298261642456,0.6621774435043335,-0.150883600115776
1772903804694425300,8.28442529296875,-12.659797668457031,1.433972954750061,-4.905455589294434,-0.3561341762542724,0.1075121983885765,-0.3940077722072601
1772903804713411300,8.303411376953125,-10.398990631103516,0.934902846813202,-3.721715211868286,-0.3237583339214325,0.0384844802320003,-0.4227184355258941
1772903804732397600,8.3223974609375,-8.466903686523438,0.1858586370944976,-3.3773069381713867,-0.2364046722650528,0.5222893953323364,-0.2376264035701751
1772903804751383800,8.3413837890625,-7.834419727325439,0.3313179314136505,-3.8419244289398193,-0.0183259434998035,0.7507528066635132,0.0977383628487587
1772903804770370000,8.3603701171875,-8.070432662963867,0.6472463011741638,-3.462319612503052,0.173485592007637,0.5485565662384033,0.4862483739852905
1772903804789356000,8.37935595703125,-8.99669361114502,0.8938930630683899,-2.4207603931427,0.2095266133546829,-0.0531452372670173,0.823445737361908
1772903804808342300,8.39834228515625,-10.205930709838867,0.7537714838981628,-1.6088221073150637,0.1918115466833114,-0.3268126547336578,0.8753692507743835
1772903804827328300,8.417328369140625,-10.14887237548828,0.9116001129150392,-1.811997413635254,0.2620609998703003,-0.1692095398902893,0.6261364221572876
1772903804846314500,8.436314453125,-7.49582576751709,1.2004048824310305,-1.6598806381225586,0.4178315103054046,-0.0775798261165618,0.3640754222869873
1772903804865300700,8.45530078125,-2.345818519592285,-0.831066906452179,1.6628873348236084,0.3744601011276245,-0.4899135529994964,0.2700022459030151
1772903804884286700,8.47428662109375,0.265756607055664,-4.18822717666626,6.840184688568115,-0.1423314958810806,-1.403767228126526,-0.6597339510917664
1772903804903273000,8.49327294921875,10.02253532409668,-3.4789628982543945,7.859221935272217,-0.6707295179367065,-1.9339978694915767,-2.1899502277374268
1772903804922259200,8.51225927734375,26.168550491333008,-5.969668388366699,5.917647361755371,-0.3084867000579834,-0.3439168632030487,-2.7953171730041504
1772903804941245200,8.5312451171875,40.93120193481445,-12.01747989654541,6.868327617645264,0.4416552484035492,1.0702351331710815,-1.284037709236145
1772903804960231400,8.5502314453125,41.72584915161133,-8.823548316955566,6.992029190063477,0.9645555019378662,-0.1062904745340347,1.341459035873413
1772903804979217700,8.5692177734375,25.916683197021484,-7.086752891540527,7.68632698059082,1.01708984375,-0.4880809485912323,2.321286201477051
1772903804998203600,8.58820361328125,11.268800735473633,-3.2548158168792725,7.460655689239502,0.8478803038597107,0.4838049113750458,1.6682716608047483
1772903805017190000,8.60718994140625,2.671183586120605,-1.4269789457321167,7.38352108001709,0.3194822669029236,1.4013237953186035,0.5375609993934631
1772903805036176000,8.62617578125,0.9429283142089844,0.2609668970108032,4.08736515045166,-0.10934479534626,1.3768892288208008,0.0537560991942882
1772903805055162000,8.645162109375,0.1084661483764648,1.449798822402954,1.2821800708770752,-0.3512472510337829,0.9492838382720948,0.2199113219976425
1772903805074148400,8.6641484375,-2.58719539642334,1.87146520614624,-1.4718650579452517,-0.3579667508602142,0.7757982611656189,0.5320632457733154
1772903805093134300,8.68313427734375,-5.615214347839356,0.8398799300193787,-1.7534918785095217,-0.2614501118659973,1.0158681869506836,0.850934624671936
1772903805112120600,8.70212060546875,-9.305691719055176,-0.1417763233184814,-1.6729836463928225,-0.1423314958810806,1.3090832233428955,1.0439679622650146
1772903805131106800,8.72110693359375,-12.686025619506836,-0.0242006182670593,-1.6465171575546265,-0.0103847011923789,1.1740821599960327,1.0103703737258911
1772903805150092800,8.7400927734375,-14.818252563476562,-0.1900955438613891,-0.7538769245147705,-0.0256563201546669,0.7446441650390625,0.7263182401657104
1772903805169079000,8.7590791015625,-14.57607078552246,-0.7231126427650452,-0.6077771186828613,-0.078190691769123,0.758083164691925,0.4080576598644256
1772903805188065000,8.77806494140625,-13.670970916748049,-0.9149207472801208,-0.8984805941581726,-0.0830776095390319,0.8833104968070984,0.2247982323169708
1772903805207051300,8.79705126953125,-13.298957824707031,-0.8311654329299927,-1.5791401863098145,0.0305432397872209,0.6933315396308899,0.0940731763839721
1772903805226037500,8.81603759765625,-12.339073181152344,-0.786125123500824,-1.7208396196365356,0.1838703006505966,0.2852738499641418,0.0415388047695159
1772903805245023500,8.8350234375,-11.194695472717283,-0.7850998640060425,-1.0557761192321775,0.2205221801996231,-0.1606574356555938,0.0702494531869888
1772903805264009700,8.854009765625,-10.766684532165527,-0.8182147741317749,-0.6046652793884277,0.1930332630872726,-0.3084867000579834,0.0342084281146526
1772903805282996000,8.872995849609374,-10.580158233642578,-0.7590916156768799,-0.6085231304168701,0.1685986816883087,-0.2486219704151153,-0.098960094153881
1772903805301982000,8.89198193359375,-9.8036527633667,-0.5661875009536743,-0.3096539974212646,0.1246164143085479,-0.2553414702415466,-0.1765399277210235
1772903805320968200,8.91096826171875,-8.916345596313477,-0.2828129529953003,0.2354968786239624,-0.0177150778472423,-0.4153880476951599,-0.0959057733416557
1772903805339954400,8.929954345703125,-8.833906173706055,-0.0153214931488037,-0.0637652873992919,-0.1343902498483657,-0.4538725316524505,-0.0543669648468494
1772903805358940400,8.9489404296875,-8.591547966003418,0.2870023250579834,-0.8588362336158752,-0.1496618688106537,-0.3200931549072265,-0.1276707351207733
1772903805377926700,8.9679267578125,-6.7720208168029785,0.7511998414993286,-1.161812663078308,-0.0836884751915931,-0.3897317349910736,-0.1246164143085479
1772903805396912600,8.98691259765625,-4.875437736511231,0.0136885643005371,0.5645053386688232,-0.1075121983885765,-0.8973603844642639,-0.277332603931427
1772903805415899000,9.00589892578125,-1.677847385406494,-1.6123974323272705,3.0159802436828613,-0.1209512278437614,-1.6841541528701782,-1.119104266166687
1772903805434885000,9.024885009765624,9.406907081604004,-2.5122570991516118,7.443051338195801,-0.5809323787689209,-2.0854923725128174,-2.2589778900146484
1772903805453871000,9.04387109375,23.671262741088867,-4.383103847503662,8.069194793701172,-0.8894191384315491,-0.3133736252784729,-3.1453428268432617
1772903805472857300,9.062857421875,37.41332244873047,-8.77725887298584,6.240249633789063,-0.481361448764801,1.3671153783798218,-2.341444730758667
1772903805491843600,9.081843505859377,42.22599792480469,-5.535350799560547,3.554349899291992,0.3659079968929291,0.2626718580722809,0.1612683087587356
1772903805510829600,9.10082958984375,28.27164077758789,-2.7538013458251958,6.554216384887695,0.4636463820934295,-0.7458658814430237,1.7238603830337524
1772903805529815800,9.11981591796875,9.373138427734377,0.2279242724180221,6.726773262023926,0.0073303775861859,-0.119729496538639,0.9541707634925842
1772903805548801800,9.1388017578125,-1.305866241455078,2.017320394515991,4.338122367858887,-0.3964512348175049,0.8112284541130066,-0.9682206511497498
1772903805567788000,9.1577880859375,2.176018714904785,2.310371398925781,1.645606279373169,-0.7312051653862,0.5198459029197693,-1.84786593914032
1772903805586774300,9.176774169921876,7.712176322937012,1.0533132553100586,-1.350646734237671,-0.6450732350349426,0.2119700759649276,-1.3683371543884275
1772903805605760300,9.19576025390625,8.174111366271973,1.3051860332489014,-3.313479423522949,-0.3042106628417969,0.481361448764801,-0.2229656428098678
1772903805624746500,9.21474658203125,0.9451274871826172,1.847559094429016,-3.6411428451538086,-0.0500909127295017,1.0396918058395386,0.6218603253364563
1772903805643732700,9.233732666015625,-8.92899227142334,2.5241003036499023,-3.4794163703918457,0.1081230640411377,1.2846486568450928,0.7122683525085449
1772903805662718700,9.25271875,-15.595412254333496,3.3685035705566406,-2.658665657043457,0.0482583157718181,0.7556397318840027,0.3946186602115631
1772903805681705000,9.271705078125,-17.50708770751953,3.299454689025879,-2.626452207565308,-0.0097738364711403,0.1411097645759582,-0.1441640853881836
1772903805700691200,9.290691162109376,-14.90635108947754,2.633209466934204,-2.2750203609466557,-0.0879645273089408,-0.0507017783820629,-0.5681042671203613
1772903805719677200,9.30967724609375,-10.490726470947266,2.329925537109375,-2.6100664138793945,-0.0604756139218807,0.0329866968095302,-0.6340776681900024
1772903805738663400,9.328663330078124,-7.621359348297119,1.873868465423584,-2.541770696640014,0.0030543238390237,0.1496618688106537,-0.3964512348175049
1772903805757649400,9.3476494140625,-7.860353469848633,1.9380419254302976,-2.663041591644287,0.0806341543793678,0.1221729591488838,-0.1704312711954116
1772903805776635600,9.3666357421875,-8.951335906982422,2.2536237239837646,-2.6882450580596924,0.1618791669607162,0.0317649692296981,-0.119729496538639
1772903805795621600,9.38562158203125,-9.445837020874023,2.3154873847961426,-2.1281678676605225,0.1783725172281265,0.0018325943965464,-0.1740964651107788
1772903805814608000,9.40460791015625,-8.441503524780273,2.0945353507995605,-1.788299560546875,0.173485592007637,0.0476474538445472,-0.1337793916463852
1772903805833594000,9.423593994140624,-7.255851745605469,1.789388656616211,-1.665273904800415,0.2021962404251098,0.0922405794262886,0.0580321550369262
1772903805852580000,9.442580078125,-7.24034309387207,2.0197865962982178,-1.725145697593689,0.2657261788845062,0.026267185807228,0.2492328286170959
1772903805871566300,9.46156640625,-7.353977680206299,2.1676013469696045,-1.5048158168792725,0.306043267250061,0.015882484614849,0.398283839225769
1772903805890552300,9.48055224609375,-7.208992958068848,2.419788360595703,-1.1935138702392578,0.3042106628417969,-0.2724456787109375,0.5888736248016357
1772903805909538600,9.49953857421875,-6.745180130004883,2.404423713684082,-0.8863624334335327,0.3207040131092071,-0.42088583111763,0.6939423680305481
1772903805928524800,9.51852490234375,-5.400087356567383,2.080655097961426,0.3654521703720093,0.2229656428098678,-0.1521053314208984,0.6340776681900024
1772903805947510800,9.5375107421875,-3.2815933227539062,0.7614014744758606,1.9099868535995483,-0.0140498895198106,0.1441640853881836,0.389120876789093
1772903805966497000,9.5564970703125,-0.5186061859130859,-1.7180055379867554,1.9471968412399288,-0.0445931293070316,-0.1307250559329986,-0.2950477004051208
1772903805985483300,9.575483154296874,7.684706687927246,-1.9311540126800537,2.490565299987793,0.0684168562293052,-1.616348147392273,-1.0097594261169434
1772903806004469200,9.59446923828125,21.250946044921875,-2.751132011413574,4.738699913024902,0.0250454563647508,-1.9535455703735352,-1.4593559503555298
1772903806023455200,9.613455322265626,31.988859176635746,-8.407430648803711,8.28805923461914,-0.0794124230742454,0.2290742993354797,-1.5601485967636108
1772903806042441500,9.63244140625,39.6972770690918,-7.75776481628418,4.329100608825684,0.5216785073280334,0.8093958497047424,-0.306043267250061
1772903806061427700,9.651427734375,36.648807525634766,-6.316944599151611,5.58497428894043,0.991433560848236,-0.0030543238390237,1.5192207098007202
1772903806080413700,9.67041357421875,22.53999137878418,-5.55620002746582,8.514494895935059,0.7012727856636047,0.2229656428098678,2.1728460788726807
1772903806099400000,9.68939990234375,6.080625534057617,-3.5547375679016118,7.821069717407227,0.1123991161584854,1.224173069000244,1.219896912574768
1772903806118386200,9.70838623046875,-2.6750783920288086,-0.5945677757263184,2.3876919746398926,-0.0476474538445472,1.5796962976455688,-0.1374445706605911
1772903806137372200,9.7273720703125,0.0921993255615234,-0.4704595506191253,1.2060974836349487,-0.1380554437637329,0.8393282294273376,-0.1728747338056564
1772903806156358400,9.7463583984375,-1.2512540817260742,0.0428891777992248,0.1522635221481323,-0.3078758418560028,0.4294379353523254,0.2846629917621612
1772903806175344600,9.7653447265625,-6.068465709686279,0.5829217433929443,-1.3707529306411743,-0.3231474757194519,0.841160774230957,0.3512472510337829
1772903806194330600,9.78433056640625,-9.684148788452148,0.7929109334945679,-2.1808054447174072,-0.2425133138895034,1.099556565284729,0.2901607751846313
1772903806213316600,9.803316650390624,-11.494300842285156,1.220337152481079,-3.2929255962371826,0.0195476729422807,0.7122683525085449,0.3262017965316772
1772903806232302800,9.822302734375,-11.947526931762695,1.135765790939331,-2.140097618103028,0.1594357043504715,0.1545487940311432,0.4318813979625702
1772903806251289000,9.8412890625,-12.236677169799805,1.0561630725860596,-1.081654667854309,0.1007926911115646,-0.0769689604640007,0.4123337268829345
1772903806270275000,9.860275146484376,-11.68324089050293,0.8355183005332947,-1.4757370948791504,0.185092031955719,0.2186895906925201,0.2492328286170959
1772903806289261300,9.87926123046875,-10.595261573791504,0.9592198133468628,-1.2030186653137207,0.2443459182977676,0.315206229686737,0.2247982323169708
1772903806308247600,9.89824755859375,-10.45047092437744,1.285956859588623,-0.8207111358642578,0.2052505612373352,0.0507017783820629,0.3103193044662475
1772903806327233500,9.917233642578124,-10.82376194000244,1.4084842205047607,-0.5288066864013672,0.1350011229515075,-0.1325576603412628,0.2938259541988373
1772903806346219500,9.936219482421874,-10.437471389770508,1.145244836807251,-0.1032482981681823,0.0342084281146526,-0.0623082071542739,0.2376264035701751
1772903806365205800,9.955205810546875,-10.044167518615724,0.9335322380065918,-0.2035301923751831,-0.0488691814243793,0.1130099818110466,0.1820377111434936
1772903806384192000,9.97419189453125,-9.350797653198242,0.7532913088798523,-0.580376148223877,-0.0561995580792427,0.1209512278437614,0.2083048969507217
1772903806403178000,9.993177978515623,-9.054605484008787,0.4063770771026611,-0.6134760975837708,-0.0659733936190605,0.006719512399286,0.2614501118659973
1772903806422164200,10.012164306640624,-9.2977933883667,-0.2839260399341583,-0.5372486114501953,-0.0855210721492767,0.0171042140573263,0.2370155304670334
1772903806441150500,10.031150390625,-9.331133842468262,-0.9311864376068116,-0.5625280141830444,-0.0531452372670173,0.0720820426940918,0.1802051067352295
1772903806460136400,10.050136474609374,-9.144118309020996,-0.9087566137313844,-0.3243792057037353,-0.0641408041119575,-0.0445931293070316,0.1710421442985534
1772903806479122400,10.069122314453123,-9.343098640441896,-1.045077562332153,-0.1564182639122009,-0.0910188555717468,-0.211359217762947,0.0128281600773334
1772903806498108700,10.088108642578124,-9.419941902160645,-1.931258201599121,-0.1776449084281921,-0.0207694023847579,-0.4801397025585174,-0.5412262082099915
1772903806517095000,10.107094970703123,-6.13725471496582,-3.093492269515991,1.0901399850845337,-0.002443459117785,-1.0427461862564087,-1.342680811882019
1772903806536081000,10.126080810546876,0.921706199645996,-3.6005120277404785,2.596686363220215,-0.1899789422750473,-1.8600832223892207,-2.237597703933716
1772903806555067100,10.145067138671877,14.764077186584473,-3.9086155891418457,1.01178777217865,0.0543669648468494,-2.2821907997131348,-2.712850570678711
1772903806583546000,10.173546142578124,37.69669723510742,-7.092358589172363,5.845239162445068,0.3964512348175049,-1.6132938861846924,-1.1575887203216553
1772903806602532400,10.192532470703124,38.92920684814453,-5.60479211807251,7.233828067779541,0.1991419196128845,-0.9187406301498412,0.3677406013011932
1772903806621518600,10.2115185546875,28.97661018371582,-3.4600272178649902,7.582985877990723,0.0128281600773334,0.2596175372600555,0.7635809779167175
1772903806640504600,10.230504638671874,20.979225158691406,-1.4913852214813232,7.642214298248291,-0.3042106628417969,1.185077667236328,0.9334014058113098
1772903806659490800,10.24949072265625,12.164445877075195,-0.3651025891304016,6.497004508972168,-0.7336485981941223,1.4972295761108398,1.112384796142578
1772903806678476800,10.268476806640624,0.0488748550415039,-0.1245954632759094,2.7280075550079346,-0.9669989347457886,1.175914645195007,0.5772672295570374
1772903806697463000,10.287463134765623,-6.064175605773926,1.3686548471450806,-1.007147192955017,-0.8374956250190735,0.4636463820934295,-0.4202749729156494
1772903806716449300,10.30644921875,-4.151796340942383,2.012614727020264,-1.7280021905899048,-0.7696896195411682,-0.4978547990322113,-0.9926552772521972
1772903806735435300,10.325435302734377,-1.1862335205078125,1.8461843729019165,-1.1898611783981323,-0.7922916412353516,-0.5674933791160583,-1.095891356468201
1772903806754421500,10.34442138671875,0.0789813995361328,1.1849079132080078,-0.3160260915756225,-0.9676098227500916,0.3304778337478637,-0.7269290685653687
1772903806773407500,10.363407470703123,-2.474106788635254,0.6238296031951904,-0.7916635274887085,-1.0494656562805176,1.12765634059906,-0.1178968995809555
1772903806792393700,10.382393798828126,-8.479390144348145,1.7403815984725952,-2.671902894973755,-0.8814778923988342,1.3390156030654907,0.2144135385751724
1772903806811379700,10.401379638671877,-11.955066680908203,2.698136329650879,-4.564215660095215,-0.3714057803153991,0.9834923148155212,0.2883281707763672
1772903806830366000,10.420365966796876,-13.146851539611816,2.0029213428497314,-1.8891483545303345,-0.3750709891319275,0.1472184062004089,0.3683514595031738
1772903806849352200,10.439352294921877,-13.946889877319336,1.7573950290679932,-2.3990869522094727,-0.2987128794193268,-0.318871408700943,0.0177150778472423
1772903806868338200,10.458338134765626,-13.375370025634766,2.0193638801574707,-1.7512879371643066,-0.2596175372600555,-0.4770853817462921,-0.6236929297447205
1772903806887324200,10.47732421875,-10.88049602508545,1.8684836626052856,-1.700422763824463,-0.2718348205089569,-0.2706131041049957,-1.1600322723388672
1772903806906310400,10.496310302734376,-3.7948389053344727,1.9282445907592771,-2.283112049102783,-0.2296851575374603,0.1099556609988212,-0.7672461867332458
1772903806925296600,10.515296630859376,-1.81878662109375,0.5505168437957764,-1.2090375423431396,-0.3066541254520416,-0.2382372617721557,0.2919933497905731
1772903806944282600,10.53428271484375,-5.061869621276856,1.3606431484222412,-3.156186580657959,-0.1490510106086731,-0.6065887212753296,0.8686497211456299
1772903806963268900,10.553268798828125,-8.438214302062988,2.33475112915039,-3.776980876922608,0.0861319303512573,-0.9224058389663696,0.850934624671936
1772903806982254800,10.5722548828125,-9.04243278503418,2.476834774017334,-2.68466854095459,0.1258381456136703,-1.0977239608764648,0.6969966888427734
1772903807001241000,10.591240966796876,-7.992673873901367,1.8594104051589968,-1.6989960670471191,-0.0329866968095302,-1.237612009048462,0.5583304166793823
1772903807020227000,10.61022705078125,-5.713899612426758,2.3899788856506348,-1.5897724628448486,-0.152716189622879,-1.018311619758606,0.4984656572341919
1772903807039213300,10.62921337890625,-3.26999568939209,1.480284333229065,-2.245668172836304,-0.0842993408441543,-1.1050543785095217,0.554665207862854
1772903807058199300,10.64819921875,0.4158086776733398,2.5048916339874268,-1.4757479429244995,-0.0922405794262886,-0.4954113364219665,0.8161153197288513
1772903807077185500,10.667185546875,1.9648923873901367,1.9459904432296755,-1.136117935180664,-0.0207694023847579,-0.4978547990322113,0.7690787315368652
1772903807096171500,10.686171630859375,7.887702941894531,1.8611199855804443,1.5310590267181396,-0.2565632164478302,-0.9755510687828064,1.1508692502975464
1772903807115157800,10.70515771484375,10.556822776794434,0.988982081413269,3.678380489349365,-0.5974257588386536,-0.8240565657615662,1.3408482074737549
1772903807134143700,10.724143798828123,12.015376091003418,-2.043218851089477,5.586522102355957,-0.739757239818573,-0.8032872080802917,0.5082395076751709
1772903807153130000,10.7431298828125,13.035154342651367,-3.987225770950317,4.313384056091309,-0.4795288443565368,0.4752528071403503,-0.5283980369567871
1772903807172116000,10.762115966796877,19.700647354125977,-1.26887309551239,0.7846274375915527,0.5595521330833435,-0.1704312711954116,-0.740368127822876
1772903807191102200,10.781102294921874,25.303199768066406,0.0009855031967163,5.310741424560547,1.1074978113174438,-1.380554437637329,0.3854556679725647
1772903807210088400,10.80008837890625,21.72382354736328,-1.1843340396881104,11.825661659240724,0.5387827157974243,-0.8723149299621582,1.553429126739502
1772903807229074400,10.819074462890624,11.587725639343262,-0.7720108032226562,11.480997085571287,-0.2394589930772781,0.5070177912712097,1.658497929573059
1772903807248060400,10.838060302734377,0.6080427169799805,-0.9493523240089417,7.054032325744629,-0.8148936033248901,1.1820234060287476,0.4276053309440613
1772903807267046700,10.857046630859376,-2.985968589782715,-0.4093221426010132,1.2428452968597412,-1.003650784492493,1.212566614151001,-0.7428115606307983
1772903807286033000,10.876032958984377,-1.959284782409668,0.4928359389305115,-2.007852077484131,-0.7232639193534851,0.8045089244842529,-1.2357794046401978
1772903807305019000,10.895018798828126,-0.5987415313720703,0.2814033627510071,-0.8471002578735352,-0.6035344004631042,0.067805990576744,-1.3781108856201172
1772903807324004900,10.9140048828125,1.1169328689575195,-0.4028224050998688,-0.3206245899200439,-0.6609556674957275,0.0201585385948419,-1.164919137954712
1772903807342991000,10.9329912109375,1.3308115005493164,-1.0042455196380615,-1.4639042615890503,-0.4569268524646759,0.6982184648513794,-0.5253437161445618
1772903807361977300,10.951977294921877,-1.509892463684082,-1.0388846397399902,-2.4878246784210205,-0.152716189622879,1.420260667800903,0.1576031148433685
1772903807380963300,10.97096337890625,-5.284336090087891,-0.4197093546390533,-2.154365301132202,-0.1258381456136703,1.2400555610656738,0.5632173418998718
1772903807399949600,10.989949462890625,-8.488663673400879,0.0601392984390258,-2.213929891586304,-0.3176496922969818,0.5491674542427063,0.6420188546180725
1772903807418935600,11.008935546875,-9.692476272583008,0.2883753180503845,-2.53621244430542,-0.4954113364219665,-0.407446801662445,0.5888736248016357
1772903807437921500,11.027921630859376,-9.947696685791016,0.1839446425437927,-2.79841685295105,-0.6530144214630127,-0.730594277381897,0.4263836145401001
1772903807456907800,11.04690771484375,-9.36594581604004,0.3915176391601562,-3.3044159412384038,-0.5949822664260864,-0.6994401812553406,0.1905898153781891
1772903807475894000,11.06589404296875,-7.856450080871582,0.360314130783081,-3.7862045764923096,-0.3225366175174713,-0.0977383628487587,-0.0769689604640007
1772903807494880000,11.0848798828125,-6.602385520935059,-0.6582000255584717,-3.7106597423553462,-0.0128281600773334,0.2046397030353546,-0.211359217762947
1772903807513866200,11.1038662109375,-5.881353855133057,-0.8591964840888977,-3.346312522888184,0.2034179717302322,0.1007926911115646,-0.1521053314208984
1772903807532852200,11.122852294921875,-4.776249885559082,-0.6042464971542358,-2.22137713432312,0.2877173125743866,-0.5534434914588928,-0.0928514450788497
1772903807551838200,11.141838134765624,-3.559506416320801,-0.1075115203857421,-0.6435270309448242,0.1960875988006591,-0.4636463820934295,0.0830776095390319
1772903807570824400,11.160824462890623,-2.327725410461426,-0.1122540235519409,0.5889520645141602,-0.0580321550369262,0.3811796307563782,0.4911352694034576
1772903807589810700,11.179810791015624,-1.916080474853516,-0.8541610240936279,0.5030629634857178,-0.205861434340477,0.860708475112915,0.8594867587089539
1772903807608796700,11.198796630859375,-1.6743359565734863,-1.1281578540802002,-0.3516902923583984,-0.0659733936190605,0.9578359723091124,1.1441497802734375
1772903807627783000,11.217782958984374,-1.0170984268188477,-0.3131457567214966,-0.0583544969558715,0.0195476729422807,0.8796452879905701,1.453247308731079
1772903807646769000,11.236768798828123,-1.1021366119384766,-0.3160159587860107,1.954904079437256,-0.130114197731018,1.4117084741592407,1.589470148086548
1772903807665755000,11.2557548828125,-2.2152113914489746,-0.2985038757324219,1.6426464319229126,-0.263893574476242,2.028071165084839,1.0384701490402222
1772903807684741000,11.2747412109375,-1.35748291015625,0.6371588706970215,1.5402079820632937,-0.4825831651687622,1.9193371534347532,0.3524689674377441
