time,seconds_elapsed,acc_z,acc_y,acc_x,gyro_z,gyro_y,gyro_x
1772650604453705000,0.074705078125,1.213245909193158,0.2407183891326189,0.5224962261453271,-0.3320569694042206,-0.4444366097450256,0.3079107403755188
1772650604463677000,0.084677001953125,1.6886276252031325,0.2031517518043518,0.4740525132328271,-0.3085183799266815,-0.3996262550354004,0.1594213992357254
1772650604473649200,0.094649169921875,2.082245250239968,0.1634627154946327,0.3402199429787695,-0.3106975257396698,-0.4168467223644256,-0.0070719700306653
1772650604483622000,0.104621826171875,2.1789731015890834,0.0170551796972751,0.260460177565366,-0.3426064550876617,-0.4919851720333099,-0.1491963565349578
1772650604493593900,0.11459375,2.010520907244086,-0.1067991635084152,0.2134402138456702,-0.4133992493152618,-0.6108019948005676,-0.2637293338775635
1772650604503567000,0.124567138671875,1.666297135451436,-0.1397515850394964,0.1916431003183126,-0.5060229301452637,-0.7625491619110107,-0.3380464315414428
1772650604513538800,0.134538818359375,1.1697919673919677,-0.1456856512635946,0.0606119973510503,-0.5805719494819641,-0.971140205860138,-0.4061450660228729
1772650604523511800,0.14451171875,0.7568804438203572,-0.1369365276187658,0.0739449416548013,-0.6545764207839966,-1.0499347448349,-0.4429462254047394
1772650604533484000,0.154484130859375,0.5192582671374082,0.1109375784873962,0.0907609057687223,-0.7165688872337341,-0.9608030915260316,-0.4713576138019562
1772650604543455700,0.164455810546875,0.4363958595335483,0.2972866640508175,-0.0357733241707086,-0.7753515243530273,-0.8028488755226135,-0.5364338159561157
1772650604553429000,0.174428955078125,0.4506991101741791,0.4267091627776622,-0.1201554886877536,-0.8040151596069336,-0.6579758524894714,-0.6357539892196655
1772650604563401000,0.18440087890625,0.3264075445950031,0.5306827474713325,-0.0076620590604841,-0.7867181897163391,-0.5517362356185913,-0.7186979055404663
1772650604573374000,0.1943740234375,0.1251496437132358,0.6278776318103074,0.2408537059500813,-0.7281436920166016,-0.4931068122386932,-0.751307487487793
1772650604583346000,0.204345947265625,-0.1225169571220874,0.7378864050149917,0.4377053346969187,-0.6449532508850098,-0.4475680887699127,-0.7261345386505127
1772650604593319000,0.21431884765625,-0.1879839932888746,0.8805611840248108,0.4418517868518829,-0.5880443453788757,-0.3985993266105652,-0.6670352220535278
1772650604603291100,0.224291015625,-0.1595423271805048,0.8760591964304447,0.3133339818798005,-0.5516732335090637,-0.3744950592517853,-0.5746405720710754
1772650604613264000,0.234263916015625,-0.2424672786265611,0.7607792048245668,0.2507927700318396,-0.5334293246269226,-0.3816418647766113,-0.4528939127922058
1772650604623235800,0.24423583984375,-0.2463637015432119,0.562791703915596,0.3436811893485486,-0.5277037620544434,-0.4215802252292633,-0.3466945290565491
1772650604633208000,0.2542080078125,-0.1154366434723138,0.466003354550898,0.5430692047052085,-0.5369372963905334,-0.4642225205898285,-0.2597223222255707
1772650604643180800,0.264180908203125,0.0093330610126256,0.3736702310293913,0.7019830247238278,-0.5502669811248779,-0.467621237039566,-0.1841623336076736
1772650604653153000,0.274153076171875,0.1124842234075069,0.2577329445585608,0.7473295022733509,-0.5635789632797241,-0.4132232367992401,-0.1186440363526344
1772650604663126000,0.2841259765625,0.2332604743421077,0.1358373342052102,0.8074144070103764,-0.5569818019866943,-0.3184530436992645,-0.0576294213533401
1772650604673097700,0.29409765625,0.4903875619620084,0.0243733937561511,0.8790824897743761,-0.5317498445510864,-0.2252695262432098,-0.0087953023612499
1772650604683071000,0.304071044921875,0.840450122910738,-0.0448705306008458,1.004559319615364,-0.4833408296108246,-0.1574683636426925,0.0488818399608135
1772650604693043000,0.31404296875,0.8167594507217407,-0.0153854929193854,1.118912990156561,-0.4197731614112854,-0.1036418750882148,0.142633631825447
1772650604703015000,0.324014892578125,0.6292161869376898,0.0583802927762269,1.2120064305260776,-0.3008758127689361,-0.0469943061470985,0.1945346444845199
1772650604712988000,0.33398779296875,0.6648726067304611,0.2003296801209449,1.3778819062508645,-0.1188621371984481,0.0222144722938537,0.1883348077535629
1772650604722960000,0.3439599609375,0.6310878260284661,0.0921630276516079,1.428773742967844,0.0404875800013542,0.1457473337650299,0.167480930685997
1772650604732933000,0.35393310546875,0.6029559565216303,-0.1235761107861995,1.2273185659483077,0.111364796757698,0.3071168959140777,0.1223557889461517
1772650604742904800,0.36390478515625,0.6003747078567743,-0.2943485647723078,0.888088803050667,0.0881566777825355,0.4477949142456054,0.0687002837657928
1772650604752877800,0.3738779296875,0.6531804153710603,-0.4556164005711674,0.6489513994991779,-0.004821381997317,0.4785186052322387,0.0289006568491458
1772650604762850000,0.38385009765625,0.909826441475749,-0.5580521081730723,0.7432919173203408,-0.1035466268658638,0.3596720993518829,-0.0321070402860641
1772650604772822000,0.393822021484375,1.3353782509118317,-0.4535156288996338,1.0000000488758087,-0.1678525805473327,0.1008959710597992,-0.1269943863153457
1772650604782795000,0.403794921875,1.5569921266019344,-0.2921744356036186,1.1202895392067729,-0.2165540754795074,-0.2085795849561691,-0.2009969651699066
1772650604792767000,0.41376708984375,1.650426197102666,-0.1977306035384535,1.2255552095375954,-0.2884936034679413,-0.5209975838661194,-0.2567145526409149
1772650604802740000,0.423739990234375,1.6790853053539991,-0.3260767052054405,1.097646622505039,-0.3842044174671173,-0.7838321328163147,-0.3238829374313354
1772650604812712000,0.4337119140625,1.5633780282467602,-0.2774097049310803,0.9197330645926296,-0.387813001871109,-0.9502094388008118,-0.4636147320270538
1772650604822685000,0.443684814453125,1.3778168781906366,0.3790186063200235,0.9043972560338676,-0.3634493350982666,-1.1341098546981812,-0.6425261497497559
1772650604832657000,0.453656982421875,0.9766109899818896,0.6289306479945779,0.5070196939416229,-0.4210430085659027,-1.31012225151062,-0.7643628716468811
1772650604842630000,0.4636298828125,0.1323293260842561,-0.0131219319015741,0.1511652517184615,-0.5449031591415405,-1.3820714950561523,-0.8051326870918274
1772650604852602000,0.47360205078125,-0.3335176688611507,-0.2051011323064565,-0.4709725212655961,-0.7582234144210815,-1.4190683364868164,-0.8074621558189392
1772650604862573800,0.48357373046875,-0.1797474953413009,0.1072305406630039,-1.131888645455241,-0.9354650378227234,-1.3895277976989746,-0.7571254372596741
1772650604872546800,0.493546875,-0.2122755539804696,0.342144627431035,-1.063916567664966,-0.910808563232422,-1.2761346101760864,-0.6115416288375854
1772650604882518500,0.5035185546875,-0.1912801122248172,1.1368874766558408,-0.4543487187229096,-0.7217877507209778,-1.0399620532989502,-0.3896385133266449
1772650604892491300,0.5134912109375,-0.2114496245503425,1.4245704460591078,-0.1248236266292631,-0.4714314341545105,-0.7395980954170227,-0.0927133709192276
1772650604902463500,0.52346337890625,-0.8106044352233409,1.037851640625298,0.3383873937893659,-0.2392013669013977,-0.5751857161521912,0.2395910769701004
1772650604912436500,0.5334365234375,-1.2008154666870832,0.3401242275193333,0.8931986203450709,-0.1229113712906837,-0.6397320032119751,0.5306622982025146
1772650604922408400,0.543408447265625,-1.2474731729656456,-0.4263032123252749,1.539885947369784,-0.1701012551784515,-0.8591479659080505,0.7201699614524841
1772650604932380400,0.55338037109375,-1.1489952630788087,-1.1126131593599915,2.187583109024167,-0.3525172472000122,-1.029644012451172,0.8073775172233582
1772650604942353400,0.563353515625,-0.8127227425515651,-1.3565209921836852,2.2985519594326616,-0.5483317375183105,-1.0804733037948608,0.8498621582984924
1772650604952325400,0.573325439453125,-0.4741010285496711,-1.3283885381549596,2.338581772004068,-0.6507017612457275,-1.0750125646591189,0.9049853086471558
1772650604962298400,0.58329833984375,-0.3336684755086899,-1.221082886429131,2.538174077761173,-0.5763975381851196,-1.079918622970581,1.0135403871536257
1772650604972270600,0.5932705078125,-0.4516980580836534,-1.252131520165503,2.8742972529456017,-0.3676411509513855,-1.1223639249801636,1.1825846433639526
1772650604982243600,0.60324365234375,-0.4880623338848352,-1.097324697074294,2.6107199662730096,-0.1853501796722412,-1.2997307777404783,1.329825758934021
1772650604992215300,0.61321533203125,-0.2719470556110143,-0.2407037760853767,1.5206392489776015,-0.1129868775606155,-1.390537977218628,1.4489189386367798
1772650605002187500,0.6231875,-0.2699099968254566,0.1677782406061887,0.8064329216923565,-0.113801009953022,-1.0984073877334597,1.498157620429993
1772650605012160500,0.633160400390625,-0.3409855205237865,-0.2468897712439298,0.217242035547737,-0.1473740488290786,-0.5932201147079468,1.0342228412628174
1772650605022132500,0.643132568359375,0.697393066585064,-0.9198720346719026,-0.1142519180666189,-0.0583624243736267,-0.5830678343772888,0.627457320690155
1772650605032105500,0.65310546875,0.9526736495554446,-1.1903840890437365,0.5206529363662005,-0.0032152365893125,-0.3455965220928192,0.2601365745067596
1772650605042077400,0.663077392578125,1.0144915155649186,-1.0489806451439856,0.4414790810819715,0.044833518564701,-0.2290834784507751,-0.0965206250548362
1772650605052050400,0.673050537109375,0.8537737148642539,-0.749387457716465,0.3003390008261427,0.1563233882188797,-0.1674397587776184,-0.3746617138385772
1772650605062022400,0.6830224609375,0.2802531116634607,-0.5337111553817987,0.311398191511631,0.2860850989818573,-0.0357600338757038,-0.5257811546325684
1772650605071995400,0.692995361328125,-0.243148246628046,-0.3550537933647632,-0.0021701425467384,0.3583891689777374,0.0484990812838077,-0.5849526524543762
1772650605081967400,0.70296728515625,-0.5280570751428604,-0.2178893022090196,-0.4643414492206648,0.3794036209583282,0.0856810733675956,-0.5899790525436401
1772650605091939300,0.712939208984375,-0.5360737928599119,0.2448293315827846,-0.2292893787540495,0.4531052112579345,0.0330819487571716,-0.5980393886566162
1772650605101912600,0.72291259765625,-0.4683487486332655,0.4807084639906883,0.2301264688990078,0.5261781215667725,0.0202934518456459,-0.5698389410972595
1772650605111884300,0.73288427734375,-0.687567838141322,-0.234845113185048,0.0287659615927143,0.5953208208084106,-0.0152958314865827,-0.5292882919311523
1772650605121857300,0.742857177734375,-0.2709539529204368,-0.2050239754170179,-0.1146017635507509,0.6429317593574524,-0.1113520562648773,-0.5505959987640381
1772650605131829500,0.75282958984375,0.3205786923110484,0.1117693531364202,-0.1863327006842009,0.6776310801506042,-0.217661052942276,-0.6064874529838562
1772650605141802500,0.762802490234375,0.4392711227089166,0.1321814420461654,-0.3611143355127423,0.729071319103241,-0.28614342212677,-0.6259602308273315
1772650605151774500,0.7727744140625,0.3669061437219381,0.1016559554010629,-0.5410869448468089,0.7418151497840881,-0.2410423457622528,-0.6159395575523376
1772650605161746400,0.782746337890625,0.3486643845885991,0.1216533260300755,-0.9316605990778656,0.6640915870666504,-0.1352962106466293,-0.6201356649398804
1772650605171719400,0.792719482421875,0.566825489476323,0.0103191494405269,-1.4083394422262907,0.5437383651733398,-0.045196458697319,-0.678753674030304
1772650605181691400,0.80269140625,0.8924614651769399,-0.1893155341535806,-1.7149144513651728,0.4300158321857452,-0.0016713538207113,-0.7983970046043396
1772650605191664400,0.812664306640625,1.0921206986904144,-0.2658569220423698,-1.6159754998378455,0.3938275277614593,-0.0357514359056949,-0.9622325301170348
1772650605201636600,0.82263671875,1.0140659836292267,-0.070765727096796,-1.1243461211211978,0.4723303318023681,-0.0652811005711555,-1.105724811553955
1772650605211609300,0.832609375,0.6517489212632179,0.3094973263263702,-0.6206808521740138,0.6100340485572815,-0.0612836293876171,-1.1495155096054075
1772650605221581600,0.84258154296875,0.0886310541331768,0.660657911644876,-0.5894096982607617,0.711837887763977,-0.0550952404737472,-1.0712902545928955
1772650605231553500,0.852553466796875,-0.4772936871111393,0.7629621018216013,-0.9897391324285416,0.7164130210876465,-0.0748424604535102,-0.9003809094429016
1772650605241526300,0.8625263671875,-0.9691659346729516,0.6796113261789083,-1.4362768120743334,0.6488526463508606,-0.0983837395906448,-0.6928567290306091
1772650605251498500,0.87249853515625,-1.3499924671977757,0.5785282022297382,-1.7797464044988154,0.551563560962677,-0.0793741270899772,-0.4979189336299896
1772650605261471500,0.882471435546875,-1.5261106661260126,0.5294195956677198,-1.9603687829785048,0.454645574092865,-0.0652860105037689,-0.3873636424541473
1772650605271443500,0.892443359375,-1.3440420343607664,0.5494523298710584,-1.8706636698730288,0.4012416899204254,-0.0514855980873107,-0.3867071866989136
1772650605281416400,0.90241650390625,-1.017312418204546,0.6051075815975666,-1.6197455198958517,0.4103331863880157,-0.0412302985787391,-0.4744106531143188
1772650605291388400,0.912388427734375,-0.920783304297924,0.7721282818347215,-1.2804074743181466,0.4398592710494995,-0.0400386601686477,-0.5622918009757996
1772650605301361700,0.922361572265625,-1.0622621515214443,0.8441685589119792,-0.999212405629456,0.4584782421588897,-0.0595865324139595,-0.6051266193389893
1772650605311333400,0.93233349609375,-1.276318743699789,0.7685100913375615,-0.8706254809439182,0.4473862946033478,-0.1030088886618614,-0.5906763076782227
1772650605321305600,0.9423056640625,-1.5296937853097914,0.7060884142160415,-0.981654464041814,0.3906428515911102,-0.0856115221977233,-0.5243347883224487
1772650605331278600,0.952278564453125,-1.5020079060047864,0.6166580263987184,-1.2098358084887266,0.3196980357170105,-0.0796434134244918,-0.4481897354125976
1772650605341250300,0.962250244140625,-0.9549158755242824,0.5926356380373239,-1.1884170998197048,0.2790283560752868,-0.0752651765942573,-0.3866584599018097
1772650605351223600,0.9722236328125,-0.4544149158269167,0.4795119476824999,-0.7312213941678405,0.264177143573761,-0.0705325081944465,-0.3478066623210907
1772650605361195500,0.982195556640625,0.1034095210701227,0.4187698942109942,-0.3028220863461494,0.2713269293308258,-0.0870209336280822,-0.319991260766983
1772650605371168300,0.992168212890625,0.8021195154726505,0.2791404742464423,-0.1399869281653314,0.2758348286151886,-0.1152936667203903,-0.3079124987125397
1772650605381140500,1.002140380859375,1.3589596175074576,0.062652855528891,0.0200081112187355,0.2801076173782348,-0.1309458762407302,-0.2914419174194336
1772650605391112400,1.012112548828125,1.7758254316627975,-0.1108431782022118,0.2388415624100714,0.2985164225101471,-0.1398229151964187,-0.2710511684417724
1772650605401085400,1.02208544921875,2.2309861974209544,-0.2955862898737192,0.5865696890618651,0.3359157145023346,-0.1044148504734039,-0.2483410537242889
1772650605411057400,1.032057373046875,2.6447756728708742,-0.4974982707500457,0.9373208898618816,0.3408939838409424,-0.1058299690485,-0.2522790729999542
1772650605421030400,1.042030517578125,3.1687767506211992,-0.6448696831434965,0.8653901375737041,0.2974573075771332,-0.1339649260044098,-0.2534902691841125
1772650605431002400,1.05200244140625,3.5800241403728723,-1.0892013041123747,0.8922172811575233,0.2246829569339752,-0.181364044547081,-0.2492481172084808
1772650605440975400,1.061975341796875,3.845113000652194,-1.5144453627735377,1.0904744658533485,0.163911759853363,-0.285949558019638,-0.2608224749565124
1772650605450947600,1.071947509765625,4.019612073945999,-1.735317187924683,1.420297737175971,0.1442737281322479,-0.3909918069839477,-0.2974849045276642
1772650605460919300,1.081919189453125,3.894799699363112,-1.945171359977126,1.765114652556181,0.1531833410263061,-0.4376386702060699,-0.3299882411956787
1772650605470892500,1.091892578125,3.465990349435806,-2.288562188076973,1.8102992175422608,0.1376720964908599,-0.4396758079528808,-0.3617014288902282
1772650605480864500,1.101864501953125,2.747722837126255,-2.7274785059988496,1.457375568073988,0.1012453809380531,-0.2744077444076538,-0.3960908353328705
1772650605490837200,1.111837158203125,1.932280898743868,-3.036023353905976,1.1070680193882434,0.0747103318572044,0.1246459707617759,-0.426241010427475
1772650605500809500,1.1218095703125,1.3985329184830189,-2.9664494669422505,0.7762944616034626,-0.0036238827742636,0.6206525564193726,-0.3465176820755005
1772650605510782500,1.131782470703125,0.7376373986899852,-2.819909536936879,0.3805853441800922,-0.1493540406227111,1.05021071434021,-0.0578885525465011
1772650605520754400,1.14175439453125,-0.036371290063858,-3.0397981962695715,0.0954671106982976,-0.3243836462497711,1.2032759189605713,0.4041784107685089
1772650605530726400,1.151726318359375,-0.940164296594262,-3.278245717860758,0.135475807416439,-0.4031696021556854,1.1407570838928225,0.9739718437194824
1772650605540699400,1.161699462890625,-1.7150024219095703,-3.1257953947678208,0.8209311103831977,-0.3612983226776123,0.980725347995758,1.5508556365966797
1772650605550671400,1.17167138671875,-1.9737240852445364,-2.540451375043392,1.185887069885433,-0.2574939429759979,0.7674277424812317,2.0438148975372314
1772650605560644400,1.181644287109375,-2.194033892598748,-2.4627488344207404,1.3246376611888409,-0.1676556915044784,0.555126428604126,2.4245777130126958
1772650605570616600,1.191616455078125,-2.5578900011003016,-3.0818934169381853,1.4767023459650577,-0.0667324140667915,0.3378933370113373,2.575685739517212
1772650605580589600,1.201589599609375,-3.107414811685681,-3.859284149345756,1.552293155130744,0.0429940782487392,0.1881773322820663,2.512967824935913
1772650605590561300,1.211561279296875,-4.544792132347822,-4.89326333245188,1.2894330768167972,0.1318570673465728,0.122382678091526,2.2918074131011963
1772650605600534500,1.221534423828125,-6.919336321353912,-6.058349606370926,0.6591055676363409,0.15062116086483,0.2020317018032074,1.9949263334274288
1772650605610506500,1.231506591796875,-10.079324785363674,-7.153183655673265,-0.4950937303589656,0.0680200681090354,0.4589422643184662,1.7120217084884644
1772650605620478500,1.241478515625,-13.38911919543743,-7.675174562644958,-2.13862121745646,-0.0862730965018272,0.7038965821266174,1.478221774101257
1772650605630451500,1.251451416015625,-16.097582035320997,-7.530224824440479,-3.8490143920049062,-0.3004512190818786,0.6804815530776978,1.359999418258667
1772650605640423400,1.26142333984375,-18.474449114316705,-7.043563589525222,-5.210224126526713,-0.5086421966552734,0.3400222361087799,1.4326251745224
1772650605650396400,1.271396484375,-20.365448739123345,-6.215475520059466,-5.552977825766802,-0.5820378065109253,-0.2191148847341537,1.7010657787322998
1772650605660368400,1.281368408203125,-21.419327677702903,-5.111801161697507,-4.976578452259302,-0.5510274171829224,-0.651578426361084,2.0808210372924805
1772650605670341400,1.29134130859375,-21.605752751111982,-4.307126116523146,-4.8178038945809005,-0.526075541973114,-0.7618802189826965,2.415512084960937
1772650605680313300,1.301313232421875,-20.621534793257712,-3.7863679662168015,-5.744892144241929,-0.6777649521827698,-0.4380430281162262,2.5992636680603027
1772650605690285600,1.31128564453125,-18.654567196536064,-3.4100989508658643,-7.091769694289565,-1.0190695524215698,0.0958962813019752,2.638237953186035
1772650605700258600,1.321258544921875,-15.395409917765855,-2.9852170035153627,-7.072373504424095,-1.3591642379760742,0.4600403904914856,2.4068517684936523
1772650605710230300,1.331230224609375,-10.746516774952411,-2.8377731104075905,-5.25771243841052,-1.592822790145874,0.4961046278476715,1.9109033346176147
1772650605720203500,1.34120361328125,-6.531829872673749,-2.808464013814926,-2.641218272650242,-1.6155831813812256,0.3912884593009949,1.313370943069458
1772650605730175500,1.351175537109375,-3.721572545701265,-2.8689754734009503,0.460603760529682,-1.5362768173217771,0.1313014179468155,0.7262755036354065
1772650605740148500,1.3611484375,-2.3817238713771105,-2.0208464864254,1.6644040151812136,-1.2674764394760132,-0.0593063458800315,0.3843533098697662
1772650605750120400,1.371120361328125,-2.458551674991846,-0.3413549383580684,3.274797915494442,-0.8529723286628723,-0.0726519599556922,0.1921290010213852
1772650605760092400,1.381092529296875,-2.0216133791446684,0.6716290952533484,4.397175220760703,-0.3165302276611328,0.0280341692268848,0.1316179782152176
1772650605770065700,1.391065673828125,-1.4714625456154349,1.9893623838812111,4.191234130498767,0.0964144989848136,0.2047466486692428,0.1962606459856033
1772650605780037400,1.401037353515625,-0.6601379794239998,2.9573353093773127,2.4620491617187854,0.3097736537456512,0.4062962830066681,0.3629854321479797
1772650605790010400,1.41101025390625,0.2037970639705658,3.643210956647992,0.6235580881107599,0.4104444980621338,0.6817768216133118,0.6272461414337158
1772650605799982600,1.420982666015625,1.273515961238742,4.874610362169146,-0.6457097872294485,0.4096692502498626,0.9978772401809692,0.93830144405365
1772650605809955300,1.430955322265625,2.331615732383728,5.903443706819415,-2.0410990008592607,0.326377272605896,1.3302063941955566,1.3207486867904663
1772650605819927600,1.440927490234375,3.313397987523675,7.0492948266536,-3.0647695559188723,0.1541328132152557,1.5370376110076904,1.7778874635696411
1772650605829899500,1.4508994140625,4.580713925078511,7.988140441864728,-3.906503581160307,-0.0919458195567131,1.580817699432373,2.268937349319458
1772650605839872300,1.460872314453125,6.175100839573145,8.369070434764026,-3.626266251587868,-0.2872455418109894,1.3697257041931152,2.6943511962890625
1772650605849844500,1.470844482421875,8.157021675276756,8.945651010057329,-2.8385972862720488,-0.4713442921638489,1.2105976343154907,3.007661819458008
1772650605859817500,1.4808173828125,9.196711929506064,9.0109771764487,-1.8069570675075053,-0.5701830387115479,0.7625969648361206,3.19638991355896
1772650605869789400,1.49078955078125,10.831182432585956,9.664003278040886,-1.236706425888091,-0.6333019137382507,0.3427744805812835,3.155771017074585
1772650605879763200,1.50076318359375,12.421465418893098,10.23377183523178,-0.2220337085373699,-0.5288620591163635,0.1766864657402038,2.7977983951568604
1772650605889735200,1.510735107421875,13.350482298529148,9.894075769996643,0.9243075329013168,-0.3515362441539764,0.2030615359544754,2.2157156467437744
1772650605899707100,1.52070703125,13.60646898394227,9.656005265024303,1.3297365917630493,-0.1409518271684646,0.2967134714126587,1.5783642530441284
1772650605909680000,1.53068017578125,12.909828781551122,9.478840187391638,1.1907599366188049,0.0366102382540702,0.4543891251087188,1.0171080827713013
1772650605919652000,1.540652099609375,11.525097593927384,9.175091633850336,0.4839207040354609,0.1131505519151687,0.5981180667877197,0.5903139114379883
1772650605929625300,1.550625244140625,10.221768093705176,8.970552227079867,-0.4706159629128873,0.0919798165559768,0.569617509841919,0.3218435943126678
1772650605939597000,1.56059716796875,9.312575273957847,8.798381304472684,-1.2934418740667402,-0.0071054878644645,0.3970334231853485,0.1665083318948745
1772650605949570300,1.5705703125,8.766527784094214,8.698638489216565,-1.8958304059639568,-0.1450690180063247,0.166845217347145,0.0635467991232872
1772650605959542300,1.580542236328125,8.258994441542029,8.57751737036705,-2.16841035265103,-0.281806081533432,-0.0384879484772682,-0.0055268113501369
1772650605969514200,1.59051416015625,7.660244704538583,8.571674489557742,-2.0384706981822847,-0.3657846450805664,-0.1451923102140426,-0.0512924343347549
1772650605979487200,1.6004873046875,7.052454167467356,8.657403392508625,-1.6529088076986371,-0.3793105781078338,-0.1448737978935241,-0.0827590078115463
1772650605989459200,1.610459228515625,6.64909957679212,8.774305432358384,-1.1648704392112792,-0.3509474098682403,-0.096051387488842,-0.1216158643364906
1772650605999432200,1.62043212890625,6.534086711689829,8.725042512017488,-0.96284184621796,-0.3283459544181824,-0.052526019513607,-0.1932050883769989
1772650606009404200,1.630404052734375,6.625073973560333,8.647091841852664,-1.0399985895261168,-0.3066230118274688,-0.0192447490990161,-0.2983991503715515
1772650606019377200,1.640377197265625,6.635190878427029,8.477679862564802,-1.043473279899359,-0.2906629741191864,0.0116479201242327,-0.4215181469917297
1772650606029349000,1.65034912109375,6.549362022233009,8.160351111960411,-1.1041679870977996,-0.2898898720741272,0.0138751938939094,-0.5433423519134521
1772650606039321000,1.660321044921875,6.275292567640543,8.010878343373536,-1.052349829316139,-0.2702301442623138,-0.0191554613411426,-0.6225468516349792
1772650606049294300,1.67029443359375,5.860235264211893,7.90878107394576,-0.7601911758035421,-0.239960640668869,-0.1125901415944099,-0.6437171101570129
1772650606059266000,1.68026611328125,5.375946019124984,7.504720965349674,-0.5391029314227402,-0.1873304545879364,-0.2581822276115417,-0.6325542330741882
1772650606069239000,1.690239013671875,4.937513685327768,6.913851752462983,-0.350677916368097,-0.1439925879240036,-0.3858207166194916,-0.6424920558929443
1772650606079211300,1.700211181640625,4.4638522172391415,6.186639301675558,-0.3367357541248202,-0.1165175512433052,-0.4195057153701782,-0.6618080139160156
1772650606089184300,1.710184326171875,3.7837797032892704,5.260681809610128,-0.5684972220808268,-0.1173682510852813,-0.4056869447231293,-0.6961116194725037
1772650606099156200,1.72015625,3.212171071189642,4.177891833844781,-1.121618011331558,-0.1570272445678711,-0.4559661149978637,-0.803523063659668
1772650606109128200,1.730128173828125,2.6524627202421427,3.075900314003229,-1.3385947287403046,-0.2179092317819595,-0.5158432722091675,-0.9456186890602112
1772650606119101200,1.74010107421875,1.5461539217233655,1.3447078047931194,-0.687665891688317,-0.2496517151594162,-0.6912755370140076,-1.078912377357483
1772650606129073200,1.7500732421875,0.210396900627017,-0.2559481069684028,0.3008823504552245,-0.1407539397478103,-0.8654640913009644,-1.248306393623352
1772650606139046100,1.760046142578125,-1.1012386556476357,-1.283407825177908,1.4966360037080944,0.1023993268609047,-0.9240256547927856,-1.4435614347457886
1772650606149018400,1.770018310546875,-2.8953111071407798,-2.1154384947896,2.1949898781493307,0.3855558633804321,-0.8029892444610596,-1.6358400583267212
1772650606158991000,1.7799912109375,-4.611334104269742,-3.0037212129771707,1.8924869407549496,0.6660562753677368,-0.5366712808609009,-1.8112592697143557
1772650606168963000,1.789963134765625,-6.205459737479687,-3.6384266449809073,0.8428133449107408,0.8390859365463257,-0.1845525503158569,-1.7599992752075195
1772650606178935300,1.799935302734375,-8.401694354993104,-4.117736348089576,-0.1095796610724181,0.9098455905914308,0.0189547631889581,-1.386975884437561
1772650606188908000,1.809907958984375,-9.79603742057085,-4.90246633734405,-0.4465166368577629,0.8805232644081116,0.0090905455872416,-0.7932823896408081
1772650606198880300,1.81988037109375,-10.039765512913466,-5.9893836221724746,-0.2999534721072763,0.6755735874176025,-0.0852178484201431,-0.0511187948286533
1772650606208853200,1.829853271484375,-9.47346258600652,-8.027089473462103,0.3322504254043102,0.3143459856510162,-0.5134901404380798,0.5746992826461792
1772650606218825200,1.8398251953125,-6.847972628363967,-9.215117354768514,1.1849701011709868,-0.008454973809421,-1.326876521110535,0.7367390394210815
1772650606228798200,1.849798095703125,-2.718829335597157,-9.09447846647799,1.7782929908201095,-0.1781369149684906,-2.027585506439209,0.186462864279747
1772650606238770200,1.859770263671875,0.67395724593997,-8.941003476512432,1.781070054318011,-0.2731169760227203,-2.0794451236724854,-1.014960527420044
1772650606248742100,1.8697421875,2.061585324048996,-8.66276579632461,1.2976257356226444,-0.2899325489997864,-1.4527968168258667,-2.556147813796997
1772650606258715100,1.879715087890625,1.30662328107059,-7.762146159133315,1.221185835346952,-0.1642656922340393,-0.4505520462989807,-3.949959754943848
1772650606268687400,1.889687255859375,-1.829900720721483,-6.50017976591289,1.845005058611929,0.0365312881767749,0.3883567154407501,-4.690618515014648
1772650606278660400,1.899660400390625,-6.230699977198243,-5.184508085989952,2.3157906790032983,0.2188190668821334,0.7314354777336121,-4.6231842041015625
1772650606288632000,1.909632080078125,-10.175455255341529,-4.050985117331147,2.4741680540576576,0.3856255114078522,0.5686213374137878,-3.879892826080322
1772650606298605300,1.919605224609375,-12.71061086206436,-2.906191397595405,2.201083226588368,0.5212413668632507,-0.0087940488010644,-2.6937081813812256
1772650606308577300,1.929577392578125,-13.39348557395339,-2.039919435685873,1.425287654417753,0.5678733587265015,-0.679986834526062,-1.2599899768829346
1772650606318549200,1.93954931640625,-12.903311362481116,-1.755804972419143,0.455201061235927,0.5190061926841736,-1.284176468849182,0.1501195132732391
1772650606328522200,1.949522216796875,-10.983583655840158,-1.422124806472659,-0.535169647094421,0.4285342693328857,-1.6867308616638184,1.1586002111434937
1772650606338494200,1.959494140625,-7.586245402348041,-0.7276438279420137,-1.127706975856423,0.3413248062133789,-1.8077927827835083,1.7354310750961304
1772650606348467200,1.96946728515625,-4.262708882647752,-0.3450970474958419,-1.4580179576307537,0.2319457978010177,-1.611775517463684,1.9220712184906008
1772650606358439200,1.979439208984375,-1.449547650927305,-0.0583592499881982,-1.8548880085922776,0.0995981395244598,-1.1670308113098145,1.777381420135498
1772650606368412200,1.989412109375,1.1066413914740083,0.3379840006202459,-1.931327689672261,-0.0260327849537134,-0.643288791179657,1.3925679922103882
1772650606378384100,1.999384033203125,3.2541590320914984,0.752649089860916,-1.579693787753582,-0.1260278224945068,-0.1420211493968963,0.8740846514701843
1772650606388356000,2.009356201171875,4.74884580142796,1.1438280895739794,-0.8859965069465339,-0.1848373860120773,0.2207583785057068,0.3441462516784668
1772650606398329300,2.019329345703125,5.4653743611156935,1.704499732595682,-0.0057023580937646,-0.1883692592382431,0.4002011120319366,-0.0671957656741142
1772650606408301000,2.029301025390625,5.44402703718245,2.409162497922778,0.7741188711300492,-0.1557916700839996,0.424383282661438,-0.3308092951774597
1772650606418274000,2.039274169921875,5.156168711212277,3.1476988912791013,1.3149097556397318,-0.1058898866176605,0.3574218451976776,-0.4772131145000458
1772650606428246300,2.049246337890625,4.975716866993904,3.773663967466354,1.5575782559268176,-0.0703983679413795,0.2255015671253204,-0.5630931258201599
1772650606438219300,2.05921923828125,4.969936530026793,4.308434861034154,1.508822408325225,-0.0522814132273197,0.0893682315945625,-0.6530650854110718
1772650606448191200,2.069191162109375,5.085145209962129,4.827846857428551,1.3826362611711025,-0.0515426211059093,0.0220011826604604,-0.8014900088310242
1772650606458163200,2.0791630859375,5.263149076506495,5.216555667635798,1.1814891271874308,-0.1025008782744407,0.0033057914115488,-1.0206564664840698
1772650606468136200,2.08913623046875,5.463880323165655,5.474177260774374,0.8224482369478792,-0.1381407529115677,0.1037487462162971,-1.2716416120529177
1772650606478108200,2.099108154296875,5.542195150467753,5.584010677412152,1.1122455681566148,-0.1342211216688156,0.2728083431720733,-1.602821946144104
1772650606488081200,2.1090810546875,6.0070893747329706,5.72978342243731,1.1818681896328926,-0.1314746737480163,0.4480448961257934,-1.9800727367401123
1772650606498053400,2.119053466796875,6.258627848565578,5.9518672537267205,1.1678390066932889,-0.0986834466457367,0.6330264806747437,-2.312704086303711
1772650606508026000,2.129026123046875,6.1070455404788255,6.117707219746708,1.4227543365478514,-0.012739585712552,0.7630791664123535,-2.5506527423858643
1772650606517998300,2.138998291015625,5.68899665401876,6.173813137850165,1.69663323700428,0.0940094962716102,0.8269636034965515,-2.636322498321533
1772650606527970300,2.14897021484375,5.093757555484771,6.012531858047843,1.735779106348008,0.2010792344808578,0.7655787467956543,-2.5541024208068848
1772650606537943000,2.158943115234375,4.580384254732728,5.5451049004346125,1.5296879400908947,0.2860500812530517,0.6014449596405029,-2.325634717941284
1772650606547915300,2.168915283203125,4.131930877658725,4.709121401543915,1.040908105586469,0.3135545253753662,0.4087215960025787,-1.9993541240692136
1772650606557888300,2.17888818359375,3.636250469985604,3.633593233475089,0.2201447164529934,0.2909703850746155,0.2424117028713226,-1.6266902685165403
1772650606567860200,2.188860107421875,2.9235458525002,2.4235011121377346,-0.4515257337240502,0.2529095113277435,0.125731959939003,-1.2175236940383911
1772650606577833200,2.198833251953125,2.094340177181363,1.409540050187707,-1.0992396638501434,0.2131485044956207,0.0443534813821315,-0.7684505581855774
1772650606587805200,2.20880517578125,0.8678250365704298,0.6160726277261972,-1.882413436638564,0.1536281555891037,0.0192740336060524,-0.2322084307670593
1772650606597777200,2.218777099609375,-0.9809218389183282,-0.2705652458637952,-2.46850257564187,0.1230558604001998,-0.0419800020754337,0.4363323450088501
1772650606607750100,2.228750244140625,-3.0771880157262084,-1.1029989433184266,-2.4555706133544444,0.146333247423172,-0.1861315816640854,1.2591334581375122
1772650606617722400,2.238722412109375,-5.214385922381282,-1.7875459723338485,-2.1055536451131105,0.193662941455841,-0.3161305785179138,2.233070373535156
1772650606627695000,2.248695068359375,-7.234775312688947,-2.169007295630872,-2.0802410708107053,0.2498067319393158,-0.4178885221481323,3.299532175064087
1772650606637667000,2.2586669921875,-8.667516205722093,-2.4039281044006344,-1.845457770815492,0.3333429098129272,-0.535609781742096,4.306634902954102
1772650606647640300,2.268640380859375,-9.346863328006863,-2.979540711444616,-1.2947400971837342,0.438065767288208,-0.5692159533500671,5.045097351074219
1772650606657612000,2.278612060546875,-8.779781233420968,-3.937840384188294,-0.7876461689621209,0.5946380496025085,-0.3161109685897827,5.2126784324646
1772650606667584300,2.288584228515625,-6.956175228929519,-5.417195144358277,-5.1223297161e-05,0.8284159302711487,0.1369236260652542,4.628690719604492
1772650606677557200,2.29855712890625,-4.83099918397963,-7.996033825463056,0.8111153804201632,1.1204004287719729,0.7301984429359436,3.4895148277282715
1772650606687529000,2.308529052734375,-4.182366348910332,-10.87345154851675,1.5235226954594254,1.542015552520752,1.3257547616958618,2.188697099685669
1772650606697502200,2.318502197265625,-5.439130497312545,-12.184129657936095,1.6754771978594365,2.004126787185669,1.675719141960144,1.2257851362228394
1772650606707474200,2.32847412109375,-9.04372793792784,-12.196604524105789,0.7551427333075553,2.285505533218384,1.5269463062286377,1.023262619972229
1772650606717446100,2.338446044921875,-13.669142589998245,-12.231712077844142,-0.7434211697231978,2.2738595008850098,1.1202392578125,1.5065160989761353
1772650606727419100,2.348419189453125,-16.953170106130838,-12.066301735413074,-2.189026585830748,1.9968140125274656,0.7205321192741394,2.269681215286255
1772650606737391400,2.358391357421875,-17.441452804768083,-12.08007190209031,-2.477664079479873,1.5771088600158691,0.3494544625282287,2.876903772354126
1772650606747364400,2.3683642578125,-15.319032780528069,-11.75878710733652,-1.007717637515813,1.4159384965896606,0.2186955958604812,3.2050492763519287
1772650606757336000,2.378336181640625,-12.416253821724652,-11.177636739909648,3.2123271385341883,1.6226117610931396,0.2130861729383468,3.116786003112793
1772650606767309300,2.388309326171875,-8.800193906852602,-9.83357775441408,5.812964394471049,2.009798049926758,0.1949848681688308,2.8501791954040527
1772650606777281300,2.39828125,-6.356667367035151,-9.006422581884264,6.415847870278358,2.359041452407837,-0.1442635059356689,2.65022873878479
1772650606787253200,2.408253173828125,-4.7993701200068,-8.060024359336495,4.91117688254416,2.500598669052124,-0.7499426007270813,2.6758837699890137
1772650606797226200,2.418226318359375,-4.051778313535452,-6.195822725084423,2.2768869478523728,2.50018310546875,-1.394132375717163,2.9081952571868896
1772650606807198200,2.4281982421875,-3.151237002277374,-3.565594633004069,0.3617763796180486,2.392938137054444,-1.9551111459732056,3.159330129623413
1772650606817171200,2.438171142578125,-1.3794137919932603,-0.9516010518878698,-0.9992829866476356,2.168598175048828,-2.382293701171875,3.2897789478302
1772650606827143200,2.44814306640625,0.6643731327757239,1.3388175777107476,-2.1697006847225127,1.821854829788208,-2.631675720214844,3.260439395904541
1772650606837116200,2.4581162109375,2.0944085662424565,2.779164854094386,-2.672762580949068,1.404161810874939,-2.649437665939331,3.097949266433716
1772650606847088000,2.468088134765625,2.966431639024615,3.8893607231795775,-2.5949782072618603,0.9455363154411316,-2.3747048377990723,2.752748489379883
1772650606857060000,2.47806005859375,3.889638955599069,4.979454884478449,-2.223785472261905,0.4726889133453369,-1.73313307762146,2.1749441623687744
1772650606867033300,2.488033447265625,4.913203419935703,5.706906989240646,-2.077471167705953,-0.0010034181177616,-0.833112895488739,1.3596949577331543
1772650606877005000,2.498005126953125,6.185132988765836,6.615537498930096,-1.9290455700844524,-0.4470229744911194,0.1358234137296676,0.4429479241371155
1772650606886978300,2.507978271484375,7.040220124316215,7.535140653532743,-1.513859087318182,-0.8418089747428894,0.9557839632034302,-0.403479516506195
1772650606896950500,2.517950439453125,7.371087570929527,8.424496553909778,-0.7244245736345648,-1.1765544414520264,1.502147197723389,-1.0391316413879397
1772650606906923500,2.527923583984375,7.1815247840166085,9.120686674445867,0.4039604476138949,-1.4003814458847046,1.7344509363174438,-1.4040027856826782
1772650606916895500,2.5378955078125,6.598733663645386,9.703560212403536,1.818471418081969,-1.489348292350769,1.649572491645813,-1.503017544746399
1772650606926867500,2.547867431640625,5.859459019142389,10.089787727189064,3.201153710351884,-1.4426636695861816,1.3434672355651855,-1.382712960243225
1772650606936840400,2.55784033203125,5.224477692806721,10.38131217445135,4.117193034993112,-1.3049628734588623,0.9736631512641908,-1.165518283843994
1772650606946812400,2.5678125,4.741923308688402,10.585226142799854,4.56598338893652,-1.1045804023742676,0.6631821990013123,-0.9315348267555236
1772650606956785400,2.577785400390625,4.427994429655373,10.476661723184584,4.747905305707454,-0.9019541144371032,0.3949379324913025,-0.7436080574989319
1772650606966757600,2.587757568359375,4.257468936167657,10.06920788049698,4.619764371223748,-0.7268834114074707,0.2088173478841781,-0.6188828945159912
1772650606976730400,2.59773046875,3.9117216080695383,9.760503165853024,4.222444676798582,-0.5873673558235168,0.0935677215456962,-0.5282560586929321
1772650606986702300,2.607702392578125,3.4537437390640378,9.493934296149014,3.648664545878768,-0.4997087121009826,0.0518845133483409,-0.4395089149475097
1772650606996674600,2.617674560546875,2.983798661150038,9.283378405568005,2.966744358235597,-0.4802447259426117,0.0695676356554031,-0.3556550145149231
1772650607006647300,2.627647216796875,2.7324583402380345,9.078153354620934,2.173701444796473,-0.5361904501914978,0.1552696079015731,-0.3079172968864441
1772650607016619500,2.63761962890625,2.8513074225023387,8.895058886939287,1.417292856271565,-0.6283320784568787,0.2863123416900635,-0.3299901187419891
1772650607026592500,2.647592529296875,3.1856267631351947,8.839432276785374,1.0146403494510798,-0.7124853730201721,0.4312615692615509,-0.3861654996871948
1772650607036564200,2.657564208984375,3.484575222918391,8.702832433775066,1.0298844611383977,-0.7851694226264954,0.5260008573532104,-0.4502099752426147
1772650607046536400,2.667536376953125,3.79968805103898,8.531017484998703,1.0834816843565551,-0.8243092894554138,0.5633791089057922,-0.501295804977417
1772650607056509400,2.677509521484375,4.006235290500522,8.558444421106577,1.3541359967432915,-0.8146489262580872,0.5150064826011658,-0.5103204846382141
1772650607066481400,2.6874814453125,4.014701797811687,8.404535131376981,1.6809420391365886,-0.783997654914856,0.3626163005828857,-0.4395930469036102
1772650607076454400,2.697454345703125,3.9045623839646577,8.126452349489927,1.666682919898629,-0.7350513935089111,0.1217243298888206,-0.2844293117523193
1772650607086426600,2.707426513671875,3.938387496677041,7.868566552457213,1.464259920760244,-0.673389732837677,-0.1019962430000305,-0.1333492398262024
1772650607096399600,2.717399658203125,4.496755831192433,7.427215700864791,0.972620312910527,-0.645753800868988,-0.3992284536361694,-0.038474403321743
1772650607106371300,2.727371337890625,5.256662052574754,6.945607073163986,0.295426130875945,-0.6422529816627502,-0.7666722536087036,0.0436061061918735
1772650607116343600,2.737343505859375,5.247309702339768,6.309004283106327,-0.2256334135297685,-0.6593675017356873,-1.064177393913269,0.1313015967607498
1772650607126316500,2.747316650390625,4.462059488603472,5.523796739467978,-0.8882917782768607,-0.6863107085227966,-1.1628278493881226,0.2273093611001968
1772650607136288500,2.75728857421875,3.3058038791328666,4.778319148671627,-1.596516035477817,-0.6775041222572327,-1.0441787242889404,0.2980818152427673
1772650607146261500,2.767261474609375,2.166849240814149,3.825861187693477,-1.9994097306430336,-0.6778356432914734,-0.7178921699523926,0.3393823504447937
1772650607156233500,2.7772333984375,0.8791483946174382,2.0434844346910714,-2.4512945434704423,-0.7105951905250549,-0.2739469707012176,0.4351717233657837
1772650607166206500,2.78720654296875,-0.7968614488139748,-0.0575146158576011,-2.7684178346306085,-0.7385106086730957,0.1534489542245865,0.5895309448242188
1772650607176178400,2.797178466796875,-2.0089701706707475,-2.697128375920653,-1.9900698014982043,-0.6496686339378357,0.3459227979183197,0.623504102230072
1772650607186150700,2.807150634765625,-2.6074042658537624,-6.390939638993144,-0.0525686838880181,-0.417113333940506,0.3804105520248413,0.482957661151886
1772650607196123400,2.817123291015625,-4.068886100202799,-9.79428502394557,1.4555293556854128,-0.0760481804609298,0.3621743321418762,0.408722311258316
1772650607206095400,2.827095458984375,-7.406283971995115,-11.594167038500307,0.8874758587840944,0.1674795299768448,0.3800051510334015,0.7472169399261475
1772650607216068600,2.837068603515625,-11.776846495640276,-13.044796054923534,-0.954983680063486,0.1942536234855651,0.4282541573047638,1.517277717590332
1772650607226040300,2.847040283203125,-14.155032256019114,-14.39679986194372,-2.612619370153546,0.0706093460321426,0.2947661876678467,2.477651834487915
1772650607236013300,2.857013427734375,-13.21972124467492,-16.047499030768872,-2.8351696499109265,-0.0563416816294193,-0.0914704427123069,3.230947256088257
1772650607245985500,2.866985595703125,-9.314635129097104,-18.225383168077467,-1.509401523387432,-0.120871216058731,-0.5164797306060791,3.396685838699341
1772650607255957200,2.876957275390625,-3.7399852774873374,-20.16161426575184,0.3338060573484748,-0.1025963351130485,-0.7915453910827637,2.8825509548187256
1772650607265930500,2.886930419921875,1.6384890910714864,-21.626991938495635,1.7275573675781488,0.0252106096595525,-0.8482047915458679,1.7736726999282837
1772650607275902500,2.89690234375,5.5551253591895104,-22.228731504964827,2.23630037818104,0.1429132670164108,-0.6337199211120605,0.279799222946167
1772650607285875500,2.90687548828125,6.81437840179801,-22.219086893785,1.1041640415750442,0.0460487231612205,-0.1346010118722915,-1.2930618524551392
1772650607295847400,2.916847412109375,5.277617746841907,-21.06412775386572,-1.1284057717755436,-0.1298621296882629,0.557482898235321,-2.526534080505371
1772650607305820400,2.9268203125,1.0381848181024194,-18.675016110324854,-1.8688617350175976,-0.2331907153129577,1.2073383331298828,-3.0865278244018555
1772650607315792600,2.936792724609375,-3.563697859472036,-15.612998191201688,-1.8751397923737765,-0.2732369303703308,1.505415916442871,-2.991176128387451
1772650607325764400,2.946764404296875,-6.6363306961119175,-12.470358336877824,-1.589443905134499,-0.2160426080226898,1.3307684659957886,-2.3609373569488525
1772650607335737300,2.9567373046875,-8.389642682671546,-9.29897695671618,-1.099708815731853,-0.0905890762805938,0.7727885842323303,-1.3255226612091064
1772650607345709600,2.96670947265625,-8.835081680360435,-5.952629470270872,-1.097184046494588,0.0297132022678852,0.0628110542893409,-0.1284593939781189
1772650607355682300,2.976682373046875,-7.652401005300879,-2.738134340047836,-1.5058407621659338,0.0978874638676643,-0.584854006767273,0.94777113199234
1772650607365654500,2.986654541015625,-5.103171865040063,0.223545136013627,-1.9287879420615728,0.1463097035884857,-1.0037049055099487,1.6713756322860718
1772650607375626500,2.99662646484375,-1.7745692941218614,2.722293796837329,-2.107803177605569,0.156871810555458,-1.0981379747390747,1.9186367988586424
1772650607385599500,3.006599609375,1.950326258522272,4.822243630594015,-2.30306797555238,0.1271749585866928,-0.8545266389846802,1.657614827156067
1772650607395571500,3.016571533203125,5.490861853593588,6.443919534030556,-2.5525001247555017,0.0006460440345108,-0.4619202017784118,1.0309938192367554
1772650607405544400,3.02654443359375,7.890513595849275,7.620642761990427,-3.131229402515292,-0.2067997604608535,-0.0292424410581588,0.1986934244632721
1772650607415516400,3.036516357421875,9.461335510361192,9.082796211990711,-3.256440421026945,-0.4392953217029571,0.4188275039196014,-0.6967401504516602
1772650607425489400,3.046489501953125,9.97256186221242,10.411239695203305,-2.80563112847656,-0.6589726805686951,0.7498775124549866,-1.44638192653656
1772650607435461600,3.056461669921875,8.97998348776996,11.192325774997473,-1.89000199207142,-0.8185088038444519,0.8860784769058228,-1.8463413715362549
1772650607445433300,3.066433349609375,6.889428674346208,11.68948385400772,-0.5840072181627154,-0.8743544220924377,0.8960623145103455,-1.8637161254882808
1772650607455406300,3.07640625,4.996447520333528,12.373776616001129,0.6026474020291119,-0.8622900247573853,0.7618347406387329,-1.6028785705566406
1772650607465378600,3.086378662109375,4.139744766280055,12.63528235709667,1.5168220287770031,-0.7848370671272278,0.4627729058265686,-1.253822922706604
1772650607475351300,3.096351318359375,4.343650551322102,12.485626048636435,2.180081355091929,-0.6642563343048096,0.0850546360015869,-0.9715901017189026
1772650607485323500,3.106323486328125,5.03743653332591,12.237966462063788,2.563846279156208,-0.5223527550697327,-0.2468329519033432,-0.8140161633491516
1772650607495296500,3.116296630859375,5.563158443519472,11.813360409045218,2.871561105979979,-0.3453122079372406,-0.4984753131866455,-0.7637812495231628
1772650607505268200,3.126268310546875,5.770535119542479,11.240070691990852,2.8968080677002668,-0.1903267949819564,-0.639717161655426,-0.7618696093559265
1772650607515240400,3.136240478515625,5.695346899828315,10.634777232432365,2.5000208727166053,-0.0839739888906478,-0.6645727157592773,-0.8182708621025085
1772650607525213400,3.14621337890625,5.941262857604026,9.867656549626588,2.057654414340853,-0.0066087911836802,-0.5963146090507507,-0.9625020623207092
1772650607535185400,3.156185302734375,6.321368674638867,9.29507994927764,1.546803910064697,0.0223594773560762,-0.4603269696235657,-1.144758939743042
1772650607545158400,3.166158447265625,6.293374167776108,8.640321324804425,0.8866548247247934,-0.0083255693316459,-0.2670357525348663,-1.336444854736328
1772650607555130400,3.17613037109375,6.142108086031675,7.5678393925637,0.457135974821262,-0.0842315182089805,-0.0400968752801418,-1.540388822555542
1772650607565102300,3.186102294921875,6.247431916290521,6.510401300197839,0.3823978369621559,-0.2002951204776764,0.2188517302274704,-1.7523841857910156
1772650607575075300,3.196075439453125,6.219166191270947,5.490255704393983,0.495440424904786,-0.3148222267627716,0.5714364051818848,-1.9517172574996948
1772650607585047600,3.206047607421875,6.065431673586368,4.460259161183238,1.0865290892284365,-0.3891043365001678,0.912844717502594,-2.1185009479522705
1772650607595020500,3.2160205078125,5.829837787860631,3.3500568623572584,1.809268267059326,-0.4408924281597137,1.1377547979354858,-2.207087516784668
1772650607604992500,3.225992431640625,5.27276329254806,2.384415594679117,2.4425915970548986,-0.4491604268550873,1.2500077486038208,-2.178182363510132
1772650607614965500,3.235965576171875,4.264237407389283,1.6078642357051371,2.820590212677419,-0.4049650132656097,1.284651756286621,-2.032824754714966
1772650607624937500,3.2459375,3.128429542663693,1.1165712493360045,2.8120418723016978,-0.3490576446056366,1.2443971633911133,-1.730845332145691
1772650607634909400,3.255909423828125,1.7416081047624348,0.5686690715163946,2.5049966153025625,-0.2373231202363968,1.2165472507476809,-1.2653192281723022
1772650607644882400,3.26588232421875,0.2914730093359947,0.1074246019303798,2.5711598170399665,-0.0585928969085216,1.233556628227234,-0.7626975774765015
1772650607654854700,3.275854736328125,-0.3082464494824409,-0.1510264277696609,2.117007643802464,0.0213458780199289,1.1425365209579468,-0.2421758621931076
1772650607664827400,3.285827392578125,-0.8098223449349403,-1.0079980618923905,1.2575465309515594,-0.0416264906525611,0.861524760723114,0.3441230356693268
1772650607674799400,3.29579931640625,-1.8008780398547648,-2.6998171766132115,0.619943039418757,-0.2273849099874496,0.4751009047031402,0.966164767742157
1772650607684771600,3.305771484375,-2.6032003844231366,-4.328630676844716,0.3350580301709473,-0.4695091843605041,0.0240405574440956,1.4479109048843384
1772650607694744300,3.315744384765625,-2.512138303750753,-5.960387244790792,0.9061762484051288,-0.6095442771911621,-0.4127317070960998,1.5244224071502686
1772650607704716500,3.325716552734375,-1.5144552996456622,-7.474326996129751,2.073194513300061,-0.6247888207435608,-0.7019913792610168,1.117114543914795
1772650607714689500,3.335689453125,-1.5036802231311797,-8.522513276025652,2.8994460149884222,-0.5189201235771179,-0.5649698376655579,0.4960076510906219
1772650607724661200,3.3456611328125,-3.8547465059161183,-9.004327070909738,3.231815975119173,-0.3832738697528839,-0.1560572981834411,-0.1401512175798416
1772650607734634500,3.355634521484375,-5.9685109300136565,-8.990090455764532,2.49008137024343,-0.2299029678106308,0.2225017249584198,-0.6110473275184631
1772650607744606500,3.3656064453125,-8.143235726508498,-8.164919150528311,1.6419288562618195,-0.0853639990091323,0.4585140347480774,-0.863296389579773
1772650607754578400,3.375578369140625,-9.604434652262926,-7.626579750823974,0.4973353352732956,-0.0536366961896419,0.4104354679584503,-0.9517138600349426
1772650607764551400,3.385551513671875,-10.564826328849792,-7.61666509053111,-0.9549354570075868,-0.1934176534414291,0.1365324109792709,-0.9224076271057128
1772650607774523400,3.3955234375,-11.70520749284029,-7.201077041226625,-2.042873170924932,-0.3276540040969848,-0.0420684926211833,-0.7891268134117126
1772650607784496600,3.40549658203125,-12.68329030894041,-6.137834646496176,-1.7158618152178824,-0.3480711579322815,-0.1270797997713089,-0.5749418139457703
1772650607794468400,3.41546826171875,-13.083143028974533,-5.742637643313407,-0.0634703093916177,-0.2170122265815735,-0.2362837791442871,-0.2635258734226227
1772650607804441300,3.42544140625,-12.772282597601412,-5.943385256585478,2.139687239252776,0.0643261075019836,-0.4510796666145324,0.1036366671323776
1772650607814413600,3.43541357421875,-11.39996314778328,-5.884378356343508,3.4004549242079256,0.374941736459732,-0.850558340549469,0.4427116811275482
1772650607824385300,3.44538525390625,-9.205068254441022,-5.706968948560953,3.1473946476355192,0.6131799817085266,-1.2824389934539795,0.6268511414527893
1772650607834358500,3.455358642578125,-6.799466079348325,-5.442932227683067,1.7669392376348376,0.750255823135376,-1.4752044677734375,0.5670524835586548
1772650607844330500,3.46533056640625,-4.593628351709246,-4.874579382508993,-0.119298214271292,0.8269754648208618,-1.4060319662094116,0.317378282546997
1772650607854303200,3.47530322265625,-2.7536545652627944,-4.073323790389299,-1.5019830638244749,0.8618407845497131,-1.1669073104858398,-0.0261356867849826
1772650607864275500,3.485275390625,-1.2918266939550638,-2.5029437744259835,-2.465134852774441,0.8446341753005981,-0.8665156364440918,-0.3417447507381439
1772650607874247400,3.495247314453125,-0.2819423799246549,-0.2670335646063089,-3.390557215049862,0.7729876637458801,-0.6016964912414551,-0.5707957744598389
1772650607884220400,3.505220458984375,0.4582032021939754,1.8897575157910584,-3.8150402262106535,0.6610206365585327,-0.4517603814601898,-0.6658948659896851
1772650607894192000,3.515192138671875,0.9892413389742374,3.413027990055084,-3.60578402005136,0.5263267159461975,-0.4306239485740661,-0.6313363909721375
1772650607904165400,3.525165283203125,1.6650573645234108,4.315556091216206,-2.9096672570124267,0.4013479948043823,-0.5083219408988953,-0.5657168626785278
1772650607914137300,3.535137451171875,2.9171108510166404,4.900196638846397,-2.061249223962426,0.289815604686737,-0.577078640460968,-0.603956937789917
1772650607924110300,3.5451103515625,4.591035412606597,5.529994425064325,-1.5756788530237973,0.179272785782814,-0.5597400069236755,-0.8199512958526611
1772650607934082300,3.555082275390625,6.1566761250883335,6.061352295318246,-1.3528075246185065,0.0781783908605575,-0.4478102624416351,-1.21259605884552
1772650607944054300,3.56505419921875,7.41903005632162,6.361003350412846,-1.0665928742021322,-0.0140673881396651,-0.2451820522546768,-1.7514704465866089
1772650607954027500,3.575027587890625,8.145294412603974,6.533533169460296,-0.7222443069860339,-0.0789060369133949,0.0313017480075359,-2.3385283946990967
1772650607963999200,3.584999267578125,7.9708105368793,6.578201163226366,-0.208516420642659,-0.0983060747385025,0.3206706941127777,-2.8032071590423584
1772650607973972200,3.59497216796875,6.436839220380783,6.652497987058759,0.4895198026841506,-0.0245743282139301,0.463358610868454,-2.919565200805664
1772650607983944400,3.6049443359375,4.1373663467109205,6.754027685731649,1.193538899812847,0.1000243723392486,0.4160991609096527,-2.6452066898345947
1772650607993917200,3.614917236328125,2.226951827338338,6.650271543180942,1.4615411633208393,0.2258837670087814,0.2485045790672302,-2.139289617538452
1772650608003889400,3.624889404296875,1.447574889549613,6.389787546348572,1.058726670871675,0.3030652701854706,0.0773920938372612,-1.5821049213409424
1772650608013861400,3.634861328125,1.4942606528788804,6.080401279181242,0.2438931101785972,0.3039268255233764,-0.0426573492586612,-1.0635629892349243
1772650608023834000,3.644834228515625,1.923057727846503,5.61674624132216,-0.5827706255724653,0.2421377152204513,-0.0763776898384094,-0.639941394329071
1772650608033806300,3.654806396484375,2.623090495285392,5.2266708189368245,-1.2154096630983051,0.154664859175682,-0.0096473935991525,-0.3282979726791382
1772650608043779300,3.664779296875,3.512493741935492,4.970827341386675,-1.4991241672620177,0.0648534670472145,0.1256386190652847,-0.1254007667303085
1772650608053751300,3.674751220703125,4.479274242776632,4.663666933575272,-1.4610273685798048,-0.0216374844312667,0.2717542946338653,-0.0226107314229011
1772650608063723300,3.68472314453125,5.484662414431572,4.294572339898347,-1.3091963464289902,-0.1044893115758895,0.4060994684696197,0.0077415728010237
1772650608073696300,3.6946962890625,6.459592903980613,3.978004052272439,-1.123406282987818,-0.1630599498748779,0.5103321075439453,-0.0427447706460952
1772650608083668200,3.704668212890625,7.3148752698421475,3.7057641511946913,-0.8681538301333784,-0.2054991275072097,0.5671324133872986,-0.134402796626091
1772650608093641200,3.71464111328125,7.9668843033462755,3.4015012183904645,-0.5984605447985232,-0.2487866878509521,0.5401839017868042,-0.2392130941152572
1772650608103613400,3.724613525390625,8.373837210774422,3.0932851640462875,-0.3352226826807484,-0.2725521028041839,0.4346362948417663,-0.3564954996109009
1772650608113586400,3.73458642578125,8.39756061618924,2.8746389059901234,0.1392873285286128,-0.230842188000679,0.3873697221279144,-0.4693594872951507
1772650608123558400,3.744558349609375,7.939082104185223,2.6613620660126207,0.5497163145694881,-0.1586938351392746,0.4001165330410003,-0.5200220942497253
1772650608133530400,3.7545302734375,7.046988887798785,2.4467601149111986,0.6130719846054912,-0.0964254066348075,0.417705088853836,-0.4830007255077362
1772650608143503400,3.76450341796875,6.056053019866347,2.148968423947692,0.5032512082535773,-0.0300575848668813,0.445581316947937,-0.3677340447902679
1772650608153475300,3.774475341796875,5.21438826046884,1.862057607960701,0.4475112008530646,0.0429843999445438,0.4100997447967529,-0.2111356556415558
1772650608163448300,3.7844482421875,4.585766532292962,1.2382879959911108,0.5951832036282867,0.1217487156391143,0.3447165787220001,-0.0852019339799881
1772650608173420500,3.794420654296875,4.061865992307663,0.2593254744470119,0.955127180187404,0.2140192538499832,0.2917068898677826,-0.0478713400661945
1772650608183392300,3.804392333984375,3.4930829390227798,-0.8021867354899644,1.226454788725823,0.3067715764045715,0.2623728811740875,-0.1095552295446395
1772650608193365200,3.814365234375,2.5455162572175265,-2.065268396475911,1.531116219328344,0.4223610162734985,0.2227338254451751,-0.2373318374156952
1772650608203337500,3.82433740234375,0.7856219696581364,-3.527513031890988,2.416470482848585,0.5964136123657227,0.0751877352595329,-0.416334867477417
1772650608213310200,3.834310302734375,-0.5912836389064788,-5.032048995068669,3.305560425765812,0.8489196300506592,-0.0768502652645111,-0.6823013424873352
1772650608223282400,3.844282470703125,-2.3577654881626366,-5.713555925735831,3.815372819165885,1.1605874300003052,-0.0625855177640914,-0.8624743223190308
1772650608233255400,3.85425537109375,-5.300313562774658,-6.265584243574738,3.62162719361037,1.4642455577850342,0.0335591249167919,-0.8857823014259338
1772650608243227100,3.86422705078125,-7.961049605843424,-6.366360493531823,2.7573852762237188,1.755924105644226,0.0513578541576862,-0.6886047124862671
1772650608253199400,3.874199462890625,-10.06282840859294,-6.326247094330191,1.7493175100959837,1.9580950736999512,-0.138804629445076,-0.3059050142765045
1772650608263172400,3.88417236328125,-11.170217988085746,-6.863413358601927,0.1909698041666299,1.9329955577850344,-0.5483916997909546,0.1377411037683487
1772650608273144300,3.894144287109375,-11.261402233833074,-7.416001648411155,-1.7375171821869908,1.706468939781189,-1.1019952297210691,0.4792198836803436
1772650608283117300,3.904117431640625,-10.417304694330692,-7.530812268939614,-3.2613778774291275,1.4089051485061646,-1.5916372537612915,0.5493590235710144
1772650608293089300,3.91408935546875,-9.123695208612084,-7.283581721433997,-3.9503205110549926,1.1434707641601562,-1.7494559288024902,0.2902534306049347
1772650608303062500,3.9240625,-8.193464277011156,-6.963451941934228,-3.599047697533667,0.9897624850273132,-1.5041022300720217,-0.2370892316102981
1772650608313034200,3.9340341796875,-7.700563855445385,-6.516532350298762,-2.562533442991972,0.9657540917396544,-1.039708137512207,-0.8680882453918457
1772650608323006500,3.94400634765625,-7.522537192547321,-5.86658200289011,-1.4001564280316232,1.042569875717163,-0.5668311715126038,-1.400113821029663
1772650608332979200,3.953979248046875,-7.863597531872987,-5.354014173302054,-0.7452065918352454,1.1113896369934082,-0.2304960191249847,-1.722080945968628
1772650608342951400,3.963951416015625,-8.074770093047619,-5.001757901701331,-0.9686367231670766,1.0814799070358276,-0.155618667602539,-1.8500272035598757
1772650608352924400,3.97392431640625,-7.84915633406639,-4.666665823130309,-1.719940170572698,0.9671218991279602,-0.2246264964342117,-1.820942521095276
1772650608362896100,3.983896240234375,-7.552215706974268,-4.177802694256603,-2.5281208857804534,0.7916724681854248,-0.3192566633224487,-1.6786521673202517
1772650608372868400,3.993868408203125,-7.043984445285797,-3.462199140459299,-3.0422534804672,0.6018636226654053,-0.3849664330482483,-1.451366901397705
1772650608382841300,4.00384130859375,-6.437539477604627,-2.819235875459015,-2.9908611468821764,0.4396108090877533,-0.4041958749294281,-1.1482906341552734
1772650608392813300,4.013813232421875,-5.740473158755898,-2.1142142136916515,-2.515700964668393,0.306779533624649,-0.3933136761188507,-0.767221212387085
1772650608402786300,4.023786376953125,-4.790279051056504,-1.356472769127786,-2.0329203705787657,0.1915488392114639,-0.3970697522163391,-0.3414140343666076
1772650608412758300,4.03375830078125,-3.390858828344941,-0.5843988478288054,-1.558675695774704,0.0761724486947059,-0.4075495600700378,0.0475928410887718
1772650608422730200,4.043730224609375,-1.576868208938837,0.0930459479659795,-1.0776409224390984,-0.0292775612324476,-0.3639350831508636,0.31171715259552
1772650608432703200,4.053703125,0.4987970783889293,0.599732026039064,-0.5941933888733386,-0.1518498212099075,-0.2445223927497863,0.3833519518375397
1772650608442675500,4.063675537109375,2.6224399224221706,1.0312161481335758,-0.1323186585597693,-0.2620834112167358,-0.0354659482836723,0.2751232087612152
1772650608452648400,4.0736484375,4.339603906279802,1.5536267418220635,0.3970531524434685,-0.3417998254299164,0.2412577867507934,0.0503316298127174
1772650608462620200,4.0836201171875,5.443977937343717,2.230369526827335,0.934221608672291,-0.3623042404651642,0.532410740852356,-0.2257481515407562
1772650608472593400,4.093593505859375,6.104720312401652,2.93488557716012,1.4393359073840082,-0.3380604088306427,0.8114694952964783,-0.4897326529026031
1772650608482565400,4.1035654296875,6.259367853277921,3.479140338388085,1.6091268029868602,-0.3014612793922424,1.0997202396392822,-0.6777417659759521
1772650608492537300,4.113537353515625,5.772076503765582,3.9941315957307815,1.4924959812939167,-0.2509011328220367,1.3542933464050293,-0.6962056756019592
1772650608502510300,4.12351025390625,4.945541508960724,4.395765938484669,1.3732494241446256,-0.2065503299236297,1.5217734575271606,-0.5146445035934448
1772650608512482300,4.133482421875,4.363806619644165,4.60724508139044,1.185425151462108,-0.1809821128845214,1.5394617319107056,-0.1604253947734832
1772650608522455300,4.143455322265625,4.279286507961154,4.675130576875806,0.8734668418496847,-0.1854977756738662,1.4514191150665283,0.2789000868797302
1772650608532427300,4.15342724609375,4.651351641881465,4.725021858248114,0.4019987190868705,-0.2169454544782638,1.2749346494674685,0.7262389659881592
1772650608542399500,4.1633994140625,5.467500267228484,4.700552602902055,-0.0486453364318236,-0.2865106761455536,1.0054478645324707,1.0942736864089966
1772650608552372200,4.173372314453125,6.542099337753653,4.781913373771309,-0.5069027530310675,-0.3775617480278015,0.7652379870414734,1.3429136276245115
1772650608562344200,4.18334423828125,7.527933498632907,4.784333586655557,-0.5686490516416728,-0.4470027685165405,0.5955634117126465,1.4493095874786377
1772650608572317400,4.1933173828125,8.377800853708386,4.78941045152843,-0.5015159088935702,-0.4912069737911224,0.5537070631980896,1.4154634475708008
1772650608582289200,4.2032890625,9.001560528805852,4.882945352055132,-0.4428714122232049,-0.5034669637680054,0.6583148837089539,1.2583880424499512
1772650608592262100,4.21326220703125,9.434255780255794,4.877211484578251,-0.2258426723662763,-0.477727472782135,0.8198071122169495,1.0183038711547852
1772650608602234400,4.223234375,9.586488076683878,4.813234979230165,0.0031958551655523,-0.4200904965400696,1.0119341611862185,0.7487645149230957
1772650608612206300,4.233206298828125,9.46856020091772,4.711335278201103,-0.0255705676514655,-0.3799412250518799,1.1315186023712158,0.5175118446350098
1772650608622179300,4.243179443359375,9.082910778281091,4.437384481552243,-0.2246255151288583,-0.3761896193027496,1.1064677238464355,0.3859754204750061
1772650608632151300,4.2531513671875,8.366363513892889,4.011338751119375,-0.5638196221912279,-0.4110552072525024,0.948528289794922,0.3760935068130493
1772650608642124300,4.263124267578125,7.360857268816233,3.506749645325541,-0.8047294787753373,-0.4738620817661285,0.6325361132621765,0.496638536453247
1772650608652096300,4.27309619140625,6.142481010997295,2.8903485162973404,-0.8071464767891913,-0.5599008202552795,0.1409272402524948,0.7039422392845154
1772650608662068500,4.283068359375,4.707224335750937,2.20775671300292,-0.532359302381426,-0.6238992214202881,-0.3503098487854004,0.9576143622398376
1772650608672041500,4.29304150390625,2.9817940433293577,1.404067756256461,0.3365446885321289,-0.6008647680282593,-0.7557207345962524,1.1701213121414185
1772650608682013200,4.30301318359375,0.9583329904913902,-0.0777490101128816,1.8949442707791924,-0.460826426744461,-1.0003162622451782,1.1811414957046509
1772650608691986400,4.312986328125,-0.1094780273288488,-2.046818547549844,3.479961591643095,-0.2307231873273849,-1.0642409324645996,0.6229783296585083
1772650608701958400,4.32295849609375,0.3147182758450508,-3.594609130564332,4.128923512536287,0.0697033703327179,-0.8741713762283325,-0.4055418968200683
1772650608711931100,4.33293115234375,-0.9148772951245308,-5.164505162402987,4.600105146507919,0.3751756548881531,-0.4804810285568237,-1.6259444952011108
1772650608721903400,4.3429033203125,-4.099828935477137,-6.02995528653562,3.717293845468759,0.5558611154556274,0.001514125149697,-2.540777921676636
1772650608731875300,4.352875244140625,-9.701494512045382,-5.5672699704915285,1.6955629774242638,0.5905019044876099,0.3131979703903198,-2.820972204208374
1772650608741848300,4.362848388671875,-15.70624112304449,-5.1873932860374445,-0.1477141979491338,0.5117279887199402,0.3606747686862945,-2.5001256465911865
1772650608751820300,4.3728203125,-19.94735659804344,-5.244897380501032,-1.3089192830532788,0.334658682346344,0.2463687062263488,-1.80853807926178
1772650608761793300,4.382793212890625,-21.72788976900577,-5.195505280822515,-2.1163068020567297,0.1254181712865829,0.0419082641601562,-1.0665137767791748
1772650608771765200,4.39276513671875,-21.24671836367845,-5.008258954158425,-2.1076921184465287,0.0147723536938428,-0.0581943690776824,-0.3955185413360595
1772650608781737200,4.4027373046875,-19.726182867336277,-5.112625922083854,-0.7992903564613312,0.0082235662266612,-0.1467627733945846,0.2259141057729721
1772650608791710500,4.41271044921875,-17.460619277530906,-5.276165794467926,0.8564680685147643,0.0657995045185089,-0.3457789719104767,0.7936933636665344
1772650608801682200,4.42268212890625,-14.528812961685656,-5.335300705003738,2.360722146011144,0.1693752110004425,-0.6450298428535461,1.219262719154358
1772650608811655200,4.4326552734375,-10.9265086004436,-5.215781176131963,3.2935812341585757,0.2984926998615265,-0.9673820734024048,1.3809326887130735
1772650608821627400,4.44262744140625,-7.022196976369619,-5.001064074218273,3.8136639694213854,0.4404990673065185,-1.222456455230713,1.242035746574402
1772650608831600400,4.452600341796875,-3.713124450829625,-4.844367199596762,4.029490786142647,0.5805475115776062,-1.2531107664108276,0.899904727935791
1772650608841572400,4.462572265625,-1.5881915669858455,-4.332228409075737,3.730603408896923,0.7250871062278748,-1.0665043592453003,0.4845145046710968
1772650608851544300,4.47254443359375,-0.3302899389863014,-3.553271158003807,3.2725492597848174,0.8553348779678345,-0.8100690245628357,0.1024747267365455
1772650608861517300,4.482517333984375,0.4448427853614091,-2.7836767785608765,2.809972664812207,0.9610475897789,-0.5618361830711365,-0.1774991452693939
1772650608871489300,4.4924892578125,1.0883388420641422,-1.913613607674837,2.233520830465108,1.0295283794403076,-0.4162757992744446,-0.3300895094871521
1772650608881461500,4.50246142578125,1.7899235151201485,-1.0097007741570472,1.4604137667261063,1.0553889274597168,-0.3806014657020569,-0.3549742996692657
1772650608891433500,4.51243359375,2.606080908295512,-0.0249228443324565,0.535329404233396,1.027664065361023,-0.4033618867397308,-0.2884381711483001
1772650608901405700,4.52240576171875,3.499558272516728,0.9060022070124744,-0.2661936797160655,0.960876762866974,-0.4292689561843872,-0.1638991981744766
1772650608911378700,4.532378662109375,4.409180715852975,1.55852941917181,-0.808047444216907,0.8494378924369812,-0.4513585269451141,-0.0301286075264215
1772650608921350400,4.542350341796875,5.338633648818731,2.073477714155614,-1.1422159051369876,0.7145984768867493,-0.4572269320487976,0.0837588459253311
1772650608931323600,4.55232373046875,6.337972018915415,2.6241075633734465,-1.1876697885837406,0.5877755284309387,-0.4840897023677826,0.1391725689172744
1772650608941295600,4.562295654296875,7.326206226673722,3.1812592155754564,-1.022989952384308,0.4864655137062073,-0.5537101030349731,0.1163335666060447
1772650608951267600,4.572267578125,8.38169143140614,3.2821637680873272,-0.7170232113368809,0.3796365559101105,-0.6121494770050049,-0.0334455445408821
1772650608961240600,4.582240478515625,9.396545350542665,3.736434599268436,-0.7433006851486861,0.2578319609165191,-0.5252962708473206,-0.3035825192928314
1772650608971212500,4.592212646484375,9.980457583898303,4.050556662786007,-0.4942226831454783,0.1395274251699447,-0.3178179264068603,-0.6460482478141785
1772650608981185800,4.602185791015625,9.955240140533446,4.008304497990012,0.0925624022327363,0.0432106107473373,-0.0856416299939155,-0.9320624470710754
1772650608991157500,4.612157470703125,9.14878756429255,4.011768959230184,0.8403449089705943,-0.0106323836371302,0.0909270122647285,-1.0383020639419556
1772650609001130500,4.622130615234375,7.957720753681659,4.15955099825114,1.4226999760121106,-0.0388168692588806,0.1954336315393448,-0.9482977986335754
1772650609011102700,4.632102783203125,6.9561208683937785,4.2138814311146735,1.7554469527617096,-0.0596329346299171,0.2284994423389434,-0.7357959151268005
1772650609021074400,4.642074462890625,6.493660593277216,4.123388674762845,2.059657570856809,-0.0716709718108177,0.1917316615581512,-0.4759601354598999
1772650609031047700,4.652047607421875,6.432777377769351,3.961597107350826,2.285869587992132,-0.07858906686306,0.1204084753990173,-0.2221233397722244
1772650609041019600,4.66201953125,6.530912757828832,3.791950150263309,2.3857108951866626,-0.0882966294884681,0.0517522431910038,0.0040466887876391
1772650609050992400,4.671992431640625,6.676652185106277,3.671668404847383,2.400151216210425,-0.106474831700325,-0.0282355342060327,0.2043672800064087
1772650609060964600,4.681964599609375,6.763917211583256,3.5261356060579416,2.3345991321086883,-0.1334535926580429,-0.0686929896473884,0.3770801723003387
1772650609070937600,4.6919375,6.821469821363687,3.386037107276916,2.233387705604732,-0.1550302505493164,-0.064658299088478,0.5056828856468201
1772650609080909600,4.70190966796875,6.911404943832754,3.265153596575558,2.1435652497299014,-0.1791117042303085,0.0003270623274147,0.5748310685157776
1772650609090881500,4.711881591796875,7.018862863510846,3.061661945292353,1.9389624223344024,-0.2085271179676056,0.1376332640647888,0.5847057700157166
1772650609100854500,4.7218544921875,6.926162367981672,2.86633723385185,1.7350154284991324,-0.2172908633947372,0.2954303920269012,0.5949746966362
1772650609110826500,4.731826416015625,6.5469070302963255,2.67698195220977,1.6852466044627128,-0.2290197014808654,0.3692958354949951,0.6723554730415344
1772650609120799500,4.741799560546875,5.989553718042373,2.2638383734479546,1.4866779426649213,-0.2695114016532898,0.3490491807460785,0.826076865196228
1772650609130771700,4.751771728515625,5.454118807607889,1.8870666692718865,1.1326814763333648,-0.3418732285499573,0.2660741209983825,1.033968806266785
1772650609140743400,4.761743408203125,4.822836920312047,1.3918123780563474,0.9083964086726308,-0.404479056596756,0.1332390457391739,1.2792261838912964
1772650609150716400,4.77171630859375,4.010258554667234,0.6738274820804595,1.119078921307996,-0.4377709627151489,0.0141605865210294,1.4640504121780396
1772650609160688600,4.781688720703125,3.652396133622527,-0.0821551361173391,1.2335256038948892,-0.4366587698459625,-0.1029044985771179,1.5430264472961426
1772650609170661600,4.79166162109375,2.8162346478164197,-1.0845675068318843,1.5633333123221993,-0.3633280992507934,-0.2095638364553451,1.488758206367493
1772650609180633600,4.801633544921875,1.560659416937828,-2.578710086289048,2.067926217508316,-0.1707991659641266,-0.2538731694221496,1.2966015338897705
1772650609190605600,4.81160546875,-0.1646808591127395,-3.951027782541513,2.7392574988588687,0.1534127295017242,-0.156506136059761,0.9590668678283693
1772650609200578600,4.82157861328125,-2.2643162200927733,-5.444175505742431,2.80429754178524,0.4596346020698547,-0.0019652396440505,0.4913106262683868
1772650609210550500,4.831550537109375,-4.559012380880117,-7.016736957398057,1.426550513960421,0.6308796405792236,0.1255533099174499,-0.0632423460483551
1772650609220523500,4.8415234375,-7.212371173179149,-8.01467656661272,-0.9942163509078324,0.6866829991340637,0.2197587639093399,-0.646976888179779
1772650609230495500,4.85149560546875,-10.391394008004664,-8.492931207710503,-3.696747024263441,0.6001307964324951,0.3967276513576507,-1.1370456218719482
1772650609240468500,4.861468505859375,-14.369482815951107,-8.66549200641811,-6.232100491645932,0.4018120169639587,0.6917693018913269,-1.3359146118164062
1772650609250440700,4.871440673828125,-18.92080639589429,-8.322637184891104,-7.644470796823501,0.2018384635448455,1.108525276184082,-1.090869665145874
1772650609260412400,4.881412353515625,-23.013150528573988,-7.519952436751127,-7.396430101978779,0.0954604223370552,1.5023366212844849,-0.3624798953533172
1772650609270385400,4.891385498046875,-25.559970854127407,-6.657595602458715,-5.5697799074858425,0.1637894213199615,1.5880662202835083,0.77093106508255
1772650609280357600,4.901357666015625,-25.7815514120698,-5.94869856056273,-2.845643405391276,0.383847713470459,1.2630836963653564,2.016845464706421
1772650609290330600,4.91133056640625,-23.19483629850149,-5.514644295719266,-0.8169822266269475,0.6056552529335022,0.6100252270698547,2.9829468727111816
1772650609300302600,4.921302490234375,-18.444468986594675,-5.692841639009118,-0.2659660084400326,0.7419851422309875,-0.0590795390307903,3.468367576599121
1772650609310274600,4.931274658203125,-13.414026842200755,-6.195471427428722,-0.7309026836074888,0.7643865942955017,-0.5932465195655823,3.423016309738159
1772650609320247600,4.94124755859375,-8.841790238088368,-6.776637576946616,-1.6625336912646889,0.6909639835357666,-0.873387336730957,2.949253797531128
1772650609330219500,4.951219482421875,-5.402535335364938,-7.3322957757204765,-2.40436108899042,0.5878357291221619,-0.7955968976020813,2.1954174041748047
1772650609340192500,4.961192626953125,-3.1098586977064606,-7.487801394730805,-2.74336873356998,0.4844731390476227,-0.4181289672851562,1.3044692277908323
1772650609350164700,4.971164794921875,-1.5621306585341692,-7.004913248613477,-2.790136329963804,0.3853838145732879,0.0361066944897174,0.4533691108226776
1772650609360137500,4.981137451171875,-0.6659931351929903,-6.010855449268221,-2.745042219740152,0.2767551839351654,0.342171847820282,-0.185577854514122
1772650609370109400,4.991109375,-0.3265793940305709,-4.602918742623925,-2.63099235445112,0.1476650983095169,0.4802724719047546,-0.589142918586731
1772650609380081700,5.00108154296875,0.0623264000535011,-3.0440035390049216,-2.423950024949014,0.0025388412177562,0.4875628054141998,-0.8341305255889893
1772650609390054400,5.011054443359375,0.9128425744265316,-1.5020938307225704,-2.1967294152930377,-0.1360065340995788,0.3968419432640075,-0.9935896992683412
1772650609400026600,5.021026611328125,1.921211807718873,-0.0141501059055328,-1.7973485505543647,-0.2370224744081497,0.2603643238544464,-1.086321234703064
1772650609409999600,5.03099951171875,2.8066151710778477,1.3041846557468175,-1.0672723078336566,-0.2643470466136932,0.1144507676362991,-1.1255040168762207
1772650609419971600,5.0409716796875,3.586096153762937,2.383202711758017,-0.2066293647870421,-0.2342839986085891,-0.0174038596451282,-1.1275779008865356
1772650609429943600,5.050943603515625,4.26420525868535,3.2074118939638137,0.500917650739476,-0.1823206692934036,-0.1115497946739196,-1.0912669897079468
1772650609439916500,5.06091650390625,4.883060795128345,3.756764270591736,0.7686375901747494,-0.1602150499820709,-0.1123405694961547,-1.0558762550354004
1772650609449888500,5.070888427734375,5.557772074306011,4.171695901814103,0.5340780159328132,-0.1882474869489669,-0.0031509611289948,-1.0521957874298096
1772650609459861500,5.080861572265625,6.22369331330657,4.510949483978748,0.1993004832036793,-0.2674509286880493,0.1836560368537902,-1.0644726753234863
1772650609469833700,5.090833740234375,6.696393242886662,4.795096680471301,-0.0057017918381839,-0.3584423363208771,0.3645571172237396,-1.0511949062347412
1772650609479806700,5.100806640625,6.837820067662,5.174070863127708,0.2261777495395392,-0.4065254330635071,0.4557816684246063,-0.951975405216217
1772650609489778400,5.1107783203125,6.732636522656679,5.481362788364291,0.8223428768772632,-0.3891808092594147,0.4124467074871063,-0.7409684062004089
1772650609499750700,5.120750732421875,6.6588067318141455,5.7677288299500935,1.394950091560185,-0.334138959646225,0.2626645565032959,-0.4423409104347229
1772650609509723600,5.1307236328125,6.6872016361713404,5.949112986582517,1.736623740478605,-0.262220025062561,0.0176691729575395,-0.1088420450687408
1772650609519695600,5.140695556640625,6.982980233746766,6.013318039989471,1.7542624191522598,-0.2101862281560897,-0.2236668765544891,0.1705179512500763
1772650609529668600,5.150668701171875,7.454226457387208,6.047043783980608,1.40793992151469,-0.2018630504608154,-0.3979726433753967,0.3641438782215118
1772650609539640600,5.160640625,7.911319652512669,6.082398005956411,1.07971261414662,-0.1763218492269516,-0.3746291697025299,0.4232226610183716
1772650609549612500,5.170612548828125,8.385871347439288,6.156677878654003,1.1160076971691102,-0.1543092280626297,-0.2198398560285568,0.3657082319259643
1772650609559585500,5.18058544921875,8.867460101395844,6.013945231977105,0.9154366825729608,-0.1809481680393219,-0.0454788468778133,0.2477262020111084
1772650609569557800,5.190557861328125,9.230937439712882,5.84996463008821,0.5615494487695396,-0.2516447305679321,0.109564796090126,0.1001090481877327
1772650609579530500,5.200530517578125,9.4587677056998,5.805156351068615,0.307152005309239,-0.3437038064002991,0.2260584831237793,-0.0412022918462753
1772650609589502500,5.21050244140625,9.553182603931427,5.771246482682228,0.2681000613266602,-0.4301382899284363,0.2682045996189117,-0.1528366804122924
1772650609599474700,5.220474609375,9.534270982712506,5.713858123552799,0.2915636467615142,-0.5283641815185547,0.2469439804553985,-0.238535851240158
1772650609609447400,5.230447509765625,9.426214512619376,5.596217832556366,0.3776840332480147,-0.6077061295509338,0.1808754652738571,-0.288565456867218
1772650609619419600,5.240419677734375,9.2252120478034,5.5831777337193484,0.5523440692571923,-0.6555331349372864,0.1077538430690765,-0.3360560238361358
1772650609629392600,5.250392578125,9.121794927948711,5.547199826887249,0.7628162636101246,-0.6734961271286011,0.0490079671144485,-0.3929227590560913
1772650609639364600,5.260364501953125,8.800403750211,5.482020375490189,1.065470592173934,-0.6374191045761108,0.0398027338087558,-0.4314318299293518
1772650609649337600,5.270337646484375,8.13737823265195,5.435276744493842,1.4242463286712763,-0.5601426959037781,0.0734280720353126,-0.4246860444545746
1772650609659309600,5.2803095703125,7.321386843693256,5.175000837454199,1.4135292659543457,-0.495622307062149,0.1038362234830856,-0.3666187226772308
1772650609669281500,5.290281494140625,6.573891483333706,4.8782349824070925,1.1393196722388266,-0.429313063621521,0.1065350696444511,-0.2801189720630646
1772650609679254500,5.300254638671875,6.005446283701062,4.533009924617409,0.846975725287199,-0.3917822539806366,0.0936401113867759,-0.1862662732601165
1772650609689226800,5.310226806640625,5.395005524381995,3.60777957778275,0.6248712165359407,-0.412302166223526,0.020728088915348,-0.078931026160717
1772650609699199700,5.32019970703125,4.632978365322948,2.4754174695968625,0.5065943081364035,-0.4494609832763672,-0.1479258090257644,0.0337883569300174
1772650609709169700,5.330169677734375,3.759863990172744,1.7726877181589602,0.5989003609878942,-0.467931866645813,-0.3315347731113434,0.0770165175199508
1772650609719142700,5.340142578125,2.866349801072478,0.932211876285076,1.1397278146483003,-0.4206330180168152,-0.5292090773582458,-0.0033723674714565
1772650609729114600,5.350114501953125,1.9681009846657516,-0.2185387060284614,2.1170289788514376,-0.2857193946838379,-0.6666857004165649,-0.2676852345466614
1772650609739087600,5.360087646484375,1.0362526809960604,-1.250298167258501,2.60826702016294,-0.1243865713477134,-0.6775776743888855,-0.6976038813591003
1772650609749059600,5.3700595703125,-0.2805588166117668,-2.163434756195545,2.1530789280064404,0.005412702448666,-0.5351278781890869,-1.1937222480773926
1772650609759031600,5.380031494140625,-2.2566543071627616,-2.8765555532664058,1.0950301563963294,0.0643254369497299,-0.2540673315525055,-1.6208847761154177
1772650609769004500,5.390004638671875,-4.699858775418996,-3.201888162106276,-0.2386291983010247,0.0727985501289367,0.0884008109569549,-1.8903971910476685
1772650609778976800,5.399976806640625,-7.0826599206388,-3.3134827431976794,-1.3420555367186664,0.037718579173088,0.3957331478595733,-1.9795143604278564
1772650609788949500,5.409949462890625,-9.046968527284264,-3.276438668438792,-2.2634224861234427,-0.057581577450037,0.5765431523323059,-1.8927892446517944
1772650609798921500,5.41992138671875,-10.521010567998886,-3.3452740119948983,-3.097760263633728,-0.2195614725351333,0.6323067545890808,-1.659085392951965
1772650609808893700,5.429893798828125,-11.525452983236312,-3.4602211183846,-3.34487887519747,-0.4175843000411987,0.5263484120368958,-1.2659053802490234
1772650609818866400,5.439866455078125,-12.11394377655387,-3.612312252776325,-2.672864287757873,-0.554176926612854,0.2601687610149383,-0.7499943375587463
1772650609828838700,5.449838623046875,-12.082081488347052,-3.782916656719148,-1.0314336633417756,-0.5608049631118774,-0.1286530196666717,-0.2171775847673416
1772650609838811600,5.459811767578125,-11.24479129077196,-3.844324188362062,0.6776536162398755,-0.4443903863430023,-0.5323665738105774,0.1469252854585647
1772650609848783600,5.46978369140625,-9.357366017320752,-3.7548771416708826,1.582874171355367,-0.2714915573596954,-0.8107001781463623,0.2015105038881302
1772650609858756600,5.479756591796875,-7.110588961049914,-3.74387819327265,1.5057001846514642,-0.0974853336811065,-0.8361669778823853,-0.0533987618982791
1772650609868728600,5.489728515625,-5.395748451703787,-3.7611736114665866,0.6623612084314227,0.0293788742274045,-0.6285769939422607,-0.5130990147590637
1772650609878700500,5.499700439453125,-4.446151140853762,-3.714688339145481,-0.542485413467884,0.0796221420168876,-0.2918573915958404,-1.0499496459960938
1772650609888673800,5.509673828125,-4.097939760729671,-3.519561196103692,-1.6719659748680888,0.0803007185459137,0.0234273318201303,-1.4930695295333862
1772650609898645800,5.519645751953125,-4.441020792227984,-3.326388694261014,-2.384802840431034,0.0511182397603988,0.2864330112934112,-1.7174384593963623
1772650609908619000,5.529618896484375,-5.123310397705436,-3.11082169751972,-2.64029794293493,0.0100269988179206,0.4328831732273102,-1.6743056774139404
1772650609918590700,5.5395908203125,-5.554542006343603,-2.7151982856184245,-2.557286774510145,-0.0227877609431743,0.4363529682159424,-1.3974370956420898
1772650609928563000,5.54956298828125,-5.57935145342946,-2.2134408961191774,-2.3095520768746733,-0.0396373160183429,0.341520756483078,-0.9665257930755616
1772650609938536000,5.559535888671875,-5.221260484325885,-1.6911095051467415,-1.814043226376176,-0.0179451890289783,0.1853199899196624,-0.4448198080062866
1772650609948508000,5.5695078125,-4.469575855582952,-1.1219158252343535,-1.24939537319988,0.0323241055011749,-0.0138801932334899,0.0834432169795036
1772650609958481000,5.57948095703125,-3.205066792142391,-0.6227376385733485,-0.8348617283191532,0.0955705121159553,-0.2406426519155502,0.517428994178772
1772650609968452900,5.589452880859375,-1.554126215776801,-0.2892690695509314,-0.5526402757247909,0.1357616037130355,-0.4248771965503692,0.7997978329658508
1772650609978425900,5.59942578125,0.1930570587694644,-0.1708423043519258,-0.4917883686706423,0.1479788571596145,-0.5175818204879761,0.906167447566986
1772650609988397800,5.609397705078125,1.76548933108747,-0.057878480733931,-0.6064174951523542,0.1382196992635727,-0.5085265636444092,0.8345832824707031
1772650609998370000,5.6193701171875,3.1478701561927798,0.0105494510650634,-0.7233997606314718,0.1056720167398452,-0.3955875337123871,0.6202622056007385
1772650610008342800,5.6293427734375,4.114519724130631,0.0206882755026221,-0.6693559626895934,0.0667824074625969,-0.2333656102418899,0.320985198020935
1772650610018314800,5.639314697265625,4.671738596349955,0.0607689414784312,-0.4370023740593344,0.0466534234583377,-0.0558644235134124,0.0071966703981161
1772650610028288000,5.6492880859375,4.7191281240344045,0.218586052301526,0.00206593782017,0.061216652393341,0.0774970948696136,-0.2553518414497375
1772650610038259700,5.659259765625,4.27655153003931,0.3907508374288678,0.4461676042243838,0.0850936099886894,0.140563279390335,-0.4165585935115814
1772650610048233700,5.669233642578125,3.61924906630218,0.5314814966335892,0.7549079016383737,0.113960675895214,0.1466773599386215,-0.4921692013740539
1772650610058206000,5.6792060546875,3.103515466159582,0.6912590938746929,0.9336055226005612,0.1334234476089477,0.1190996617078781,-0.525030255317688
1772650610068179000,5.689178955078125,2.73618788215518,0.7656114472866058,0.9683229079775512,0.1393524408340454,0.0701619386672973,-0.5323523283004761
1772650610078150700,5.699150634765625,2.3111335008472205,0.7924564918532967,0.9771407860096544,0.1487680524587631,0.0244812723249197,-0.5088818669319153
1772650610088124000,5.7091240234375,1.8935487247675653,0.7973039318844676,0.9983109267450868,0.1505185514688491,-0.005767976399511,-0.455860435962677
1772650610098095900,5.719095947265625,1.5278794293642044,0.8052902544632553,0.9653956223540008,0.1535751670598983,-0.0255141220986843,-0.3871572911739349
1772650610108068600,5.729068603515625,1.2900222748816013,0.8047603853702545,0.810826261280477,0.1365607678890228,-0.0152883827686309,-0.3375058472156524
1772650610118040800,5.739040771484375,1.1948784778535366,0.676840400160849,0.604912278221175,0.1002320498228073,0.046212438493967,-0.3152136206626892
1772650610128012800,5.7490126953125,1.202869476607442,0.4903364162966608,0.4514500746719539,0.0554230324923992,0.1318197548389434,-0.3284026682376861
1772650610137985800,5.75898583984375,1.343954940599203,0.3640829029947519,0.3813846047990024,0.0023091421462595,0.1729001402854919,-0.3944631516933441
1772650610147957800,5.768957763671875,1.710046260806918,0.2584866855353117,0.3671723934426903,-0.045614443719387,0.1774256527423858,-0.4975642561912536
1772650610157930800,5.7789306640625,1.881114775130153,0.1405167241930961,0.3468727153988555,-0.0927619338035583,0.1399756669998169,-0.6086814403533936
1772650610167902700,5.78890283203125,1.7186895859897136,0.0370005278781056,0.2964956780699082,-0.1450568288564682,0.1120449677109718,-0.7041083574295044
1772650610177874700,5.798874755859375,1.3011778751462697,-0.0184688458874821,0.3090791009142994,-0.1765031516551971,0.1043869704008102,-0.7702730298042297
1772650610187848000,5.808847900390625,0.7716291001409292,-0.0610413286790251,0.3673411010731011,-0.1864958554506302,0.1113958731293678,-0.7845044136047363
1772650610197819600,5.818819580078125,0.2821726815491914,-0.0802756059810519,0.3952923167834058,-0.1758759617805481,0.1004707962274551,-0.7529755234718323
1772650610207792600,5.828792724609375,-0.0871668267995119,-0.0930029856070876,0.3339064489830285,-0.1676635593175888,0.0921556055545806,-0.6946418881416321
1772650610217764900,5.838764892578125,-0.3351736193746328,-0.2141170901939272,0.1618267117906361,-0.1682110875844955,0.0996572151780128,-0.6161305904388428
1772650610227736800,5.84873681640625,-0.5210562564700841,-0.3230494663387537,-0.0787028037063777,-0.1831311732530594,0.1422313004732132,-0.5342487692832947
1772650610237709800,5.858709716796875,-0.5659077901095152,-0.4884250297173857,-0.2543254376700148,-0.2030955553054809,0.2250111401081085,-0.4694950580596924
1772650610247681800,5.868681884765625,-0.4312450526416301,-0.6807230868130922,-0.318342092365399,-0.2254730314016342,0.3199725449085235,-0.435303270816803
1772650610257654800,5.87865478515625,-0.0492477227717638,-0.8859747335061431,-0.3329341698847711,-0.2506706714630127,0.3832370340824127,-0.4319716393947601
1772650610267626800,5.888626708984375,0.4338204560875892,-1.0710089370787144,-0.2806231870848685,-0.2809928953647613,0.3840064406394958,-0.4378375113010406
1772650610277599700,5.898599853515625,0.7960276283383368,-1.2362594127729534,-0.2707985248967073,-0.3227617442607879,0.3568778336048126,-0.4224663078784942
1772650610287572000,5.908572021484375,0.9285983619630336,-1.3552417660281062,-0.2579737310444936,-0.3600614666938782,0.297750324010849,-0.3691719174385071
1772650610297543700,5.918543701171875,1.043653312641382,-1.4302221882104873,-0.1642425042280927,-0.3960499167442322,0.2230439186096191,-0.2915892601013183
1772650610307517000,5.928516845703125,1.1807552599549294,-1.4941910947740078,0.0387733645032159,-0.4103100597858429,0.1405999064445495,-0.2034194469451904
1772650610317489000,5.938489013671875,1.345464176118374,-1.5163035578608512,0.2344325137961655,-0.4045188724994659,0.066015139222145,-0.1075136587023735
1772650610327461600,5.948461669921875,1.5289794995605943,-1.4411714522480965,0.3827176069684326,-0.3711127042770386,0.0083121564239263,-0.0153320673853158
1772650610337433900,5.958433837890625,1.7715128291606903,-1.320941144758463,0.4990967189226299,-0.324869155883789,-0.027049608528614,0.0646357163786888
1772650610347405800,5.96840576171875,1.9479379020810128,-1.2235413854971526,0.454962612837553,-0.269732654094696,-0.0411497168242931,0.1536609232425689
1772650610357378800,5.97837890625,2.0266250698268413,-1.1009499018341302,0.1926672922668978,-0.2363006174564361,-0.0519500523805618,0.2546743750572204
1772650610367350800,5.988350830078125,2.0381109249591827,-0.9494400744616984,-0.1780672871693968,-0.2213245928287506,-0.086118683218956,0.3728630840778351
1772650610377323800,5.99832373046875,2.0202327384412286,-0.7708136921048164,-0.4850905515324324,-0.2093822658061981,-0.1294083893299102,0.5051422715187073
1772650610387295700,6.008295654296875,1.9192793783515687,-0.5935340481817722,-0.5962444031190127,-0.1827261447906494,-0.1980473697185516,0.6504738926887512
1772650610397268700,6.018268798828125,1.8371154744058849,-0.4223077129483222,-0.5983340688746422,-0.1458633244037628,-0.2853801846504211,0.772653341293335
1772650610407241000,6.028240966796875,1.7274948237359522,-0.2751730319201946,-0.5140216085929423,-0.0782781541347503,-0.3393842875957489,0.8729913830757141
1772650610417212700,6.038212646484375,1.3885948773145675,-0.153747377166152,-0.4209520605556666,-0.0023579720873385,-0.3279339075088501,0.9788041114807128
1772650610427185700,6.048185546875,0.762682992619276,-0.117256552375853,-0.407829617197439,0.0586947314441204,-0.289302110671997,1.140030026435852
1772650610437158000,6.058157958984375,0.0375935253351926,-0.1312429921522736,-0.4426939002318307,0.0943232104182243,-0.2759134471416473,1.3154857158660889
1772650610447131000,6.068130859375,-0.5980021335065364,-0.1299491529494524,-0.389538977421075,0.1420870125293731,-0.241793543100357,1.4772149324417114
1772650610457102800,6.078102783203125,-1.2839549376666546,0.0456131656616926,-0.4483812982184812,0.1826325058937072,-0.1615942418575287,1.6089931726455688
1772650610467074800,6.08807470703125,-2.004747584539652,0.1119020396053791,-0.6427167428933084,0.2027372419834137,-0.0527961254119873,1.7038257122039795
1772650610477047800,6.0980478515625,-2.6790111199498177,0.0014072364494204,-0.6377922921031713,0.2095931321382522,0.0106107592582702,1.7138818502426147
1772650610487019800,6.108019775390625,-3.229157277303934,-0.3964300521090626,-0.2537171878448687,0.2046356499195099,0.0137173365801572,1.5814363956451416
1772650610496992800,6.11799267578125,-3.711260410523415,-1.052653780698776,0.3420899381017312,0.211678996682167,-0.0854783728718757,1.257588028907776
1772650610506965000,6.127965087890625,-4.423040314379334,-1.8401698935404416,1.0340290866624564,0.2463216781616211,-0.2146659195423126,0.782662034034729
1772650610516936700,6.137936767578125,-6.007002280971408,-2.488115623128414,1.7674182533234355,0.3341587483882904,-0.2577425837516784,0.296128362417221
1772650610526910000,6.147909912109375,-8.514806939432024,-2.7789883284837007,2.295147119425237,0.4968674778938293,-0.1804469972848892,-0.059533342719078
1772650610536882000,6.1578818359375,-11.509949124634264,-2.712921572858095,2.311647733979672,0.694100022315979,0.0454598665237426,-0.1913518458604812
1772650610546854700,6.167854736328125,-14.215532609689236,-2.4943662079557773,1.7648529328800735,0.8588809967041016,0.3425386846065521,-0.0873836278915405
1772650610556827000,6.177826904296875,-15.995604008358717,-2.509657885111868,1.08031847108528,0.9729924201965332,0.570791482925415,0.1869866847991943
1772650610566800000,6.1877998046875,-16.48502886276841,-2.627662333245575,0.4642453319024294,1.0095123052597046,0.6177637577056885,0.5166987776756287
1772650610576771800,6.197771728515625,-15.595240416193008,-3.058559595362842,0.0154322546705603,0.962448000907898,0.5145038962364197,0.7871297597885132
1772650610586743800,6.207743896484375,-13.905469466173647,-3.681096158406138,-0.2157411111991852,0.8628686666488647,0.3448757529258728,0.9651649594306946
1772650610596716800,6.217716796875,-11.968663198959828,-4.083778841169178,-0.2883548955817707,0.7266034483909607,0.1171554625034332,1.0756925344467163
1772650610606688800,6.227688720703125,-9.846011704051492,-4.251173343154788,-0.0928191352064721,0.6390767693519592,-0.1292937397956848,1.1064536571502686
1772650610616661800,6.237661865234375,-7.766597877845168,-4.071782698427141,0.3320356866750866,0.6245712041854858,-0.3457924425601959,1.0701329708099363
1772650610626634000,6.247634033203125,-5.930833233526348,-3.809469732601941,0.532388382345438,0.659972071647644,-0.4635939002037048,0.9682974219322203
1772650610636605700,6.257605712890625,-4.49843311675489,-3.272783068540692,0.1197621054559946,0.7144849896430969,-0.4280064702033996,0.8501486778259277
1772650610646578700,6.26757861328125,-3.576788811713457,-2.4228993468523026,-0.6428434380128979,0.771115779876709,-0.2552823424339294,0.7845515608787537
1772650610656551000,6.277551025390625,-2.9688018752872942,-1.43075761026144,-1.464927444758266,0.8235598206520081,0.0081495288759469,0.8160029053688049
1772650610666524000,6.28752392578125,-2.3877234040528537,-0.3203746941715478,-2.2129285626828668,0.8619458079338074,0.2756437957286834,0.9611287117004396
1772650610676496000,6.297495849609375,-1.647460333034396,0.6333101782530546,-2.7159549492046238,0.8758864402770996,0.4789822101593017,1.2217456102371216
1772650610686468900,6.30746875,-0.649296267414093,1.4937679009258746,-3.001354191584885,0.8591844439506531,0.5644147992134094,1.5751564502716064
1772650610696440800,6.31744091796875,0.5542459938883781,2.340678159761429,-3.223899502906203,0.8055716156959534,0.5357452630996704,1.9819945096969604
1772650610706412800,6.327412841796875,1.913843324777484,3.154032185953856,-3.2484681269735094,0.71869295835495,0.4278347492218017,2.395517110824585
1772650610716385800,6.3373857421875,3.310956439590454,3.846315362179279,-3.0769229350492355,0.5984846353530884,0.2656752467155456,2.789825677871704
1772650610726358000,6.34735791015625,4.614088371413946,4.316013771855831,-2.686380479674041,0.4663676023483276,0.0671198219060897,3.1242597103118896
1772650610736330800,6.357330810546875,5.850581300681829,4.725584168305993,-2.2284069945827123,0.3244092166423797,-0.0933482125401496,3.3486645221710205
1772650610746302700,6.367302734375,7.023451360344886,5.234073204147816,-1.762126576656103,0.1873975694179535,-0.1545393913984298,3.423537015914917
1772650610756275000,6.37727490234375,8.14983322507739,5.743935281908512,-1.3667695606060326,0.072182260453701,-0.0859733968973159,3.323330879211426
1772650610766247700,6.38724755859375,9.106909493505954,6.157632402899861,-0.990235172317177,-0.048269048333168,0.1338534951210022,3.051332712173462
1772650610776220000,6.397219970703125,9.90510219092369,6.3566726277321575,-0.925743483988568,-0.1718910187482834,0.487743079662323,2.6801304817199707
1772650610786193000,6.40719287109375,10.325447079366445,6.181380358234048,-0.1787416792996227,-0.2138168960809707,0.7657598257064819,2.2733194828033447
1772650610796164900,6.417164794921875,10.475884309071304,6.135615216881036,0.7157699964053928,-0.2068826556205749,0.9410800933837892,1.916050672531128
1772650610806136800,6.42713671875,10.294742144501209,6.258295255610347,1.3040828028075395,-0.1789801716804504,0.9884784817695618,1.649304986000061
1772650610816109800,6.43710986328125,9.909958398783209,6.360634517100453,1.636848338127136,-0.137258693575859,0.9585260152816772,1.4722838401794434
1772650610826081800,6.447081787109375,9.318544996017216,6.481572096076607,1.685584165854007,-0.0912414044141769,0.8852049112319946,1.3891271352767944
1772650610836054800,6.4570546875,8.69258810313642,6.747035634887218,1.5168547620028257,-0.0818739160895347,0.7153682112693787,1.3977878093719482
1772650610846027000,6.467027099609375,8.208406410077213,6.977998938202858,1.1931037232659756,-0.1157623678445816,0.4704583287239074,1.4676374197006226
1772650610855998700,6.476998779296875,7.883403471583128,7.087027468198538,0.7819708267394453,-0.1871566176414489,0.2172392010688781,1.5377243757247925
1772650610865971700,6.4869716796875,7.8285431696265935,7.181450549736619,0.4192914338670671,-0.2839119136333465,-0.0205765478312969,1.5514353513717651
1772650610875944000,6.49694384765625,7.959948366603255,7.185838555562496,0.2378424683701246,-0.391140729188919,-0.1937746256589889,1.4894700050354004
1772650610885917400,6.50691748046875,8.084878230085968,7.118554240840673,0.1671826858658343,-0.4925738871097564,-0.2993149161338806,1.3341294527053833
1772650610895889400,6.516889404296875,8.08476366379559,7.098771097484231,0.1482714756388682,-0.5748652815818787,-0.3535735309123993,1.1131908893585205
1772650610905862400,6.5268623046875,7.911640555030107,7.062372919413447,0.2176986750077456,-0.6369577050209045,-0.3521785736083984,0.8319845795631409
1772650610915834400,6.53683447265625,7.496842779320478,6.82666739000678,0.3284676189299673,-0.6994291543960571,-0.280706912279129,0.5193328857421875
1772650610925806300,6.546806396484375,6.9308829667627805,6.141628778082132,0.6057913626106456,-0.7712282538414001,-0.2012256681919098,0.1941162049770355
1772650610935779300,6.556779296875,6.276778422284126,5.215338108539581,1.051511040404439,-0.8349148631095886,-0.121936984360218,-0.1282892376184463
1772650610945751600,6.56675146484375,5.551669665777683,4.443942817154526,1.6921414785429834,-0.8876023292541504,-0.0750616267323494,-0.4158086478710174
1772650610955724300,6.576724365234375,4.664094803598523,3.370747768208384,2.8013132652774453,-0.8794740438461304,-0.1060050353407859,-0.6573594808578491
1772650610965696300,6.5866962890625,3.598524842703342,2.068002205353975,4.295390086022019,-0.7536655068397522,-0.2119722217321396,-0.867240309715271
1772650610975668500,6.59666845703125,2.458622986662388,1.0981611478984354,5.744929553642868,-0.4984328150749206,-0.359472244977951,-1.09095299243927
1772650610985641200,6.60664111328125,1.6141723959386347,0.3218734082967043,6.360484879496693,-0.2525082528591156,-0.5650988817214966,-1.4655625820159912
1772650610995613400,6.616613525390625,1.6690531561613082,-0.408691860049963,5.232525390183925,-0.1258215904235839,-0.6530190110206604,-1.9998000860214236
1772650611005586400,6.62658642578125,1.2199275789141657,-0.6443062040418386,3.4327819073170422,-0.1386055648326873,-0.5386905670166016,-2.586639881134033
1772650611015558100,6.63655810546875,0.054174657779932,-0.7784943097352981,1.345589409933239,-0.2794885337352752,-0.2997739613056183,-3.1381947994232178
1772650611025531400,6.646531494140625,-1.5467261686533689,-0.6562199291974306,-0.678708385989815,-0.5431260466575623,0.0838530585169792,-3.555917739868164
1772650611035503400,6.65650341796875,-3.4122067368000746,-0.6401490843623876,-1.812978958145529,-0.8510558009147644,0.5664013624191284,-3.7496590614318848
1772650611045475300,6.666475341796875,-5.164769366297126,-0.895331467655301,-1.479423733752966,-1.0721468925476074,0.9280762076377868,-3.694205284118652
1772650611055448300,6.6764482421875,-6.008939386513829,-1.092525772359967,0.2416553777217865,-1.1043559312820437,0.935288429260254,-3.5132713317871094
1772650611065420300,6.686420166015625,-5.816210829046368,-0.7128244444727897,2.2925614868462083,-0.9364457130432128,0.5717483162879944,-3.289113998413086
1772650611075393500,6.6963935546875,-5.319819642755389,0.1023825161099433,3.7355163153797375,-0.5874646902084351,-0.0332794040441513,-3.062310218811035
1772650611085365200,6.706365234375,-4.856181556031108,0.610278262233734,4.247445262542366,-0.1554224640130996,-0.6774706244468689,-2.9140422344207764
1772650611095337500,6.71633740234375,-4.399038092023134,0.7614104884654284,3.609637772870064,0.2556245326995849,-1.1197515726089478,-2.9066319465637207
1772650611105310200,6.726310302734375,-4.251103785049915,0.7944745536774397,2.1682304660394784,0.6167502403259277,-1.2233307361602783,-2.9757325649261475
1772650611115282200,6.7362822265625,-4.629495199382305,0.5965542727857828,0.9125326316945256,0.8595530390739441,-1.1001081466674805,-3.086385488510132
1772650611125255400,6.74625537109375,-4.834086044079065,0.3985065661221742,-1.124480268894881,0.9120433926582336,-0.7710542678833008,-3.197054624557495
1772650611135227100,6.75622705078125,-5.035443898203969,0.3409557099074125,-3.0574735536918043,0.8313812017440796,-0.3091160655021667,-3.25488805770874
1772650611145199400,6.766199462890625,-5.149846522453427,0.112344230414927,-3.9650226978853342,0.7182373404502869,0.1388899683952331,-3.2367806434631348
1772650611155172400,6.77617236328125,-4.989377143555879,-0.2006479522898793,-3.8839734771832815,0.6359784007072449,0.4573840498924255,-3.129812479019165
1772650611165144300,6.786144287109375,-4.544481166702509,-0.4174564735248685,-3.1089690553903577,0.6166603565216064,0.5806939601898193,-2.941354513168335
1772650611175117300,6.796117431640625,-3.921155206847191,-0.6832292244151235,-2.0833966122321783,0.6432760953903198,0.5184624195098877,-2.6672728061676025
1772650611185089300,6.80608935546875,-3.283373436138034,-0.946964039736986,-1.141643585141748,0.7256937623023987,0.3173791468143463,-2.347550868988037
1772650611195062300,6.816062255859375,-2.6079858651340007,-0.9633154550790786,-0.5100095234073698,0.8159922957420349,0.0690487697720527,-2.0060760974884038
1772650611205034200,6.8260341796875,-2.0760715300410983,-0.9152607414841653,-0.4086463404078036,0.9038166403770448,-0.1769929677248001,-1.6606346368789673
1772650611215006500,6.83600634765625,-1.7591040139645338,-0.9962216993808746,-0.3777580848649144,0.9987596869468688,-0.3623512685298919,-1.3474223613739014
1772650611224979500,6.8459794921875,-1.280897303661704,-1.065050320935249,-0.4377222858317196,1.072543978691101,-0.4916911423206329,-1.0870411396026611
1772650611234951200,6.855951171875,-0.7829752545416354,-1.0748223578870295,-0.7090304590173065,1.096835017204285,-0.5312818288803101,-0.8984799981117249
1772650611244924400,6.86592431640625,-0.3495610411673784,-1.2276897373482585,-1.0455630187202245,1.0746641159057615,-0.484550267457962,-0.7968132495880127
1772650611254896400,6.875896484375,0.0081751231491565,-1.344297762687504,-1.3781938948094845,1.0094941854476929,-0.3757087290287018,-0.7521163821220398
1772650611264868400,6.885868408203125,0.2047632786542177,-1.384714528749883,-1.3985945855423807,0.9407128095626832,-0.2730723917484283,-0.7396136522293091
1772650611274841300,6.89584130859375,0.3075005995512008,-1.4827815197482703,-1.132728311149776,0.8593583106994629,-0.2033290714025497,-0.7451780438423157
1772650611284813300,6.905813232421875,0.1270557695955038,-1.426444423237443,-0.9094165455006062,0.7874753475189209,-0.1807113736867904,-0.7024745345115662
1772650611294786300,6.915786376953125,-0.3190565973103046,-1.2460276503324508,-0.603787292779237,0.7354931831359863,-0.218461200594902,-0.6111683249473572
1772650611304758300,6.92575830078125,-0.6607564035832881,-0.961162660959363,-0.1975068229862488,0.7177450656890869,-0.2850362360477447,-0.5060975551605225
1772650611314730500,6.93573046875,-0.8043290082156658,-0.7860881258651614,0.3648613765539601,0.7297362685203552,-0.36800417304039,-0.4107797741889953
1772650611324703200,6.945703125,-0.9208739051908256,-0.7155372105628252,0.8398122633986175,0.7678530216217041,-0.4357877373695373,-0.3317435681819916
1772650611334675200,6.95567529296875,-1.0523884077608583,-0.6735691234052181,1.1021674609303471,0.8086528778076172,-0.4813361465930938,-0.2779101729393005
1772650611344648400,6.9656484375,-1.15956751049757,-0.6189059514559805,1.0975191967330873,0.8453437685966492,-0.4979071319103241,-0.2453431785106659
1772650611354620200,6.9756201171875,-1.321140466722846,-0.5461635174587368,0.933746465441212,0.8636607527732849,-0.4828246533870697,-0.2283673882484436
1772650611364593200,6.98559326171875,-1.5002362201571464,-0.5235217698007821,0.632357261442393,0.8690126538276672,-0.4255222082138061,-0.2206348925828933
1772650611374565400,6.9955654296875,-1.7435037092506884,-0.448950659071654,0.1928850632034242,0.8343151807785034,-0.3179129064083099,-0.2248666733503341
1772650611384537300,7.005537353515625,-2.0178701009631155,-0.4520753669634461,-0.4933016227778047,0.7277413606643677,-0.2014686018228531,-0.2102017104625702
1772650611394510300,7.01551025390625,-2.1904145330578086,-0.566832065347582,-1.1639976018995046,0.5581902265548706,-0.0987648367881774,-0.1551418900489807
1772650611404482300,7.025482421875,-2.1383944229632617,-0.7112190551027655,-1.5194772194609043,0.3615645170211792,-0.0516963936388492,-0.0800117254257202
1772650611414455300,7.035455322265625,-1.7352058365046976,-0.8273520102761686,-1.5456100241050124,0.1650436967611313,-0.0776642709970474,-0.0002543145383242
1772650611424427300,7.04542724609375,-1.240094753152132,-0.8424627779074013,-1.29142337385118,0.0064974529668688,-0.1580131649971008,0.0972013995051384
1772650611434399500,7.0553994140625,-0.8892343198239803,-0.7965456608630717,-0.8016901841446756,-0.1081653013825416,-0.2429713308811187,0.2158619910478592
1772650611444372500,7.06537255859375,-0.5756558616638183,-0.7681938649952411,-0.3201183082576841,-0.1680653989315033,-0.3308835923671722,0.3328083157539367
1772650611454344200,7.07534423828125,-0.1103922195643186,-0.7803425679504871,0.2536587539222091,-0.1840289235115051,-0.440596342086792,0.4183192551136017
1772650611464317400,7.0853173828125,0.599659253063798,-0.8462266604855656,0.637833062504977,-0.1918804496526718,-0.6043528318405151,0.4558157622814178
1772650611474289400,7.095289306640625,1.4785399366557597,-0.9389531672388316,0.6370361399736255,-0.2548071146011352,-0.8035943508148193,0.4260935485363006
1772650611484261400,7.105261474609375,2.414391630747914,-1.201500526341796,0.2630477829057723,-0.4094446301460266,-1.06441068649292,0.2991584837436676
1772650611494234400,7.115234375,3.353332523027062,-1.5976923857808112,-0.2836668656297028,-0.6479607224464417,-1.3212405443191528,0.1072598621249198
1772650611504206300,7.125206298828125,3.870389480727911,-1.8245906316146252,-0.6609301527149974,-0.9312493801116944,-1.5170836448669434,-0.1278711706399917
1772650611514179300,7.135179443359375,3.924800285351276,-1.8946534711390728,-0.7132831480257212,-1.2162727117538452,-1.624755620956421,-0.3874585032463074
1772650611524151300,7.1451513671875,3.7893455207228657,-1.9240695352375503,-0.459785502949357,-1.4765924215316772,-1.6826140880584717,-0.6697757244110107
1772650611534124300,7.155124267578125,3.74627444075942,-1.7632007817588746,0.112811409535259,-1.677749752998352,-1.7563029527664185,-0.9634549617767334
1772650611544096300,7.16509619140625,3.819637783133983,-1.4585731072954833,0.8421521045230329,-1.7325536012649536,-1.7374835014343262,-1.2321791648864746
1772650611554068200,7.175068115234375,3.599455986073613,-1.17180155364871,1.5731673085942863,-1.6702202558517456,-1.6255954504013062,-1.410120129585266
1772650611564041500,7.18504150390625,3.081789956563711,-0.8831874408751725,1.9562889663189649,-1.5198527574539185,-1.4267476797103882,-1.4876258373260498
1772650611574013200,7.19501318359375,2.5811767686635254,-0.5169384458877146,1.9966618932396167,-1.332074761390686,-1.138864517211914,-1.4198176860809326
1772650611583986200,7.204986083984375,1.97282275249064,-0.4153662232473492,1.779005230742693,-1.1418952941894531,-0.8359819650650024,-1.191068410873413
1772650611593958400,7.21495849609375,1.51539228823483,-0.5489205610819161,1.4404938452474771,-0.9969852566719056,-0.540596604347229,-0.8167020082473755
1772650611603930000,7.22493017578125,1.2799082926243543,-0.7433639596432448,1.0763808393754064,-0.9150165915489196,-0.2496837526559829,-0.3403778076171875
1772650611613903400,7.2349033203125,1.1486615010797976,-0.8604026314847171,0.7901083212919533,-0.8725394606590271,0.0262674819678068,0.1844675689935684
1772650611623875300,7.244875244140625,1.447459154215455,-0.79101447635144,0.7690237399481237,-0.8393087983131409,0.219412699341774,0.6670336723327637
1772650611633848300,7.254848388671875,2.338276359316706,-0.6869957373417913,0.8827572327643632,-0.8115019202232361,0.2358957380056381,1.032008409500122
1772650611643820300,7.2648203125,3.5005928762614724,-0.7877503599889576,0.865896114334464,-0.822276771068573,0.0533456318080425,1.2255475521087646
1772650611653792300,7.274792236328125,4.349453100121021,-1.1365586830928922,0.671296648428589,-0.8537343740463257,-0.1895429193973541,1.1904140710830688
1772650611663765500,7.284765625,4.359201171675324,-1.5074353378809988,0.4347542298063636,-0.8118135333061218,-0.2869386970996856,0.9171327352523804
1772650611673737200,7.2947373046875,3.425991516524553,-1.856596712206304,0.0860842922598123,-0.6478852033615112,-0.1343179941177368,0.4737683534622192
1772650611683710500,7.30471044921875,1.7022124984413385,-2.301860791719705,-0.6055569328002631,-0.4096380770206451,0.2669008076190948,-0.0425802357494831
1772650611693682400,7.314682373046875,-0.4285106592416763,-2.590642808406055,-1.3658862019002436,-0.1482070088386535,0.7595884799957275,-0.4890099167823791
1772650611703654400,7.324654296875,-2.6747733362495896,-2.48857096568048,-1.463757378065586,0.1343975216150283,1.1803767681121826,-0.810092568397522
1772650611713627400,7.33462744140625,-4.955816234737634,-2.130953020916134,-0.9989484939962624,0.3755522966384887,1.492847919464111,-0.9307093024253844
1772650611723599400,7.344599365234375,-7.398390003874898,-1.8643897041700777,-0.1854832625143229,0.4962976276874542,1.927422046661377,-0.6862196326255798
1772650611733572400,7.354572265625,-10.464635769826174,-2.066525703060627,0.6411399950958788,0.4888269901275635,2.355424404144287,0.0311251524835824
1772650611743544300,7.36454443359375,-13.589839336180686,-2.491603757505118,1.0386698251403867,0.3635393679141998,2.267354965209961,0.9803098440170288
1772650611753516500,7.3745166015625,-15.6677632160902,-3.055750383161008,1.4952578472226856,0.2306786626577377,1.680615782737732,1.7426851987838743
1772650611763489300,7.3844892578125,-15.71782167072296,-3.526608192005753,1.6614232458047569,0.1621448844671249,1.1136143207550049,1.9810943603515625
1772650611773461200,7.394461181640625,-14.49691443312168,-3.577959024536609,1.4068807678505777,0.1666931062936782,0.8885213136672974,1.6976360082626345
1772650611783434500,7.4044345703125,-13.98088915655613,-3.4028187307298183,0.7265252722408622,0.2035581767559051,0.9616810083389282,1.1607650518417358
1772650611793406200,7.41440625,-14.830739560496806,-3.0814509338676928,-0.0860336580511182,0.2665286660194397,1.1389185190200806,0.7484624981880188
1772650611803379200,7.424379150390625,-16.604957556962965,-2.589525494813919,-0.7619445222768932,0.372418612241745,1.30384361743927,0.608497142791748
1772650611813351400,7.434351318359375,-18.17807079728245,-1.9792755818918344,-1.4544012284383177,0.4781146943569183,1.422045111656189,0.7278181910514832
1772650611823323100,7.4443232421875,-18.63818421701193,-1.4845546669006346,-2.2839058867037294,0.5032134056091309,1.4497365951538086,1.0095854997634888
1772650611833296400,7.45429638671875,-17.872357665669917,-1.401398829308152,-3.274488703414798,0.4260498881340027,1.353242039680481,1.3360586166381836
1772650611843268400,7.464268310546875,-15.954076066184044,-1.429666307893395,-3.8926112494081258,0.2896182835102081,1.140235185623169,1.643731713294983
1772650611853241000,7.474240966796875,-13.359004627680775,-1.4511018946319818,-4.06562943649441,0.1151467114686966,0.8832589387893677,1.8779685497283936
1772650611863213300,7.48421337890625,-10.503199016976357,-1.4466262105226515,-4.048280826808512,-0.0916338860988617,0.6231807470321655,1.9846835136413572
1772650611873185300,7.494185302734375,-7.384421684277057,-1.173821661299467,-3.797923963975906,-0.2511553466320038,0.4371863901615143,1.8834383487701416
1772650611883158300,7.504158203125,-4.232173459130525,-0.6833864608034491,-3.2158772322311995,-0.3379051387310028,0.3708997964859009,1.5956542491912842
1772650611893129700,7.514129638671875,-1.5792226631104944,-0.2614195241168141,-2.589298408059776,-0.3719252943992615,0.4847686886787414,1.16821551322937
1772650611903103000,7.52410302734375,0.3467430611371994,0.2217176283255219,-2.111079130536318,-0.3506285548210144,0.7719365358352661,0.696441113948822
1772650611913074700,7.53407470703125,1.564064841467142,0.808791540582478,-1.613702148078382,-0.2556661367416382,1.1400469541549685,0.2960726618766784
1772650611923047000,7.544046875,2.075227480432391,1.5660402331933378,-1.0709298804931342,-0.0915379151701927,1.4497910737991333,0.0825499892234802
1772650611933020000,7.55402001953125,2.18032217811048,2.119393077634274,-0.6294518953897058,0.097330555319786,1.5204647779464722,0.1052246913313865
1772650611942991600,7.56399169921875,2.3293933801591398,2.484892861689627,-0.7186367840133607,0.2321682572364807,1.3727893829345703,0.3672664165496826
1772650611952964900,7.57396484375,2.510209966036677,2.7806372647345063,-1.4529603819802404,0.2653931081295013,1.1053264141082764,0.8121711611747742
1772650611962936800,7.583936767578125,2.893866753551364,3.1166473349332806,-2.4534213263660667,0.213212713599205,0.834722101688385,1.347761154174805
1772650611972908800,7.59390869140625,3.585121171250939,3.4522014780580994,-3.367788333880901,0.0744227766990661,0.5762871503829956,1.895416259765625
1772650611982881800,7.6038818359375,4.573728303974867,3.797873402832448,-3.9537703592479225,-0.0948376208543777,0.3499495983123779,2.3875229358673096
1772650611992853800,7.613853759765625,5.576915750715136,4.387545807150006,-3.6527915626809,-0.2175602465867996,0.2732707560062408,2.861858367919922
1772650612002827000,7.623826904296875,6.240619898188114,3.959895564129949,-3.062357234080136,-0.3952700495719909,0.0628021731972694,3.196577787399292
1772650612012798700,7.633798828125,7.358874570566416,5.083870952242613,-3.468055465272069,-0.5597661733627319,0.0037315278314054,3.4169671535491943
1772650612022771700,7.643771728515625,8.389885259255767,5.828403371143341,-2.7227999927937985,-0.5977396368980408,0.0091337505728006,3.4425086975097656
1772650612032744000,7.653743896484375,9.41316915308535,6.046594286647439,-1.6700518118098375,-0.5928969979286194,0.0719652622938156,3.2901506423950195
1772650612042716000,7.6637158203125,10.203839638304707,6.360258669525384,-1.2592971740111707,-0.5724670886993408,0.1733083873987198,3.014816999435425
1772650612052689000,7.67368896484375,10.702799213778972,6.535099688124657,-1.1370726239643991,-0.5476757287979126,0.3118533194065094,2.6516313552856445
1772650612062660900,7.683660888671875,10.921931794047357,6.628381198412179,-1.2937950714185833,-0.5565565824508667,0.4868687987327575,2.228689432144165
1772650612072633900,7.6936337890625,10.9199455886662,6.7952236194729805,-1.7735161318071186,-0.6145240664482117,0.6606671810150146,1.8115665912628172
1772650612082605800,7.703605712890625,10.639705921006202,6.951974270108342,-2.174497271349281,-0.7010310292243958,0.769286572933197,1.4467947483062744
1772650612092578000,7.713578125,10.097407554543018,7.131924010023474,-2.348727902965248,-0.7900424599647522,0.8232299089431763,1.1700856685638428
1772650612102550800,7.72355078125,9.227048615580795,7.368959326729178,-2.3394515405759213,-0.866561233997345,0.872197151184082,1.013750672340393
1772650612112522800,7.733522705078125,8.1571835878402,7.6347800084143875,-2.16515544250831,-0.9056758880615234,0.8936631083488464,0.9797777533531188
1772650612122496000,7.74349609375,7.119986903992295,7.956549956336617,-1.8406367803998287,-0.8977420926094055,0.8656325340270996,1.0773303508758545
1772650612132467700,7.7534677734375,6.184648420119285,8.300233045381306,-1.4735009195752442,-0.84758061170578,0.8110529184341431,1.278884768486023
1772650612142440000,7.76343994140625,5.592403827226161,8.468624449449777,-1.0133255405254662,-0.7565109133720398,0.691662609577179,1.5218175649642944
1772650612152413000,7.773412841796875,5.468206954193115,8.57367355442047,-0.4885688221022486,-0.6404625773429871,0.4623404443264007,1.7411978244781494
1772650612162384600,7.783384521484375,5.8041118104517455,8.483685240459442,-0.0097772976487874,-0.5018439292907715,0.1864238828420639,1.8586461544036863
1772650612172358000,7.79335791015625,6.371279245233535,8.280505431604384,0.4578386066652834,-0.3319851756095886,-0.1020464524626731,1.836642146110535
1772650612182329900,7.803329833984375,6.921327787432074,7.977447782936692,0.9239951059512792,-0.1348891258239746,-0.3981074094772339,1.6716995239257812
1772650612192301800,7.8133017578125,7.191029109942913,7.327275901731848,1.4117767231985925,0.0705316364765167,-0.5720797181129456,1.3818442821502686
1772650612202274800,7.82327490234375,6.871333630207181,6.241831027543545,1.9297836751006543,0.2412826120853424,-0.6296383738517761,1.0488364696502686
1772650612212246800,7.833246826171875,6.313620252469182,4.6917596401155,2.359771275027096,0.3466692566871643,-0.7317296266555786,0.6479223370552063
1772650612222219800,7.8432197265625,6.035636254781484,3.457406060963869,2.456862406730652,0.4370060861110687,-0.842873752117157,0.1472019404172897
1772650612232191700,7.853191650390625,5.7346782087415455,2.20831668497324,2.580651575745642,0.5122302770614624,-0.9662548899650574,-0.4993751943111419
1772650612242164700,7.863164794921875,5.143552975267172,0.72862056401968,2.5960592804968354,0.6076081991195679,-1.0458024740219116,-1.2725603580474854
1772650612252136700,7.87313671875,3.846524621015787,-0.0183709384709596,1.96877070062086,0.6668174862861633,-0.8888224363327026,-2.0311295986175537
1772650612262109000,7.88310888671875,1.425351367303729,-0.312653160008788,0.4368953334882855,0.5843111276626587,-0.5595073699951172,-2.5913987159729004
1772650612272082000,7.89308203125,-1.879545333856344,-0.7035919212251901,-1.516918328758329,0.356309711933136,-0.1701366156339645,-2.7750279903411865
1772650612282053600,7.9030537109375,-5.057588509994745,-1.2964485085368156,-2.6928283406391738,0.1015402674674987,0.0690203085541725,-2.6339142322540283
1772650612292027000,7.91302685546875,-7.027296929857134,-1.7317647561401128,-2.18456127698496,-0.0390564352273941,0.2194753587245941,-2.287123203277588
1772650612301998800,7.922998779296875,-7.685621722379326,-2.477712887057662,-0.4018035618409514,-0.1130792647600174,0.1652283668518066,-1.8252363204956052
1772650612311970800,7.932970703125,-7.275484339696169,-3.649150283569097,1.203111468669772,-0.1564123332500457,-0.2515117824077606,-1.4532665014266968
1772650612321943800,7.94294384765625,-5.29549710240364,-4.323567548236251,2.166386153347045,-0.1162428259849548,-0.9057175517082214,-1.4749974012374878
