time,seconds_elapsed,acc_z,acc_y,acc_x,gyro_z,gyro_y,gyro_x
1772903808890358500,0.108358642578125,0.1236343383789062,-0.0894241631031036,0.288679838180542,0.5174024701118469,-0.0452039949595928,-0.2076940238475799
1772903808909344500,0.127344482421875,0.3211102485656738,-0.1188253313302993,0.2136766910552978,0.5839866995811462,0.2675587832927704,-0.3359756171703338
1772903808928330800,0.146330810546875,0.3157057762145996,-0.2260953485965728,-0.0062127113342285,0.6701186895370483,0.4911352694034576,-0.3323104381561279
1772903808947316700,0.165316650390625,-0.2346630096435547,-0.3476529121398926,-0.1109144687652587,0.7568614482879639,0.6505709886550903,-0.2981020212173462
1772903808966302700,0.184302734375,-0.6617798805236816,0.0407879203557968,-0.0522112846374511,0.7611374855041504,0.5412262082099915,-0.3158170878887176
1772903808985289000,0.2032890625,-1.2786293029785156,0.2167119085788726,-0.1028766632080078,0.6615665555000305,0.3518581092357635,-0.3420842885971069
1772903809004275000,0.22227490234375,-1.5313806533813477,0.2676051259040832,-0.2295122146606445,0.545502245426178,-0.0232128612697124,-0.3720166385173797
1772903809023261200,0.24126123046875,-1.847203254699707,0.2707737684249878,-0.3984782695770263,0.4227184355258941,-0.5583304166793823,-0.4575377106666565
1772903809042247200,0.2602470703125,-1.949223041534424,0.3318395316600799,-0.830890417098999,0.4434878230094909,-1.035415768623352,-0.5907062292098999
1772903809061233400,0.2792333984375,-1.769585132598877,0.4928497076034546,-1.396857738494873,0.6334667801856995,-1.3255765438079834,-0.7519745230674744
1772903809080219400,0.298219482421875,-1.2214069366455078,0.9403740167617798,-1.2890117168426514,0.7794634699821472,-1.5204424858093262,-0.778241753578186
1772903809099205600,0.31720556640625,-0.3760676383972168,1.5500550270080566,-0.2741334438323974,0.5998691916465759,-1.9498803615570068,-0.5595521330833435
1772903809118191600,0.336191650390625,0.725250244140625,2.459425926208496,0.541034460067749,0.2425133138895034,-2.583347082138061,-0.1533270627260208
1772903809137177600,0.355177490234375,1.6567301750183103,2.795879364013672,0.5940651893615723,0.0189368072897195,-3.192379236221313,0.2076940238475799
1772903809156163800,0.374163818359375,2.941325664520264,1.8256181478500368,1.1251561641693115,-0.0097738364711403,-3.04821515083313,0.3408625423908233
1772903809175149800,0.39314990234375,3.772419452667236,0.3296864926815033,2.066160202026367,0.1545487940311432,-1.7403537034988403,0.0109955659136176
1772903809194135800,0.4121357421875,5.335170745849609,0.4578621983528137,4.634395599365234,0.3787361681461334,-0.1282816082239151,-0.9865466356277466
1772903809213122000,0.4311220703125,12.951382637023926,0.7606800198554993,7.876490592956543,0.5351175665855408,0.5112938284873962,-1.748905897140503
1772903809232108000,0.45010791015625,24.527137756347656,0.4863549470901489,10.85238265991211,0.4214966893196106,-0.1142317131161689,-1.2034035921096802
1772903809251094300,0.46909423828125,27.870494842529297,-0.4502686262130737,12.139118194580078,-0.0549778304994106,0.2761108875274658,0.0653625279664993
1772903809270080300,0.488080322265625,21.63633346557617,-0.7409275770187378,8.985831260681152,-0.3805687427520752,1.7751730680465698,0.667064368724823
1772903809289066200,0.507066162109375,14.227435111999512,-0.1286856532096862,3.788307666778565,-0.1374445706605911,2.604116439819336,0.8063415288925171
1772903809308052500,0.526052490234375,8.288390159606934,-0.0638434737920761,1.9962973594665527,0.0647516697645187,2.0042474269866943,1.1184934377670288
1772903809327038500,0.54503857421875,2.6941347122192383,0.164933294057846,1.705888748168945,-0.0073303775861859,0.9199623465538024,1.2284491062164309
1772903809346024400,0.5640244140625,-1.1232452392578125,-0.0746213197708129,2.6409168243408203,-0.3671297430992126,0.5039634704589844,0.9639446139335632
1772903809365010700,0.5830107421875,-3.556173324584961,-0.4274071455001831,2.363020420074463,-0.758694052696228,0.9016364216804504,0.4789179861545563
1772903809383996700,0.60199658203125,-5.266554355621338,-1.270421028137207,0.9468121528625488,-1.030528903007507,1.7721186876296997,0.0433713980019092
1772903809402983000,0.62098291015625,-6.499229431152344,-1.7664893865585327,-1.2322330474853516,-1.125823736190796,2.2449281215667725,0.0299323741346597
1772903809421969000,0.639968994140625,-7.396152019500732,-1.6246204376220703,-2.608039617538452,-1.2290599346160889,2.0354013442993164,0.5112938284873962
1772903809440955000,0.658954833984375,-8.347698211669922,-1.5181224346160889,-3.266663789749145,-1.2809834480285645,1.5326597690582275,1.1074978113174438
1772903809459941000,0.677941162109375,-9.145875930786133,-2.2623167037963867,-3.756889343261719,-1.125823736190796,1.063515543937683,1.4184280633926392
1772903809478927000,0.696927001953125,-8.936407089233398,-2.757258892059326,-4.209406852722168,-0.7788525819778442,1.074511170387268,1.469740629196167
1772903809497913300,0.715913330078125,-8.510046005249023,-2.901676177978516,-3.3402395248413086,-0.4434878230094909,1.380554437637329,1.5039490461349487
1772903809516899300,0.7348994140625,-8.483306884765625,-2.9421119689941406,-1.6950408220291138,-0.3359756171703338,1.5210533142089844,1.5931353569030762
1772903809535885300,0.75388525390625,-8.584843635559082,-2.983287811279297,-1.5639665126800537,-0.2522871494293213,1.461188554763794,1.6560543775558472
1772903809554871600,0.77287158203125,-8.656661987304688,-3.059284448623657,-1.7939810752868652,-0.0299323741346597,1.2925899028778076,1.6224569082260132
1772903809573857500,0.791857421875,-8.09768295288086,-3.101946830749512,-0.8888218998908997,0.1466075479984283,1.0873392820358276,1.5381574630737305
1772903809592843500,0.810843505859375,-6.544931411743164,-3.363842248916626,0.1257991790771484,0.2809978127479553,1.056185245513916,1.563202977180481
1772903809611829800,0.829829833984375,-5.284104347229004,-3.284193515777588,1.1304445266723633,0.2968802750110626,0.8252783417701721,1.7525711059570312
1772903809630815700,0.848815673828125,-4.575458526611328,-2.948667049407959,2.178673505783081,0.1753181964159011,0.7018836140632629,1.922391414642334
1772903809649802000,0.867802001953125,-4.52048397064209,-2.515899658203125,2.5670487880706787,0.0482583157718181,0.8350521326065063,1.796553373336792
1772903809668788000,0.8867880859375,-4.46175479888916,-1.587414026260376,2.700162410736084,-0.0952949076890945,0.740368127822876,1.3976585865020752
1772903809687774000,0.90577392578125,-2.8456573486328125,0.2039780616760254,2.4019899368286133,-0.3402516841888428,0.3915643095970154,0.7073814272880554
1772903809706760200,0.92476025390625,1.6676998138427734,0.7713985443115234,1.685683012008667,-0.5668824911117554,0.3750709891319275,0.1417206227779388
1772903809725746200,0.94374609375,6.110732078552246,0.7102451324462891,0.1240866854786872,-0.535728394985199,0.4923570156097412,-0.2076940238475799
1772903809744732200,0.962732177734375,8.897725105285645,0.9051923751831056,-1.0432311296463013,-0.2858847081661224,-0.4935787320137024,-0.3585776388645172
1772903809763718400,0.981718505859375,10.748748779296877,2.1713500022888184,-1.771666407585144,0.1453858166933059,-2.151465654373169,-0.6908880472183228
1772903809782704400,1.000704345703125,12.005575180053713,0.4900712966918945,2.8998494148254395,0.3341430425643921,-1.6975932121276855,-1.064737319946289
1772903809801690600,1.019690673828125,10.646610260009766,-0.0958354473114013,5.6992692947387695,-0.0794124230742454,-0.3695732057094574,-1.1087195873260498
1772903809820676600,1.038676513671875,3.946990966796875,0.7000105381011963,2.4611432552337646,-0.3445277214050293,-0.233961209654808,-1.4459168910980225
1772903809839662600,1.05766259765625,0.5901336669921875,0.3576724529266357,0.219984769821167,-0.4129445850849151,-0.7385355234146118,-1.7568471431732178
1772903809858648800,1.07664892578125,0.3229207992553711,-0.2610421180725097,-1.0730113983154297,-0.3225366175174713,-1.2272273302078247,-1.6927063465118408
1772903809877634800,1.095634765625,0.3892450332641601,-0.9867266416549684,-1.575735569000244,-0.2461785078048706,-1.3371829986572266,-1.3237439393997192
1772903809896620800,1.114620849609375,-1.6463346481323242,-1.3545523881912231,-2.770235300064087,-0.0397062115371227,-0.8747583627700806,-0.9859357476234436
1772903809915607000,1.13360693359375,-4.503234386444092,-1.186863899230957,-3.7109856605529785,0.2144135385751724,-0.5229002237319946,-0.7599157691001892
1772903809934593000,1.152593017578125,-6.95026159286499,-0.8821072578430176,-3.735820055007935,0.4709767401218414,-0.4288270771503448,-0.6267472505569458
1772903809953579300,1.171579345703125,-8.520309448242188,-0.0730277299880981,-2.236924648284912,0.4276053309440613,-0.7031053900718689,-0.5815432667732239
1772903809972565200,1.190565185546875,-9.322101593017578,0.1863487958908081,-1.7154927253723145,0.3298669755458832,-0.7568614482879639,-0.7171552777290344
1772903809991551200,1.20955126953125,-9.050569534301758,-0.1189775466918945,-1.888506531715393,0.3420842885971069,-0.5216785073280334,-0.9382883310317992
1772903810010537200,1.228537109375,-7.68400764465332,-0.1137201786041259,-2.084536075592041,0.4007273018360138,-0.546113133430481,-0.943175196647644
1772903810029523500,1.2475234375,-6.540526390075684,-0.5060775279998779,-1.9554588794708248,0.4697550237178802,-0.5601630210876465,-0.721431314945221
1772903810048509400,1.266509521484375,-6.0574798583984375,-0.5149019956588745,-0.8094775676727295,0.3610210716724396,-0.6133082509040833,-0.356745034456253
1772903810067495400,1.285495361328125,-7.210281848907471,-0.247607946395874,-0.7747972011566162,0.1728747338056564,-0.6945532560348511,-0.1704312711954116
1772903810086481700,1.304481689453125,-8.16262435913086,-0.0251045227050781,-1.305196762084961,0.0702494531869888,-0.657290518283844,-0.235793799161911
1772903810105467600,1.323467529296875,-7.659244537353516,-0.1185402870178222,-1.6538569927215576,0.0299323741346597,-0.5277871489524841,-0.328645259141922
1772903810124453600,1.34245361328125,-6.461870670318604,0.0211377143859863,-1.462939977645874,-0.0421496704220771,-0.4960221946239471,-0.2602283954620361
1772903810143440000,1.36143994140625,-5.665438652038574,0.3907407522201538,-1.275041580200195,-0.1050687432289123,-0.3689623177051544,-0.2376264035701751
1772903810162425900,1.38042578125,-4.056674957275391,1.1428309679031372,-0.8568750619888306,-0.1759290546178817,-0.3029889166355133,-0.3707949221134186
1772903810181411800,1.399411865234375,-0.1553983688354492,0.1919185519218444,-0.246016263961792,-0.0458148568868637,-0.0091629717499017,-0.3304778337478637
1772903810200398000,1.418398193359375,5.366471290588379,-1.7373943328857422,1.437964677810669,0.2156352698802948,0.2260199636220932,0.2412915825843811
1772903810219384000,1.437384033203125,6.268177032470703,-1.9252413511276243,4.732101440429688,0.0464257225394248,-0.6133082509040833,0.4532616734504699
1772903810238370300,1.456370361328125,7.351474761962891,-0.448631227016449,4.362548828125,-0.1276707351207733,-1.8423681259155276,-0.2040288299322128
1772903810257356300,1.475356201171875,12.915258407592772,-3.344817638397217,6.397181510925293,-0.0995709598064422,-2.0995421409606934,-1.175914645195007
1772903810276342300,1.49434228515625,26.743865966796875,-4.232602119445801,6.766097545623779,0.4221075773239136,-3.09219741821289,-0.7354812026023865
1772903810295328500,1.51332861328125,35.865509033203125,-4.755687236785889,10.755779266357422,1.0989457368850708,-3.5662286281585693,1.3408482074737549
1772903810314314500,1.532314453125,29.480255126953125,-3.1634654998779297,13.527090072631836,1.1068869829177856,-4.048201084136963,3.324326038360596
1772903810333300500,1.551300537109375,16.885929107666016,-0.5820919275283813,7.582233428955078,1.2174534797668457,-5.30352783203125,4.159989356994629
1772903810352286500,1.570286376953125,6.5045166015625,0.7830826044082642,5.255204677581787,1.340237379074097,-4.897303104400635,3.5185811519622803
1772903810371272700,1.589272705078125,1.5920543670654297,1.5955705642700195,5.060542106628418,1.128878116607666,-3.313941478729248,2.341444730758667
1772903810390258700,1.6082587890625,1.5782384872436523,2.0253829956054688,2.890425682067871,0.8356630206108093,-2.031736373901367,1.6982040405273438
1772903810409244700,1.62724462890625,1.3137259483337402,1.185317039489746,-0.3772449493408203,0.4807505905628204,-1.2828160524368286,1.8796309232711792
1772903810428231000,1.64623095703125,-3.1312332153320312,-0.1992371082305908,-4.8766374588012695,-0.0464257225394248,-0.9498947262763976,2.2198827266693115
1772903810447217000,1.665216796875,-8.47884750366211,-1.9588172435760496,-9.508919715881348,-0.6224712133407593,-0.9095776677131652,2.2479825019836426
1772903810466203100,1.684203125,-10.322609901428224,-3.857994556427002,-11.986871719360352,-1.2351685762405396,-0.9114102721214294,2.2168283462524414
1772903810485189000,1.703189208984375,-12.288108825683594,-4.534825801849365,-16.03274917602539,-1.211344838142395,-0.9767727851867676,1.7525711059570312
1772903810504175000,1.722175048828125,-13.10108757019043,-4.627786636352539,-19.112403869628903,-0.5436696410179138,-1.0409135818481443,0.9260709881782532
1772903810523161000,1.7411611328125,-12.366381645202637,-3.873560905456543,-19.71141624450684,0.4917461574077606,-1.174692988395691,-0.0109955659136176
1772903810542147300,1.760147216796875,-9.775160789489746,-3.4591710567474365,-17.01922607421875,1.4379756450653076,-1.505170822143555,-0.7293725609779358
1772903810561133300,1.77913330078125,-6.29030704498291,-2.865307331085205,-12.455493927001951,1.8063271045684812,-1.839924693107605,-0.9767727851867676
1772903810580119300,1.798119384765625,-4.034577369689941,-2.257399082183838,-8.429427146911621,1.609628677368164,-1.6438370943069458,-0.9963204264640808
1772903810599105300,1.817105224609375,-2.813382148742676,-1.7672878503799438,-6.264109134674072,1.0861176252365112,-1.0189224481582642,-0.9706641435623168
1772903810618091500,1.836091552734375,-2.777578353881836,-1.4331307411193848,-6.467653751373291,0.6041452884674072,-0.2718348205089569,-0.9761618971824646
1772903810637077500,1.855077392578125,-2.960864543914795,-1.2024095058441162,-7.623642921447754,0.3457494676113128,-0.1459966748952865,-0.8368847370147705
1772903810656063700,1.874063720703125,-3.085249900817871,-0.8361371755599976,-8.842610359191895,0.4526508152484894,-0.5497782826423645,-0.5913171172142029
1772903810675049700,1.8930498046875,-2.8218045234680176,-0.4249438047409057,-8.277015686035156,0.6921098232269287,-0.8912517428398132,-0.2907716333866119
1772903810694035700,1.91203564453125,-2.2486724853515625,0.3821916580200195,-5.64740514755249,0.7104357481002808,-1.083674073219299,0.0390953458845615
1772903810713021700,1.931021728515625,-2.067453145980835,0.6875736713409424,-1.9211759567260744,0.3115410506725311,-1.1979057788848877,0.3433060050010681
1772903810732008000,1.950008056640625,-3.1231822967529297,1.852497935295105,-0.5003385543823242,-0.131946787238121,-1.0378592014312744,0.2101374864578247
1772903810750994000,1.968993896484375,-4.010952949523926,2.0303194522857666,1.7063827514648438,-0.1533270627260208,-1.0494656562805176,-0.407446801662445
1772903810769980000,1.98797998046875,-2.7698490619659424,0.1293311119079589,6.569128036499023,0.4825831651687622,-0.9114102721214294,-1.1789690256118774
1772903810788966100,2.006966064453125,0.7264249324798584,-1.83326268196106,15.500699996948242,1.5027273893356323,-0.8955277800559998,-1.777005672454834
1772903810807952100,2.0259521484375,8.698973655700684,-0.3644546866416931,27.47031784057617,1.8154901266098025,-0.3836230933666229,-1.7110322713851929
1772903810826938000,2.044938232421875,13.13542938232422,0.5648927092552185,38.12581634521485,0.6646208763122559,0.0641408041119575,-0.9694424271583556
1772903810845924400,2.06392431640625,12.67641544342041,-0.9688816666603088,34.47446823120117,-0.535728394985199,0.4465421438217163,0.0073303775861859
1772903810864910300,2.082910400390625,11.787277221679688,-1.2574958801269531,23.755542755126957,-0.4673115611076355,0.3090975880622864,1.0965023040771484
1772903810883896300,2.101896240234375,9.003313064575195,-1.2950701713562012,19.675931930541992,-0.3817904889583587,-0.1814268380403518,1.907119870185852
1772903810902882300,2.12088232421875,3.514431953430176,-2.700201988220215,16.490373611450195,-0.5534434914588928,-0.1350011229515075,1.8344268798828125
1772903810921868500,2.13986865234375,-0.0007703304290771,-2.1585731506347656,9.964463233947754,-0.5619956254959106,0.4538725316524505,1.25715970993042
1772903810940854500,2.1588544921875,-0.5205013751983643,-0.8089094161987305,3.190596580505371,-0.5907062292098999,0.7538071274757385,0.8643736839294434
1772903810959840500,2.177840576171875,-0.5232665538787842,-0.2059705257415771,-2.315519332885742,-0.8307760953903198,0.7898481488227844,0.8649845123291016
1772903810978826800,2.19682666015625,-2.918852567672729,-0.7592074871063232,-7.360295295715332,-1.265711784362793,0.8240565657615662,0.7654135823249817
1772903810997812700,2.215812744140625,-5.301405906677246,-1.9358479976654053,-12.47724723815918,-1.4117084741592407,0.8674280047416687,0.3927860558032989
1772903811016798700,2.234798828125,-5.922068119049072,-3.3532447814941406,-15.461851119995115,-1.380554437637329,0.6017017960548401,0.0788015574216842
1772903811035784700,2.25378466796875,-5.720702648162842,-4.814007759094238,-18.24687385559082,-1.025641918182373,0.2021962404251098,-0.0788015574216842
1772903811054771000,2.27277099609375,-4.931596279144287,-4.9667816162109375,-19.95084381103516,-0.2541197538375854,0.0378736145794391,-0.10934479534626
1772903811073757000,2.2917568359375,-4.04488468170166,-4.268220901489258,-19.026859283447266,0.5387827157974243,-0.1747073233127594,-0.0085521070286631
1772903811092743000,2.310742919921875,-3.552790641784668,-3.3730621337890625,-15.079105377197266,0.8271108865737915,-0.758694052696228,0.1814268380403518
1772903811111729200,2.329729248046875,-3.3906679153442383,-2.527194023132324,-12.479352951049805,0.8875865340232849,-1.103221774101257,0.2657261788845062
1772903811130715100,2.348715087890625,-3.3160479068756104,-1.781028151512146,-10.665218353271484,0.905912458896637,-1.0641264915466309,0.1447749584913253
1772903811149701000,2.367701171875,-3.015026092529297,-1.1112895011901855,-8.620576858520508,0.7794634699821472,-0.7373138070106506,-0.0849102064967155
1772903811168687000,2.38668701171875,-2.867691993713379,-0.6923673152923584,-7.680467128753662,0.6163625717163086,-0.2461785078048706,-0.3390299379825592
1772903811187673300,2.40567333984375,-2.75409197807312,-0.2520793676376343,-7.252141952514648,0.4477638900279999,-0.047036588191986,-0.5241219997406006
1772903811206659300,2.424659423828125,-2.2871298789978027,-0.0915628671646118,-7.001662731170654,0.2608392536640167,-0.1429423540830612,-0.5442805290222168
1772903811225645300,2.443645263671875,-1.7161402702331543,0.0312843322753906,-6.976746559143066,0.1679878085851669,-0.1777616441249847,-0.4734202027320862
1772903811244631600,2.462631591796875,-1.6474199295043943,0.0431663990020751,-6.383052825927734,0.131946787238121,-0.0122172953560948,-0.3958403766155243
1772903811263617500,2.481617431640625,-1.366206407546997,0.0709807872772216,-4.675730705261231,0.0702494531869888,-0.0054977829568088,-0.1857028901576995
1772903811282603500,2.500603515625,-0.5156617164611816,1.122561812400818,-1.6419677734375,-0.0647516697645187,-0.5143481492996216,0.1954767256975174
1772903811301589500,2.519589599609375,-1.3106595277786257,1.1579256057739258,2.930949211120605,-0.0189368072897195,-0.5057960152626038,0.2474002391099929
1772903811320575500,2.538575439453125,-3.4869260787963867,-1.035752296447754,10.172350883483888,0.5876519083976746,-0.1466075479984283,-0.6420188546180725
1772903811339561700,2.557561767578125,-2.235734462738037,-3.521688938140869,18.662487030029297,1.618180751800537,0.5332849621772766,-1.9370522499084477
1772903811358547700,2.576547607421875,5.433156967163086,-1.1806232929229736,30.074295043945312,2.299294948577881,1.3713914155960083,-2.436128854751587
1772903811377534000,2.595533935546875,13.846449851989746,-0.4125844240188598,42.4600830078125,1.4465278387069702,1.7372994422912598,-1.6963714361190796
1772903811396520000,2.61452001953125,15.55687141418457,-0.7139105796813965,42.42975234985352,-0.5235111117362976,0.4801397025585174,-0.1233946830034256
1772903811415506000,2.633505859375,9.405189514160156,-0.5115129947662354,30.50399780273437,-1.978590965270996,-0.593149721622467,0.7159335017204285
1772903811434492000,2.652491943359375,1.933387756347656,-0.9411486387252808,15.106128692626951,-2.3506076335906982,-0.5131264328956604,0.3646862804889679
1772903811453478000,2.671477783203125,-3.1248114109039307,-1.5069310665130615,1.5107803344726562,-1.8209879398345947,0.1753181964159011,-0.675616443157196
1772903811472464100,2.690464111328125,-3.50423264503479,-1.3944207429885864,-7.885360240936279,-0.9101884961128236,0.5717694163322449,-1.7330234050750732
1772903811491450000,2.7094501953125,-1.762058973312378,-0.9480072855949402,-11.76448917388916,-0.3121519088745117,0.8710931539535522,-2.2785255908966064
1772903811519929000,2.73792919921875,2.835684299468994,0.5794245004653931,-13.498712539672852,0.0946840420365333,0.7006618976593018,-1.543655276298523
1772903811538915000,2.7569150390625,3.940392255783081,0.6092811822891235,-12.71128749847412,-0.0054977829568088,-0.067805990576744,-0.2669478952884674
1772903811557901300,2.7759013671875,1.5719192028045654,-0.8607031106948853,-13.288701057434082,-0.0788015574216842,-0.5296197533607483,0.8277217745780945
1772903811576887300,2.79488720703125,-1.894343614578247,-1.547133445739746,-14.885683059692385,0.2461785078048706,-0.6316341757774353,1.2534945011138916
1772903811595873500,2.81387353515625,-4.260063648223877,-1.1356161832809448,-15.131260871887209,0.7971785664558411,-0.5815432667732239,1.0934479236602783
1772903811614859500,2.832859619140625,-4.660496711730957,-0.3720557689666748,-12.658524513244627,1.1074978113174438,-0.6249146461486816,0.7128791809082031
1772903811633845500,2.851845458984375,-3.493015766143799,0.1053094863891601,-9.894983291625977,1.0800089836120603,-0.6450732350349426,0.4703658819198608
1772903811652831500,2.87083154296875,-2.0849955081939697,0.3635399937629699,-8.127315521240234,0.905912458896637,-0.5485565662384033,0.4825831651687622
1772903811671817500,2.8898173828125,-1.2256340980529783,0.6612302660942078,-7.435398578643799,0.6847794055938721,-0.4978547990322113,0.6627882719039917
1772903811690803700,2.9088037109375,-1.255062222480774,1.0162286758422852,-7.784035682678223,0.4770853817462921,-0.5277871489524841,0.8002328872680664
1772903811709789700,2.927789794921875,-1.8164091110229488,1.0868141651153564,-8.558284759521484,0.3842339515686035,-0.5290089249610901,0.8051197528839111
1772903811728775700,2.946775634765625,-2.156008720397949,1.1406848430633545,-8.691280364990234,0.3665188550949096,-0.4056142270565033,0.6908880472183228
1772903811747761700,2.96576171875,-1.9413707256317136,0.9569556713104248,-7.902466297149658,0.3005454838275909,-0.1117882579565048,0.6206386089324951
1772903811766748000,2.984747802734375,-1.462423324584961,1.1366195678710938,-6.946433067321777,0.1014035567641258,-0.0934623107314109,0.7654135823249817
1772903811785734000,3.00373388671875,-1.5222644805908203,1.2809531688690186,-6.226500511169434,-0.1704312711954116,-0.4141663312911987,1.0152572393417358
1772903811804719900,3.022719970703125,-3.048905849456787,1.3316463232040403,-5.543261528015137,-0.3775144219398498,-0.4477638900279999,0.9682206511497498
1772903811823705900,3.041705810546875,-3.905055046081543,1.331671953201294,-3.895933151245117,-0.3866774141788482,-0.3610210716724396,0.6878337264060974
1772903811842691800,3.06069189453125,-3.098463535308838,1.0931918621063232,1.137979507446289,-0.2602283954620361,-0.593149721622467,0.3316995799541473
1772903811861678000,3.079677978515625,-2.757204532623291,-1.6987783908843994,10.75643253326416,0.2803869247436523,-0.8680388331413269,-0.4605920314788818
1772903811880664000,3.0986640625,-1.0255718231201172,-6.384827613830566,23.33052444458008,1.29197895526886,-0.1918115466833114,-1.4831796884536743
1772903811899650000,3.117650146484375,4.909415721893311,-5.656030178070068,34.25129699707031,1.1801908016204834,1.0329723358154297,-1.986532211303711
1772903811918636000,3.136635986328125,13.295618057250977,-1.9791500568389893,36.94287872314453,0.3164279460906982,2.0799946784973145,-1.0793980360031128
1772903811937622300,3.155622314453125,16.01571273803711,-1.107907772064209,29.53915405273437,-0.3170388340950012,1.4019346237182615,1.063515543937683
1772903811956608300,3.174608154296875,8.523859024047852,0.4318218827247619,20.22784805297852,-0.4734202027320862,-0.6352993845939636,2.33105993270874
1772903811975594200,3.19359423828125,-2.33070707321167,0.841463565826416,13.154645919799805,-0.554665207862854,-0.8484911918640137,1.479514479637146
1772903811994580500,3.21258056640625,-7.793109893798828,1.697755217552185,6.144676208496094,-0.7568614482879639,0.7672461867332458,-0.7666352987289429
1772903812013566500,3.23156640625,-4.901007175445557,2.027916193008423,-1.8445091247558596,-1.050076603889465,2.386037826538086,-2.5521931648254395
1772903812032552400,3.250552490234375,0.7070248126983643,0.742425799369812,-8.989240646362305,-1.1349867582321167,3.0757040977478027,-2.726900339126587
1772903812051538400,3.269538330078125,4.86854362487793,0.0190858840942382,-14.09351921081543,-0.8100066781044006,2.3060145378112797,-1.3225222826004028
1772903812070524700,3.288524658203125,4.30941104888916,-1.2040258646011353,-15.358190536499023,-0.3591884970664978,0.574212908744812,0.7507528066635132
1772903812089510700,3.3075107421875,-0.7046406269073486,-1.8230217695236208,-14.802698135375977,-0.047036588191986,-0.9364557266235352,2.0274600982666016
1772903812108496600,3.32649658203125,-5.712448120117188,-1.5778865814208984,-14.438238143920898,0.3268126547336578,-1.370169758796692,1.9840887784957888
1772903812127482600,3.345482666015625,-8.192352294921875,-0.5062965154647827,-13.017749786376951,0.6591231226921082,-1.1319323778152466,1.0965023040771484
1772903812146468900,3.36446875,-7.509222507476807,0.0331275463104248,-10.246320724487305,0.6884446144104004,-0.5589412450790405,0.1502727419137954
1772903812165454800,3.383454833984375,-5.428891181945801,-0.1053000688552856,-8.382759094238281,0.3970620930194855,0.0232128612697124,-0.4037816226482391
1772903812184440800,3.40244091796875,-3.095635175704956,0.0767906904220581,-8.406113624572754,0.1557705253362655,0.1105665266513824,-0.4037816226482391
1772903812203426800,3.4214267578125,-2.012624263763428,0.3333851099014282,-9.177677154541016,0.0836884751915931,-0.2260199636220932,-0.0415388047695159
1772903812222412800,3.440412841796875,-2.596501350402832,0.4702982902526855,-9.375539779663086,0.0897971242666244,-0.5497782826423645,0.2492328286170959
1772903812241399000,3.45939892578125,-3.3108885288238525,0.6610124111175537,-8.973154067993164,0.0073303775861859,-0.4789179861545563,0.2846629917621612
1772903812260385000,3.478385009765625,-3.8410892486572266,0.6190544366836548,-8.836650848388672,-0.1514944583177566,-0.057421289384365,0.1398880332708358
1772903812279371000,3.49737109375,-3.575744390487671,0.9182344675064088,-9.087069511413574,-0.2498437017202377,0.1258381456136703,0.1038470119237899
1772903812298357000,3.51635693359375,-3.219526529312134,1.0183005332946775,-8.078547477722168,-0.3439168632030487,0.0616973415017128,0.2608392536640167
1772903812317343200,3.53534326171875,-3.691352367401123,1.3942749500274658,-6.115139961242676,-0.4581485986709595,-0.1466075479984283,0.3585776388645172
1772903812336329200,3.5543291015625,-4.254909992218018,1.453939437866211,-3.320979595184326,-0.5626064538955688,-0.2400698512792587,0.2315177470445633
1772903812355315200,3.573315185546875,-3.395406007766724,1.032487869262695,1.574610710144043,-0.5027416944503784,-0.4025598764419555,-0.057421289384365
1772903812374301200,3.59230126953125,-3.24505877494812,-1.81665301322937,9.828574180603027,-0.0256563201546669,-0.6291907429695129,-0.8527672290802002
1772903812393287200,3.611287109375,-1.7670880556106567,-4.952314853668213,21.151649475097656,0.4758636653423309,-0.4001164436340332,-2.138026714324951
1772903812412273200,3.630273193359375,3.671204090118408,-5.000412464141846,32.02628326416016,0.3158170878887176,0.8710931539535522,-3.5918848514556885
1772903812431259100,3.649259033203125,13.480833053588867,-4.3010430335998535,35.722267150878906,-0.6059778332710266,3.832565546035767,-3.7824747562408447
1772903812450245400,3.668245361328125,23.823657989501957,-5.862009525299072,26.88257598876953,-0.6933315396308899,4.06225061416626,-1.2528836727142334
1772903812469231400,3.6872314453125,24.75726890563965,-2.34249210357666,18.878196716308597,-0.0122172953560948,0.6487383842468262,2.6193881034851074
1772903812488217300,3.70621728515625,11.021944046020508,-3.4530558586120605,17.253692626953125,-0.3274235129356384,-2.232710838317871,4.646848201751709
1772903812507203300,3.725203369140625,-6.605434894561768,-1.298009753227234,9.862040519714355,-0.7391464114189148,-2.207665205001831,3.34814977645874
1772903812526189600,3.744189453125,-16.82893943786621,1.0842747688293457,1.7967748641967771,-1.0091485977172852,-0.2608392536640167,-0.1356119811534881
1772903812545175600,3.763175537109375,-12.566343307495115,0.0024054050445556,-4.371077060699463,-1.415373682975769,1.6322306394577026,-2.822195291519165
1772903812564161500,3.78216162109375,-4.430492401123047,-1.6993931531906128,-10.981216430664062,-1.4911209344863892,2.1502439975738525,-3.3072218894958496
1772903812583147500,3.8011474609375,1.3357524871826172,-1.7001924514770508,-15.901686668395996,-0.943175196647644,1.6016874313354492,-2.1557416915893555
1772903812602133800,3.8201337890625,2.9671168327331543,-1.4785537719726562,-15.332504272460938,-0.277332603931427,0.6139190793037415,-0.3872882723808288
1772903812621119700,3.83911962890625,-0.2597579956054687,-2.135495901107788,-12.92717170715332,0.0427605360746383,-0.0513126403093338,0.9560033679008484
1772903812640105700,3.858105712890625,-4.515266418457031,-2.4018588066101074,-11.945612907409668,0.1191186308860778,-0.4105011224746704,1.5204424858093262
1772903812659091700,3.877091796875,-8.35883903503418,-2.544191837310791,-12.017757415771484,0.2064722925424575,-0.6322450637817383,1.2534945011138916
1772903812678077700,3.89607763671875,-10.519978523254396,-2.564581871032715,-11.94489288330078,0.3714057803153991,-0.6695078015327454,0.3921751976013183
1772903812697064000,3.91506396484375,-9.89746379852295,-2.3494081497192383,-10.975324630737305,0.5473348498344421,-0.6768381595611572,-0.6181951761245728
1772903812716050000,3.9340498046875,-6.542739391326904,-1.917222499847412,-9.420719146728516,0.5577195286750793,-0.5723803043365479,-1.2498292922973633
1772903812735036000,3.953035888671875,-3.521387815475464,-1.7488974332809448,-7.701673984527588,0.3249800503253937,-0.4276053309440613,-1.3744457960128784
1772903812754022000,3.97202197265625,-2.094130277633667,-1.965707540512085,-7.317298889160156,-0.0476474538445472,-0.3897317349910736,-1.1722495555877686
1772903812773008000,3.9910078125,-1.5532832145690918,-1.6174814701080322,-9.023366928100586,-0.0806341543793678,-0.5137372612953186,-0.813060998916626
1772903812791993900,4.009993896484375,-1.1759517192840576,-0.9800846576690674,-9.81732177734375,0.1130099818110466,-0.6927206516265869,-0.3958403766155243
1772903812810980000,4.02897998046875,-0.9494907855987548,-0.4894813299179077,-8.963690757751465,0.2706131041049957,-0.7165443897247314,0.0568104237318038
1772903812829966000,4.047966064453125,-1.634422779083252,0.230680227279663,-6.614047050476074,0.0745255053043365,-0.850934624671936,0.3720166385173797
1772903812848952000,4.0669521484375,-1.9721262454986568,1.028423547744751,-5.009173393249512,-0.2858847081661224,-0.905912458896637,0.4880809485912323
1772903812867938000,4.08593798828125,-2.0316293239593506,1.6253914833068848,-4.3454670906066895,-0.3506363928318023,-0.3830122053623199,0.3677406013011932
1772903812886924000,4.104924072265625,-1.3507331609725952,1.748282551765442,-1.856149673461914,-0.2064722925424575,0.3830122053623199,0.1667660921812057
1772903812905910300,4.12391015625,-2.0761122703552246,0.8181353807449341,4.229330062866211,-0.0311541035771369,0.3213148713111877,-0.3927860558032989
1772903812924896300,4.142896240234375,-1.7350006103515625,-1.7404978275299072,11.961580276489258,0.2522871494293213,-0.205861434340477,-1.2834268808364868
1772903812943882200,4.16188232421875,3.428729772567749,-1.2643243074417114,18.198469161987305,0.952949047088623,-0.1270598769187927,-2.3365578651428223
1772903812962868200,4.1808681640625,11.647920608520508,0.0362887382507324,26.221332550048828,1.3988803625106812,1.7134757041931152,-2.7372851371765137
1772903812981854200,4.199854248046875,21.17178726196289,0.012042224407196,31.469860076904297,0.536339282989502,2.525925874710083,-1.2400555610656738
1772903813000840200,4.218840087890625,21.147157669067383,-1.17488431930542,24.285419464111328,-0.1722638607025146,1.204014539718628,1.0855066776275637
1772903813019826400,4.237826416015625,13.430051803588867,-1.5963094234466553,11.911176681518556,0.0818558782339096,-0.1502727419137954,2.6468770503997803
1772903813038812400,4.2568125,3.3171305656433105,-0.9596282243728638,4.530627250671387,0.7373138070106506,-1.14659321308136,2.7250678539276123
1772903813057798400,4.27579833984375,-3.9586877822875977,1.918645977973938,0.997105598449707,1.1618647575378418,-1.1753038167953491,1.4813470840454102
1772903813076784400,4.294784423828125,-4.622293949127197,3.879746437072754,0.7429847717285156,1.2944225072860718,-0.0421496704220771,0.0097738364711403
1772903813095770600,4.3137705078125,-2.0502736568450928,3.8019511699676514,0.0669832229614257,1.074511170387268,0.9841031432151794,-0.5803215503692627
1772903813114756400,4.33275634765625,-0.2496862411499023,3.5453543663024902,-1.901611328125,0.6304124593734741,1.2718204259872437,-0.1740964651107788
1772903813133742600,4.35174267578125,-2.1869630813598637,2.455087184906006,-4.941708087921143,0.2571740746498108,1.377500057220459,0.3903425931930542
1772903813152728600,4.370728515625,-6.560056209564209,0.9583147168159484,-7.675288200378418,0.0940731763839721,1.5650355815887451,0.3347539007663727
1772903813171714600,4.389714599609375,-10.01524543762207,0.0821022391319274,-9.65791130065918,0.131946787238121,1.8264856338500977,-0.4190532267093658
1772903813190700500,4.408700439453125,-10.339445114135742,-0.0095327496528625,-10.60400390625,0.3384190797805786,1.894291639328003,-1.3530654907226562
1772903813209686500,4.4276865234375,-7.275469303131103,0.6818602085113525,-9.853833198547363,0.5338957905769348,1.7189735174179075,-1.7635666131973269
1772903813228672800,4.4466728515625,-4.011841773986816,1.0249499082565308,-7.484539985656738,0.4941896200180053,1.4691298007965088,-1.5192207098007202
1772903813247658800,4.46565869140625,-3.673781394958496,0.8568341732025146,-5.180744171142578,0.1533270627260208,1.5106686353683472,-1.138651967048645
1772903813266644700,4.484644775390625,-5.968626976013184,0.7967402935028076,-4.852045059204102,-0.1649334877729416,1.916893720626831,-1.1979057788848877
1772903813285630700,4.503630615234375,-7.429068088531494,1.1842246055603027,-5.638894557952881,-0.4575377106666565,1.882685303688049,-1.4789036512374878
1772903813304616700,4.52261669921875,-7.226787090301514,1.5956916809082031,-6.3385114669799805,-0.6811142563819885,1.230892539024353,-1.5864158868789673
1772903813323602700,4.541602783203125,-6.231272220611572,1.4805301427841189,-6.023738861083984,-0.8295543789863586,0.574212908744812,-1.412930250167847
1772903813342589700,4.560589599609375,-5.820292949676514,0.956842303276062,-5.0248703956604,-0.9944878816604614,0.4838049113750458,-1.1490366458892822
1772903813361575700,4.57957568359375,-5.755890369415283,1.3037497997283936,-5.344613075256348,-1.1319323778152466,0.9682206511497498,-1.0018181800842283
1772903813380561700,4.598561767578125,-5.090246200561523,2.808418273925781,-5.879391670227051,-1.22234046459198,0.8955277800559998,-0.7159335017204285
1772903813399547600,4.617547607421875,-3.856832504272461,3.4597527980804443,-5.709169387817383,-1.110552191734314,0.2901607751846313,-0.2186895906925201
1772903813418533600,4.63653369140625,-1.9116950035095213,2.866690158843994,-3.4333746433258057,-0.6676751971244812,-0.3084867000579834,0.1936441361904144
1772903813437520000,4.655519775390625,0.1754894256591797,-1.116832613945007,5.1435065269470215,-0.2608392536640167,-1.3439024686813354,-0.1001818254590034
1772903813456505900,4.674505859375,3.5295863151550293,-7.84664249420166,15.738605499267578,0.0549778304994106,-1.490510106086731,-1.4813470840454102
1772903813475491800,4.693491943359375,14.767166137695312,-12.022799491882324,23.48724365234375,-0.0616973415017128,0.6145299673080444,-2.44468092918396
1772903813494477800,4.712477783203125,26.699447631835938,-10.390156745910645,23.997337341308597,-0.6261364221572876,1.9004002809524536,-1.656665325164795
1772903813513463800,4.7314638671875,28.404884338378903,-9.035721778869627,13.805990219116213,0.3536907136440277,1.0128138065338137,0.0439822636544704
1772903813532449800,4.75044970703125,30.017526626586918,-4.3103437423706055,12.46437931060791,1.5613703727722168,-0.7049379348754883,2.550971269607544
1772903813551435800,4.769435791015625,17.558691024780273,-5.476154804229736,19.36151885986328,0.5827649831771851,-0.9938769936561584,3.744601011276245
1772903813570421800,4.788421875,1.8749361038208008,-2.5414838790893555,14.737672805786133,-0.7464767694473267,0.0439822636544704,2.9071054458618164
1772903813589408000,4.807407958984375,-7.536433219909668,0.373079776763916,5.465691566467285,-1.2822052240371704,0.9645555019378662,1.0317505598068235
1772903813608394000,4.82639404296875,-9.522997856140137,1.825557827949524,-0.4891796112060547,-1.556483507156372,1.426369309425354,-0.5430588126182556
1772903813627380000,4.8453798828125,-7.021660327911377,1.1798992156982422,-3.49819278717041,-2.006690740585327,1.3720022439956665,-0.8912517428398132
1772903813646366000,4.864365966796875,-6.402826309204102,0.7515326738357544,-8.641637802124023,-2.014021158218384,1.1575887203216553,-0.4434878230094909
1772903813665352000,4.88335205078125,-7.801597118377685,0.6421659588813782,-13.104642868041992,-1.4898991584777832,0.748920202255249,0.1649334877729416
1772903813684338000,4.902337890625,-10.126952171325684,-0.2174649238586425,-14.131366729736328,-0.842382550239563,0.4538725316524505,0.6102539300918579
1772903813703324000,4.921323974609375,-12.854984283447266,-1.1048030853271484,-13.55333137512207,-0.3066541254520416,0.1551596522331237,0.6695078015327454
1772903813722310100,4.94031005859375,-14.218130111694336,-0.8088601231575012,-12.354070663452148,0.0861319303512573,-0.2608392536640167,0.3481929302215576
1772903813741296000,4.959296142578125,-14.075671195983888,-0.5886035561561584,-10.019895553588867,0.2107483446598053,-0.5534434914588928,-0.2675587832927704
1772903813760282000,4.9782822265625,-12.319993019104004,-0.4542762041091919,-8.819637298583984,0.2535088956356048,-0.4196641147136688,-0.9523382186889648
1772903813779268000,4.99726806640625,-9.228384017944336,-0.4384750127792358,-7.547720909118652,0.2492328286170959,-0.1026252806186676,-1.3432916402816772
1772903813798254000,5.016254150390625,-5.890938758850098,-0.3642640113830566,-7.045027732849121,0.2803869247436523,0.0458148568868637,-1.239444613456726
1772903813817240000,5.035239990234375,-2.9893693923950195,0.125145137310028,-6.275362014770508,0.3078758418560028,-0.119729496538639,-0.665842592716217
1772903813836226300,5.054226318359375,-2.473182678222656,0.673711895942688,-5.314194679260254,0.2309068888425827,-0.4783071279525757,0.0226019974797964
1772903813855212000,5.0732119140625,-4.151633262634277,1.2704139947891235,-5.351484298706055,0.131946787238121,-0.6230821013450623,0.4043924808502197
1772903813874198300,5.0921982421875,-5.660491466522217,1.4969477653503418,-5.971533298492432,0.194254994392395,-0.2968802750110626,0.3897317349910736
1772903813893184300,5.111184326171875,-5.525010108947754,1.742607831954956,-5.747093200683594,0.2974911332130432,0.0616973415017128,0.3145953714847564
1772903813912170200,5.130170166015625,-4.235135555267334,2.4428539276123047,-4.270272254943848,0.2614501118659973,-0.0171042140573263,0.4636463820934295
1772903813931156200,5.14915625,-2.9080724716186523,3.2978365421295166,-2.3287875652313232,0.1423314958810806,-0.1282816082239151,0.5955931544303894
1772903813950142200,5.16814208984375,-1.1634559631347656,2.171058416366577,1.0869603157043457,0.131946787238121,-0.2272416949272155,0.2932150959968567
1772903813969128200,5.187128173828125,0.5609149932861328,-3.2853024005889893,7.296716213226318,0.5216785073280334,-0.0335975624620914,-0.9272927641868592
1772903813988114400,5.206114501953125,8.820417404174805,-5.306236743927002,12.351699829101562,1.32985258102417,-0.0232128612697124,-2.249204158782959
1772903814007100200,5.22510009765625,25.894519805908203,-2.299262523651123,23.853145599365234,0.9498947262763976,-0.1594357043504715,-2.221104383468628
1772903814026086400,5.24408642578125,34.57422637939453,-7.168112754821777,31.889875411987305,-0.6071996092796326,1.479514479637146,-1.117882490158081
1772903814045072400,5.263072265625,30.75948715209961,-7.30019998550415,20.64973258972168,-0.7177661061286926,2.523482322692871,0.0299323741346597
1772903814064058400,5.282058349609375,24.002933502197266,-4.026013374328613,11.018381118774414,0.1649334877729416,1.9492695331573489,1.202792763710022
1772903814083044400,5.30104443359375,15.705411911010742,-2.751882791519165,11.573776245117188,0.2101374864578247,1.2156208753585815,2.12275505065918
1772903814102030300,5.3200302734375,4.900424003601074,-1.5270655155181885,10.985422134399414,-0.5968148708343506,1.2180644273757937,2.3628249168396
1772903814121016300,5.339016357421875,-6.890449523925781,0.5322966575622559,4.792842864990234,-1.2822052240371704,1.627954602241516,1.525329351425171
1772903814140002600,5.35800244140625,-15.156288146972656,3.01273775100708,-1.8273510932922363,-1.5760310888290403,1.7696752548217771,-0.0500909127295017
1772903814158988300,5.37698828125,-13.87860870361328,1.6031407117843628,-4.745842933654785,-1.7244713306427002,1.6768238544464111,-0.9957095980644226
1772903814177974500,5.395974609375,-9.82456111907959,0.8761638402938843,-7.059519767761231,-1.5876375436782837,1.311526656150818,-0.7929024696350098
1772903814196960500,5.41496044921875,-9.339360237121582,-0.4868661165237427,-8.434818267822266,-1.1417062282562256,0.6774490475654602,-0.1802051067352295
1772903814215946500,5.433946533203125,-10.481882095336914,-0.715170681476593,-8.728828430175781,-0.5308414697647095,0.1178968995809555,0.0910188555717468
1772903814234932500,5.452932373046875,-10.287378311157228,-0.494128942489624,-6.835272312164307,-0.1600465774536132,-0.026267185807228,0.0244345907121896
1772903814253918500,5.47191845703125,-9.253314018249512,-1.0113352537155151,-5.603832244873047,0.0525343716144561,0.2693913578987121,-0.013439024798572
1772903814272904400,5.490904541015625,-9.197867393493652,-0.5394782423973083,-6.181832790374756,0.3549124300479889,0.1692095398902893,0.0629190728068351
1772903814291890400,5.509890380859375,-8.726679801940918,0.172398567199707,-6.413167953491211,0.7599157691001892,-0.1288924664258957,0.1667660921812057
1772903814310876400,5.52887646484375,-7.461543560028076,0.4273581504821777,-4.965676784515381,0.94439697265625,-0.1832594275474548,0.3072649836540222
1772903814329862700,5.547862548828125,-6.246273994445801,0.8383793830871582,-3.5063629150390625,0.860708475112915,-0.0763580948114395,0.4825831651687622
1772903814348848400,5.566848388671875,-6.305330753326416,0.7684453725814819,-2.441967248916626,0.5583304166793823,0.1380554437637329,0.6053670048713684
1772903814367834600,5.585834716796875,-7.202062606811523,0.6687076091766357,-2.680582046508789,0.2816086709499359,0.215024396777153,0.5900954008102417
1772903814386820600,5.604820556640625,-7.750859260559082,0.7926099300384521,-2.8969273567199707,0.0702494531869888,0.1569922417402267,0.4691441655158996
1772903814405806600,5.623806640625,-7.380122184753418,0.5085233449935913,-2.6764039993286133,-0.1350011229515075,0.2412915825843811,0.3213148713111877
1772903814424792600,5.64279248046875,-5.581781387329102,0.3006986379623413,-2.3610825538635254,-0.3622428178787231,0.5100721120834351,0.318871408700943
1772903814443778600,5.661778564453125,-4.364975929260254,0.5526834726333618,-2.81506872177124,-0.5100721120834351,0.8668171167373657,0.3683514595031738
1772903814462764500,5.6807646484375,-2.5028305053710938,1.3647863864898682,-4.540588855743408,-0.2443459182977676,1.0225876569747925,0.5534434914588928
1772903814481750500,5.69975048828125,0.1815910339355468,1.6081067323684692,-3.297466993331909,0.1838703006505966,0.4807505905628204,0.7935133576393127
1772903814500736500,5.718736572265625,1.2696409225463867,0.1968737840652465,2.42147159576416,0.1875354945659637,-0.2950477004051208,0.3408625423908233
1772903814519722500,5.737722412109375,6.054788589477539,-0.985266923904419,6.313295364379883,-0.1441640853881836,-0.1282816082239151,-0.980437994003296
1772903814538708700,5.756708740234375,18.020187377929688,-2.0299549102783203,6.856606960296631,-0.3707949221134186,0.8912517428398132,-1.879020094871521
1772903814557694700,5.77569482421875,31.473323822021484,-5.032908439636231,6.389869689941406,-0.0372627526521682,0.8845322132110596,-1.3811652660369873
1772903814576680700,5.7946806640625,40.102821350097656,-5.569710731506348,6.028444290161133,0.7049379348754883,0.0201585385948419,0.4471530318260193
1772903814595666700,5.813666748046875,35.09519958496094,-4.506503105163574,7.235834121704102,1.2009601593017578,-0.1857028901576995,2.3151774406433105
1772903814614652700,5.832652587890625,20.03260803222656,-2.0394539833068848,10.461996078491213,0.8759800791740417,0.3268126547336578,2.987128734588623
1772903814633638700,5.851638671875,2.792089462280273,-1.3318995237350464,11.678037643432615,-0.2400698512792587,0.8240565657615662,2.257145404815674
1772903814662117600,5.88011767578125,-11.651095390319824,-0.855509877204895,1.7512130737304688,-0.9407317638397216,1.0610721111297607,0.1123991161584854
1772903814681103600,5.899103515625,-11.820068359375,-0.4749352931976318,-3.70475435256958,-0.6224712133407593,0.9046907424926758,-0.8393282294273376
1772903814700089600,5.918089599609375,-8.077285766601562,-2.436110258102417,-4.655354499816895,-0.2217439115047454,0.7116574645042419,-0.5998691916465759
1772903814719075600,5.93707568359375,-9.409793853759766,-3.446739196777344,-5.870567798614502,0.346971184015274,0.1624900251626968,0.0940731763839721
1772903814738061600,5.9560615234375,-13.729610443115234,-3.2077152729034424,-5.191699504852295,0.7476984858512878,-0.5699368119239807,0.3652971386909485
1772903814757047600,5.975047607421875,-16.337602615356445,-2.538996934890747,-3.47518253326416,0.7165443897247314,-1.1893537044525146,0.0452039949595928
1772903814776033500,5.994033447265625,-16.82415771484375,-2.0097618103027344,-2.88897442817688,0.5125155448913574,-1.1362085342407229,-0.7641918659210205
1772903814795019800,6.013019775390625,-13.692809104919434,-1.9569249153137207,-3.600253105163574,0.4557051360607147,-0.7764091491699219,-1.4159845113754272
1772903814814005800,6.032005859375,-9.164981842041016,-2.184595823287964,-4.352278709411621,0.5894845128059387,-0.554665207862854,-1.461188554763794
1772903814832991700,6.05099169921875,-6.513885974884033,-1.9134485721588133,-4.448095321655273,0.7984002828598022,-0.6181951761245728,-1.0293071269989014
1772903814851977700,6.069977783203125,-6.613629341125488,-0.986659288406372,-3.12893295288086,0.7825177907943726,-0.7916807532310486,-0.5827649831771851
1772903814870963700,6.088963623046875,-8.316173553466797,0.3455588817596435,-1.9398996829986568,0.4581485986709595,-0.8338304162025452,-0.4954113364219665
1772903814889949700,6.10794970703125,-9.535122871398926,1.1956238746643066,-2.4667744636535645,0.1747073233127594,-0.4850266277790069,-0.8191696405410767
1772903814908935700,6.126935791015625,-8.470155715942383,1.8558744192123413,-3.258153200149536,0.0965166315436363,-0.0855210721492767,-1.1447606086730957
1772903814927921700,6.145921630859375,-5.617169380187988,2.2863428592681885,-2.9738454818725586,0.0702494531869888,0.0763580948114395,-1.073289394378662
1772903814946907600,6.16490771484375,-3.397031784057617,3.0293493270874023,-2.153700590133667,-0.1026252806186676,0.1178968995809555,-0.7104357481002808
1772903814965893600,6.1838935546875,-2.595892906188965,3.807968616485596,-2.5214591026306152,-0.2370155304670334,0.1233946830034256,-0.3824013471603393
1772903814984879600,6.202879638671875,-1.3875694274902344,4.361110687255859,-2.836201906204224,-0.2431241869926452,0.1624900251626968,-0.1484401375055313
1772903815003865600,6.221865478515625,1.1209754943847656,4.540076732635498,-2.196173667907715,-0.1551596522331237,0.3976729810237884,0.0592538826167583
1772903815022851600,6.2408515625,3.789921760559082,3.4384567737579346,0.0749707221984863,-0.2186895906925201,0.4092794060707092,0.1191186308860778
1772903815041837600,6.259837646484375,5.549844741821289,-0.6750732660293579,4.22612190246582,-0.4312705397605896,-0.0714711770415306,-0.5418370366096497
1772903815060823600,6.278823486328125,10.876235961914062,-2.860833644866944,5.472898483276367,-0.4373791813850403,-0.4312705397605896,-1.9205588102340696
1772903815079809500,6.2978095703125,25.34353256225586,-4.989367485046387,5.942823886871338,0.0910188555717468,-0.0836884751915931,-2.65970516204834
1772903815098795500,6.31679541015625,42.07463836669922,-12.023711204528809,11.31273078918457,0.6071996092796326,0.7788525819778442,-1.5662572383880615
1772903815117781500,6.335781494140625,46.24651336669922,-11.922301292419434,11.301401138305664,1.1362085342407229,0.9095776677131652,0.6133082509040833
1772903815136767500,6.354767578125,36.29268646240234,-6.944786548614502,8.851411819458008,1.589470148086548,0.750141978263855,2.392146587371826
1772903815155753700,6.373753662109375,19.422117233276367,-2.569910764694214,9.58836841583252,1.100778341293335,1.5485422611236572,3.0750932693481445
1772903815174739700,6.39273974609375,3.518993377685547,0.0653112232685089,6.230570316314697,0.4343248605728149,2.0964879989624023,2.97552227973938
1772903815193725700,6.4117255859375,-8.8553466796875,1.1590101718902588,-0.5377142429351807,0.565049946308136,2.2278237342834477,2.375653028488159
1772903815212711700,6.430711669921875,-14.787851333618164,0.925748348236084,-1.6485329866409302,0.8210022449493408,1.4104868173599243,1.997527837753296
1772903815231697700,6.44969775390625,-18.68306350708008,0.0902321338653564,1.0515992641448977,0.3750709891319275,0.6071996092796326,1.5216641426086426
1772903815250683600,6.46868359375,-21.46131134033203,-0.4531545639038086,0.8588390350341797,-0.1533270627260208,0.7629700899124146,0.4893026947975158
1772903815269669600,6.487669677734375,-21.293773651123047,-1.1227221488952637,-0.4444547891616821,-0.4526508152484894,1.0189224481582642,-0.5962040424346924
1772903815288655600,6.506655517578125,-18.02886199951172,-1.0210063457489014,-2.641280174255371,-0.3494146466255188,0.7269290685653687,-1.288313865661621
1772903815307641600,6.5256416015625,-13.449344635009766,-1.1115189790725708,-3.212958335876465,-0.036651886999607,0.4599811732769012,-1.5638138055801392
1772903815326627600,6.544627685546875,-8.976655006408691,-0.9757304191589355,-2.754751682281494,0.2858847081661224,0.3628536760807037,-1.3854413032531738
1772903815345613600,6.563613525390625,-5.836575508117676,-1.0541701316833496,-2.2110652923583984,0.6346884965896606,0.4233292937278747,-0.850934624671936
1772903815364599600,6.582599609375,-5.702939510345459,-0.5980627536773682,-1.2785465717315674,0.8894191384315491,0.2663370370864868,-0.2119700759649276
1772903815383585500,6.60158544921875,-8.277238845825195,0.1314296126365661,-0.7573809623718262,1.0122029781341553,0.0232128612697124,0.0549778304994106
1772903815402571500,6.620571533203125,-10.916627883911133,0.9934346675872804,-0.5791388154029846,1.0213658809661863,-0.1185077652335167,-0.2199113219976425
1772903815421557500,6.6395576171875,-11.320377349853516,1.221202373504639,-0.8081692457199097,1.0079269409179688,-0.0232128612697124,-0.656679630279541
1772903815440543500,6.65854345703125,-8.122647285461426,0.7732416391372681,-0.1579178571701049,1.0238093137741089,0.3323104381561279,-0.6731730103492737
1772903815459529500,6.677529541015625,-4.217110633850098,0.2893773019313812,0.8464477062225342,0.981048822402954,0.4141663312911987,0.0775798261165618
1772903815478515500,6.696515380859375,-5.291871070861816,1.2198222875595093,1.406421422958374,0.7483093738555908,-0.1930332630872726,0.8521563410758972
1772903815497501400,6.71550146484375,-8.400739669799805,1.6682922840118408,0.3503226041793823,0.6322450637817383,-0.5907062292098999,0.9303470849990844
1772903815516487400,6.7344873046875,-9.623011589050291,1.5658986568450928,0.1080445051193237,0.6676751971244812,-0.2333503514528274,0.4410443603992462
1772903815535473400,6.753473388671875,-6.142224311828613,0.4054380059242248,2.656182289123535,0.3805687427520752,0.1985310465097427,0.1740964651107788
1772903815554459400,6.77245947265625,-5.260318279266357,0.3313590884208679,3.4149961471557617,-0.0959057733416557,-0.1069013327360153,-0.6120865345001221
1772903815573445400,6.7914453125,0.6840085983276367,-0.3693507015705108,1.1965419054031372,-0.1606574356555938,-0.5937605500221252,-1.950491189956665
1772903815592431400,6.810431396484375,16.792644500732422,-4.126916408538818,1.959579348564148,-0.0916297137737274,-1.094058871269226,-2.713461399078369
1772903815611417300,6.829417236328125,35.68712615966797,-8.409451484680176,3.382899284362793,0.0513126403093338,-1.982867121696472,-2.302349328994751
1772903815630403300,6.8484033203125,51.24253463745117,-10.796401977539062,5.253829002380371,0.2034179717302322,-1.4917317628860474,-0.389120876789093
1772903815649389300,6.867389404296875,45.08280944824219,-7.491682529449463,6.443864822387695,-0.0800232887268066,0.3695732057094574,1.227838158607483
1772903815668375300,6.886375244140625,27.321121215820312,-1.707991361618042,3.8841490745544434,-0.3842339515686035,1.778838276863098,1.6169590950012207
1772903815687361300,6.905361328125,13.596400260925291,1.051568865776062,2.9280056953430176,-0.8313869833946228,1.7146974802017212,1.740964651107788
1772903815706347300,6.92434716796875,2.160531044006348,2.969761610031128,-0.9173142910003662,-1.0830632448196411,0.7727439403533936,1.4440842866897583
1772903815725333200,6.943333251953125,-3.8481268882751465,2.389401435852051,-3.451845169067383,-0.963333785533905,0.5064069032669067,0.9474512934684752
1772903815744319200,6.9623193359375,-5.849938869476318,0.7596946358680725,-3.38222074508667,-0.7104357481002808,0.7831286191940308,0.8833104968070984
1772903815763305200,6.98130517578125,-8.944024085998535,0.2579888105392456,-3.2049107551574707,-0.430659681558609,0.8161153197288513,1.1716386079788208
1772903815782291200,7.000291259765625,-13.16179370880127,-0.4714351892471313,-2.475503206253052,-0.2748891413211822,0.4630354940891266,1.536324977874756
1772903815801277200,7.019277099609375,-18.324871063232425,-0.163692831993103,-2.4874467849731445,-0.2394589930772781,-0.0757472291588783,1.5228859186172483
1772903815820263200,7.03826318359375,-21.01965713500977,0.1130167245864868,-2.07259202003479,-0.1966984570026397,-0.4636463820934295,0.9688315391540528
1772903815839249200,7.057249267578125,-21.90002822875977,-0.4929620027542114,-1.051777958869934,-0.3769035637378692,-0.7281508445739746,0.0708603113889694
1772903815858235100,7.076235107421875,-20.0098876953125,-0.1531397104263305,-2.1850264072418213,-0.3048215210437774,-0.7348703145980835,-0.916297197341919
1772903815877221000,7.09522119140625,-15.89395523071289,-0.5520256161689758,-1.9451874494552608,-0.1728747338056564,-0.6450732350349426,-1.4391974210739136
1772903815896207000,7.11420703125,-9.71879768371582,-0.893095850944519,-1.1452150344848633,-0.1105665266513824,-0.5766563415527344,-1.1013891696929932
1772903815915193000,7.133193115234375,-7.549445152282715,-1.5941545963287354,-1.1284199953079224,-0.078190691769123,-0.667064368724823,-0.5015199780464172
1772903815934179000,7.152178955078125,-7.883520126342773,-1.30380117893219,-2.182009220123291,0.1655443608760833,-0.5815432667732239,-0.1447749584913253
1772903815953165000,7.1711650390625,-9.00951862335205,-0.5936509966850281,-1.9036070108413696,0.3359756171703338,-0.4477638900279999,-0.1001818254590034
1772903815972151000,7.190151123046875,-9.121515274047852,0.0604079365730285,-1.3405559062957764,0.3555232882499695,-0.5015199780464172,-0.1282816082239151
1772903815991137000,7.209136962890625,-8.428831100463867,0.5926318168640137,-1.0360721349716189,0.2993237376213074,-0.739757239818573,-0.1429423540830612
1772903816010123000,7.228123046875,-6.394465923309326,0.854270339012146,-0.5829787254333496,0.2290742993354797,-0.6096430420875549,-0.2107483446598053
1772903816029109000,7.24710888671875,-3.0849857330322266,1.194282293319702,0.0568587779998779,0.1331685185432434,-0.2431241869926452,-0.1973093301057815
1772903816048095000,7.266094970703125,1.926255226135254,1.817341685295105,0.2098019123077392,0.1166751757264137,-0.1215620934963226,0.1722638607025146
1772903816067081000,7.2850810546875,6.563426971435547,1.9114117622375488,1.3278518915176392,0.0922405794262886,0.0696385875344276,0.6597339510917664
1772903816086067000,7.30406689453125,8.101371765136719,1.4975881576538086,2.625042200088501,-0.0891862586140632,-0.1221729591488838,0.4282162189483642
1772903816105053000,7.323052978515625,12.550591468811035,0.8692816495895386,3.117645740509033,-0.3280344009399414,-0.5760455131530762,-0.5803215503692627
1772903816124039000,7.342038818359375,23.431190490722656,-2.128139972686768,3.5561859607696533,-0.2675587832927704,0.3268126547336578,-1.3225222826004028
1772903816143025000,7.36102490234375,34.03812026977539,-6.064051151275635,2.38785457611084,0.4147771894931793,1.4831796884536743,-0.7617483735084534
1772903816162011000,7.380010986328125,37.49982452392578,-5.216344833374023,3.2514472007751465,1.074511170387268,0.430659681558609,1.156977891921997
1772903816180996900,7.398996826171875,27.321563720703125,-4.560291290283203,6.50527286529541,1.072678565979004,-0.5155698657035828,2.713461399078369
1772903816199982800,7.41798291015625,10.271215438842772,-1.3657759428024292,6.524501323699951,0.7599157691001892,-0.4092794060707092,2.423300504684448
1772903816218968800,7.43696875,-2.3143129348754883,0.8453991413116455,4.496331691741943,0.5229002237319946,0.7348703145980835,0.6713404059410095
1772903816237954800,7.455954833984375,-5.966725826263428,1.313195824623108,2.5292410850524902,0.3133736252784729,1.3432916402816772,-1.0024291276931765
1772903816256940800,7.47494091796875,-4.734228134155273,0.4527517557144165,0.8556240797042847,0.2247982323169708,1.1575887203216553,-1.694538950920105
1772903816275926800,7.4939267578125,-2.9389419555664062,0.2286069393157959,-0.5293305516242981,0.3500255048274994,0.6267472505569458,-1.4343105554580688
1772903816294912800,7.512912841796875,-1.294560432434082,-0.058175504207611,0.9172583818435668,0.2748891413211822,0.6181951761245728,-0.3457494676113128
1772903816313898500,7.5318984375,-3.6911888122558594,-0.8016681671142578,1.3553533554077148,0.0604756139218807,1.100778341293335,0.8735366463661194
1772903816332884700,7.550884765625,-8.507248878479004,-0.5263904333114624,0.3981344699859619,-0.0061086476780474,1.212566614151001,1.5210533142089844
1772903816351870500,7.569870361328125,-13.213544845581056,-0.895770788192749,0.2159624099731445,-0.1429423540830612,0.6707295179367065,1.553429126739502
1772903816370856400,7.5888564453125,-17.203548431396484,-0.7204083204269409,-1.0252997875213623,-0.1331685185432434,0.2046397030353546,0.8808670043945312
1772903816389842700,7.6078427734375,-18.399696350097656,-0.6076532602310181,-1.765977382659912,0.0769689604640007,0.1551596522331237,-0.2693913578987121
1772903816408828400,7.626828369140625,-15.318208694458008,-0.7364442348480225,-0.4574973285198211,0.1215620934963226,0.3799578845500946,-1.1710277795791626
1772903816427814400,7.645814453125,-11.059612274169922,-0.4789441227912903,0.5145848393440247,-0.0195476729422807,0.4239401519298553,-1.426369309425354
1772903816446800400,7.66480029296875,-8.045703887939453,-0.4241114854812622,0.6412394046783447,-0.1802051067352295,0.2577849328517914,-1.1557561159133911
1772903816465786400,7.683786376953125,-4.759268283843994,-0.0945596694946289,0.0501642823219299,-0.1771507859230041,0.1264490038156509,-0.360410213470459
1772903816484772400,7.7027724609375,-5.580393314361572,-1.135033369064331,0.0291630327701568,-0.1166751757264137,0.1081230640411377,0.2956585586071014
1772903816503758300,7.72175830078125,-8.022616386413574,-0.2509524226188659,-0.8367854952812195,0.0415388047695159,-0.067805990576744,0.5161807537078857
1772903816522744300,7.740744384765625,-9.924397468566896,0.4499189853668213,-0.2790548205375671,0.013439024798572,-0.5259546041488647,0.4007273018360138
1772903816541730300,7.759730224609375,-9.748495101928713,0.5498812198638916,0.0920626521110534,-0.0934623107314109,-0.6695078015327454,0.1411097645759582
1772903816560716300,7.77871630859375,-6.310108184814453,0.1187474727630615,-0.4353735744953155,-0.026267185807228,-0.407446801662445,0.1069013327360153
1772903816579702300,7.797702392578125,-2.1019725799560547,0.6064029932022095,0.463218629360199,-0.0830776095390319,-0.2467893660068512,0.3726275265216827
1772903816598688300,7.816688232421875,-0.7678556442260742,2.2867860794067383,0.9611050486564636,-0.3488037884235382,-0.407446801662445,0.258395791053772
1772903816617674200,7.83567431640625,2.4381542205810547,2.80326509475708,0.3289415240287781,-0.4886918365955353,-0.6224712133407593,-0.5369501113891602
1772903816636660200,7.85466015625,16.62725830078125,2.398331642150879,0.5541340112686157,-0.5332849621772766,-1.030528903007507,-0.9853248596191406
1772903816655646200,7.873646240234375,30.20734405517578,-0.9773181676864624,2.127920150756836,-0.5345066785812378,-1.008537769317627,-0.6493492722511292
1772903816674632200,7.892632080078125,34.428192138671875,-3.5708279609680176,1.914706826210022,-0.1307250559329986,-0.6945532560348511,-0.21319180727005
1772903816693618200,7.9116181640625,32.726051330566406,-3.6358933448791504,3.8393712043762207,0.1563813835382461,-0.0452039949595928,0.4129445850849151
1772903816712604000,7.93060400390625,22.589649200439453,-1.342457890510559,3.149464607238769,0.2571740746498108,0.3341430425643921,0.8277217745780945
1772903816731590000,7.94958984375,9.587071418762209,1.1173276901245115,2.200136661529541,0.1404989063739776,0.5980366468429565,0.7953459620475769
1772903816750576000,7.968576171875,-1.774515151977539,2.5315375328063965,0.5976107120513916,-0.0146607551723718,0.4654789566993713,0.1893680840730667
1772903816769561900,7.987561767578125,-6.020911693572998,2.308483600616455,0.6211518049240112,-0.3048215210437774,0.0244345907121896,-0.379347026348114
1772903816788547800,8.0065478515625,-7.4731764793396,1.3466347455978394,-0.3358336687088012,-0.5241219997406006,-0.1062904745340347,-0.6444623470306396
1772903816807533800,8.025533935546875,-8.659895896911621,0.1215666532516479,-1.2162684202194214,-0.5418370366096497,0.2467893660068512,-0.6731730103492737
1772903816826519800,8.044519775390626,-10.011434555053713,-0.9384252429008484,-1.9564523696899412,-0.4202749729156494,0.4190532267093658,-0.4825831651687622
1772903816845505800,8.063505859375,-11.789356231689451,-0.4972797036170959,-2.9950687885284424,-0.1417206227779388,0.2266308367252349,-0.2596175372600555
1772903816864491800,8.08249169921875,-13.303750991821287,0.0966264009475708,-2.333651304244995,0.0140498895198106,-0.1032361462712287,-0.1594357043504715
1772903816883477800,8.101477783203125,-13.82796859741211,-0.0894070267677307,-0.9470263123512268,-0.0335975624620914,-0.3579667508602142,-0.1679878085851669
1772903816902463700,8.120463623046875,-14.33597183227539,0.1336948275566101,0.5928741693496704,-0.3292561173439026,-0.4990765154361725,-0.4141663312911987
1772903816921449700,8.13944970703125,-14.465447425842283,-0.0614030957221984,0.5959169864654541,-0.5864301919937134,-0.3995055556297302,-0.7984002828598022
1772903816940435700,8.158435791015625,-13.56336784362793,-0.3390854299068451,-0.7515115141868591,-0.5088503360748291,-0.401949018239975,-1.081230640411377
1772903816959421400,8.17742138671875,-11.414144515991213,-0.3346488177776336,-0.8657516241073608,-0.2791652083396911,-0.6071996092796326,-0.9663881063461304
1772903816978407700,8.19640771484375,-10.740002632141112,-0.3966449499130249,-0.0536831617355346,-0.1832594275474548,-0.9578359723091124,-0.6432406306266785
1772903816997393400,8.215393310546874,-11.122146606445312,-0.495678186416626,-0.3585646152496338,-0.0684168562293052,-1.4196497201919556,-0.3714057803153991
1772903817016379400,8.23437939453125,-11.60202980041504,-0.5855675935745239,-1.2428441047668457,0.2040288299322128,-1.709810495376587,-0.1539379209280014
1772903817035365400,8.253365478515626,-11.776108741760254,-0.8008337616920471,-1.2735031843185425,0.4917461574077606,-2.120311737060547,0.0042760535143315
1772903817054351400,8.272351318359375,-11.19311237335205,-0.4930920302867889,-2.5488061904907227,0.9401208758354188,-2.941313982009888,0.0647516697645187
1772903817073337300,8.29133740234375,-7.603763580322266,-1.1423450708389282,-2.4109785556793213,1.406821608543396,-3.3817474842071533,0.3182605504989624
1772903817092323300,8.3103232421875,-3.3825063705444336,-1.6944907903671265,-0.8230719566345215,1.68354332447052,-3.0243914127349854,0.5723803043365479
1772903817111309300,8.329309326171876,-3.477903366088867,-1.497756838798523,3.5918631553649902,1.6377284526824951,-2.662148714065552,-0.2162461280822754
1772903817130295300,8.34829541015625,-1.8206806182861328,-3.4038002490997314,10.562885284423828,1.229670763015747,-2.731176376342773,-2.2088871002197266
1772903817149281000,8.367281005859375,15.795783996582031,-3.786789894104004,13.886154174804688,0.8271108865737915,-2.127031087875366,-3.508196353912353
1772903817168267300,8.386267333984375,35.01552200317383,-9.593897819519045,17.92896270751953,0.6524035930633545,-0.5729911923408508,-2.9914047718048096
1772903817187253000,8.4052529296875,44.88121795654297,-11.273699760437012,17.681846618652344,0.7568614482879639,-0.4031707644462585,-0.720820426940918
1772903817206239000,8.424239013671874,41.01737976074219,-4.525842666625977,17.985633850097656,0.3585776388645172,-1.0891718864440918,1.6591087579727173
1772903817225225000,8.443224853515625,22.97828865051269,-3.097906827926636,17.07879066467285,-0.5705476999282837,0.2864955961704254,1.894291639328003
1772903817244211000,8.4622109375,8.510157585144043,-2.950778722763061,12.104289054870604,-1.1520910263061523,1.6242893934249878,0.7232639193534851
1772903817263197000,8.481197021484375,1.1357107162475586,-4.272141933441162,6.182295799255371,-1.278540015220642,1.775783896446228,-0.6114756464958191
1772903817282183000,8.500182861328126,1.3188562393188477,-2.587280511856079,2.878950595855713,-1.4569125175476074,0.7312051653862,-1.1557561159133911
1772903817301169000,8.5191689453125,3.2401418685913086,-0.636894941329956,-1.846533298492432,-1.285259485244751,0.2846629917621612,-1.185077667236328
1772903817320155000,8.53815478515625,6.467800140380859,0.0729445219039917,-3.927548885345459,-0.908355951309204,0.8069523572921753,-0.3866774141788482
1772903817339140900,8.557140869140625,2.618785858154297,0.8002416491508484,-4.127833366394043,-0.7073814272880554,1.4245367050170898,0.7312051653862
1772903817358126800,8.576126953125,-7.770209312438965,1.7635648250579834,-4.844728946685791,-0.6359102129936218,1.518609881401062,1.1380411386489868
1772903817377112600,8.595112548828125,-15.267486572265623,2.9853451251983643,-5.587264060974121,-0.6450732350349426,1.0708459615707395,0.8295543789863586
1772903817396098600,8.6140986328125,-17.25458526611328,3.460540294647217,-5.820676803588867,-0.66645348072052,0.3121519088745117,0.2241873741149902
1772903817415084500,8.63308447265625,-16.607158660888672,2.292720317840576,-6.431879043579102,-0.6444623470306396,-0.1966984570026397,-0.5039634704589844
1772903817434070500,8.652070556640625,-10.752513885498049,2.131692886352539,-7.311676025390625,-0.4098902642726898,0.171653002500534,-0.5057960152626038
1772903817453056500,8.671056396484374,-9.986711502075195,0.6782472133636475,-5.785599231719971,-0.4269944727420807,0.0079412423074245,-0.2070831656455993
1772903817472042500,8.69004248046875,-10.878042221069336,1.472247838973999,-7.828880310058594,-0.1429423540830612,-0.6029235124588013,-0.1472184062004089
1772903817491028500,8.709028564453124,-10.217562675476074,1.2421705722808838,-7.765064239501953,0.2162461280822754,-1.0952805280685425,-0.1246164143085479
1772903817510014500,8.728014404296875,-8.577848434448242,1.2360084056854248,-5.823897838592529,0.3341430425643921,-1.2070688009262085,0.0500909127295017
1772903817529000200,8.747000244140626,-8.5152587890625,1.426309585571289,-4.8880295753479,0.3200931549072265,-1.054352641105652,0.1844811588525772
1772903817547986200,8.765986083984375,-9.227956771850586,2.105229139328003,-4.970631122589111,0.3707949221134186,-1.0604612827301023,0.1783725172281265
1772903817566972200,8.78497216796875,-8.295634269714355,2.719338178634644,-4.637233257293701,0.4709767401218414,-1.3616175651550293,0.2602283954620361
1772903817585958100,8.803958251953125,-7.198445796966553,2.948688507080078,-3.893524169921875,0.6414080262184143,-1.441640853881836,0.4098902642726898
1772903817604944100,8.822944091796876,-6.085400104522705,3.2911033630371094,-2.1038856506347656,0.6261364221572876,-1.0134246349334717,0.5088503360748291
1772903817623930000,8.84193017578125,-5.236011505126953,3.963329792022705,-0.7017040252685547,0.5131264328956604,-0.2968802750110626,0.3292561173439026
1772903817642916000,8.860916015625,-2.338407039642334,3.4634735584259038,1.5222578048706057,0.3640754222869873,-0.3066541254520416,0.1612683087587356
1772903817661901800,8.87990185546875,1.6782641410827637,-0.7899907231330872,7.028102397918701,0.0714711770415306,-1.4410300254821775,-0.3262017965316772
1772903817680887800,8.8988876953125,8.00593376159668,-8.113632202148438,11.214495658874512,0.2852738499641418,-1.320689678192139,-1.6413936614990234
1772903817699873800,8.917873779296874,22.710214614868164,-8.723125457763672,13.752470016479492,1.0684025287628174,-0.6811142563819885,-2.3573272228240967
1772903817718859800,8.93685986328125,38.73108673095703,-11.155498504638672,24.432003021240234,0.5216785073280334,-0.0635299384593963,-1.122769474983215
1772903817737845800,8.955845703125,40.78022384643555,-8.293853759765625,21.943408966064453,-0.2254091054201126,0.5845975875854492,1.173471212387085
1772903817756831700,8.974831787109375,22.200578689575195,-5.4692583084106445,15.302963256835938,-0.7415898442268372,1.1502584218978882,2.0494513511657715
1772903817775817700,8.993817626953126,1.3930959701538086,-2.005542278289795,6.447443008422852,-0.8387173414230347,1.527161955833435,1.0018181800842283
1772903817794803700,9.0128037109375,-6.449171543121338,1.8486316204071045,0.9071474075317384,-0.9743293523788452,1.754403591156006,-0.3494146466255188
1772903817813789400,9.03178955078125,-4.816155910491943,3.288386344909668,-3.1357522010803223,-1.2400555610656738,1.739132046699524,-0.6456840634346008
1772903817832775400,9.050775390625,-5.706411838531494,3.6631052494049072,-8.06424331665039,-1.082452416419983,1.454469084739685,-0.3988946974277496
1772903817851761400,9.069761474609376,-8.083488464355469,3.944193840026856,-11.094840049743652,-0.4331031143665313,0.7660244107246399,-0.0806341543793678
1772903817870747400,9.088747314453125,-9.799070358276367,3.933290719985962,-9.964435577392578,0.1105665266513824,-0.0879645273089408,0.1667660921812057
1772903817889733400,9.1077333984375,-11.09391975402832,3.8409206867218018,-7.371304512023926,0.2895499169826507,-0.5870410799980164,0.1307250559329986
1772903817908719400,9.12671923828125,-10.86874008178711,3.1838841438293457,-5.545514583587647,0.277332603931427,-0.4007273018360138,-0.150883600115776
1772903817927705000,9.145705078125,-9.773550033569336,2.9372551441192627,-4.519567489624023,0.1404989063739776,-0.1362228393554687,-0.4123337268829345
1772903817946691000,9.164691162109374,-8.356206893920898,2.9445700645446777,-4.339680671691895,-0.0183259434998035,0.1252272725105285,-0.5125155448913574
1772903817965677000,9.183677001953123,-6.775885581970215,2.98321795463562,-4.612697124481201,-0.0549778304994106,0.2803869247436523,-0.4123337268829345
1772903817984663000,9.2026630859375,-6.206238746643066,3.1855127811431885,-4.268955230712891,-0.1001818254590034,0.2376264035701751,-0.1649334877729416
1772903818003649000,9.22164892578125,-6.667725086212158,3.7590348720550537,-3.818619728088379,-0.2266308367252349,0.0598647482693195,0.0018325943965464
1772903818022635000,9.240635009765626,-6.861166477203369,3.485719680786133,-3.1386239528656006,-0.4563159942626953,0.2351829409599304,-0.0433713980019092
1772903818041621000,9.25962109375,-5.523329734802246,2.7551331520080566,-3.129818916320801,-0.6701186895370483,0.5821541547775269,-0.0372627526521682
1772903818060606700,9.278606689453126,-3.9454030990600586,2.3143415451049805,-3.609241247177124,-0.7409789562225342,0.7806851863861084,0.1350011229515075
1772903818079592700,9.2975927734375,-1.4360036849975586,1.928150296211243,-3.9450178146362314,-0.6420188546180725,0.768467903137207,0.5076286196708679
1772903818098578700,9.31657861328125,0.9380722045898438,1.9838519096374512,-3.7400341033935542,-0.2901607751846313,0.5290089249610901,0.9657772183418274
1772903818117564700,9.335564697265625,3.141791343688965,1.31785786151886,0.707221508026123,-0.3072649836540222,0.130114197731018,1.3096940517425537
1772903818136550700,9.354550537109375,4.805739402770996,-2.166697263717652,5.935338497161865,-0.7929024696350098,0.0861319303512573,0.9883792400360109
1772903818155536600,9.37353662109375,7.900172233581543,-7.142068862915039,8.267539024353027,-1.3390156030654907,0.8381064534187317,0.013439024798572
1772903818174522400,9.3925224609375,15.592917442321776,-6.942861080169678,3.632225513458252,-1.2632683515548706,2.1368050575256348,-0.3353647589683532
1772903818193508400,9.41150830078125,21.13862991333008,-6.707338809967041,0.7885622978210449,-0.5332849621772766,2.1025965213775635,0.305432379245758
1772903818212494300,9.430494384765623,20.303688049316406,-8.174124717712402,1.2052924633026123,0.5723803043365479,0.5662716627120972,0.9944878816604614
1772903818231480300,9.449480224609376,20.94177627563477,-5.785240173339844,4.96415901184082,1.2009601593017578,-0.7476984858512878,1.952934741973877
1772903818250466300,9.46846630859375,13.623085021972656,-4.629254341125488,12.324813842773438,0.3353647589683532,0.0836884751915931,2.251647472381592
1772903818269452000,9.4874521484375,-0.4558639526367187,-4.205826759338379,14.27609634399414,-1.212566614151001,1.5497639179229736,0.943175196647644
1772903818288438000,9.50643798828125,-8.986823081970215,-2.361682891845703,8.121213912963867,-2.3176209926605225,2.03112530708313,-1.0274745225906372
1772903818307424000,9.525424072265626,-5.544219017028809,-0.0577969551086425,-0.6091368198394775,-2.480111122131348,1.5986331701278689,-1.903454661369324
1772903818326410000,9.544409912109376,0.5081472396850586,0.3297728896141052,-4.865283489227295,-1.9132285118103027,0.675616443157196,-1.3261874914169312
1772903818345396000,9.56339599609375,1.340219497680664,-0.1091101169586181,-4.989377021789551,-1.284037709236145,0.3121519088745117,-0.2034179717302322
1772903818364382000,9.5823818359375,-2.612402439117432,-0.071987509727478,-4.342018127441406,-0.7562506198883057,0.5204567909240723,0.730594277381897
1772903818383367700,9.60136767578125,-8.212611198425293,0.4757924079895019,-4.167240142822266,-0.2816086709499359,0.4477638900279999,1.166140913963318
1772903818402353700,9.620353759765624,-11.889290809631348,0.984704852104187,-3.1313602924346924,0.0653625279664993,-0.0733037739992141,1.155145287513733
1772903818421339600,9.639339599609375,-12.882018089294434,0.9287188053131104,-1.2922393083572388,0.0537560991942882,-0.6114756464958191,0.8014546036720276
1772903818440325600,9.65832568359375,-12.979988098144531,1.0289621353149414,-0.2056391239166259,-0.1832594275474548,-0.6841685771942139,0.0812450125813484
1772903818459311600,9.6773115234375,-11.249199867248535,0.9877523183822632,-0.3036432266235351,-0.401949018239975,-0.1533270627260208,-0.6994401812553406
1772903818478297300,9.69629736328125,-6.855691432952881,0.9541348218917848,-1.031388759613037,-0.4434878230094909,0.7171552777290344,-0.9297361969947816
1772903818497283300,9.715283447265625,-3.9980716705322266,0.2279566526412964,-1.5331180095672607,-0.3738492429256439,1.0494656562805176,-0.6536253094673157
1772903818516269300,9.734269287109376,-3.396458148956299,0.1468998193740844,-1.7268903255462646,-0.3830122053623199,0.7959567904472351,-0.1380554437637329
1772903818535255300,9.75325537109375,-4.36380672454834,0.7236233949661255,-2.333928346633911,-0.38850998878479,0.3139844834804535,0.3164279460906982
1772903818554241300,9.7722412109375,-5.712584495544434,1.3338913917541504,-2.374213218688965,-0.3518581092357635,-0.0507017783820629,0.4373791813850403
1772903818573227300,9.791227294921876,-6.092881202697754,1.6034150123596191,-1.9834325313568115,-0.2437350451946258,0.2919933497905731,0.2797760665416717
1772903818592213000,9.810212890625,-2.576361656188965,1.7514208555221558,-2.049477815628052,0.0690277218818664,0.8222240209579468,0.1832594275474548
1772903818611199000,9.829198974609374,3.2639055252075195,0.4742523431777954,-0.0688869953155517,0.4202749729156494,-0.0671951249241828,0.1270598769187927
1772903818630185000,9.84818505859375,5.638232231140137,-2.5598881244659424,1.684603929519653,0.6517927050590515,1.0409135818481443,0.7892373204231262
1772903818649171000,9.8671708984375,6.834407806396484,-5.153879165649414,4.996161460876465,0.6768381595611572,0.2577849328517914,0.9865466356277466
1772903818668157000,9.886156982421875,8.746940612792969,-0.7575123310089111,4.854325294494629,0.0763580948114395,-1.5424336194992063,0.6108647584915161
1772903818687142700,9.905142578125,9.597408294677734,0.6325246095657349,2.9746484756469727,-0.0647516697645187,-3.115410327911377,-0.4214966893196106
1772903818706128600,9.924128662109377,9.983424186706545,-2.2360646724700928,5.20828914642334,0.0555886961519718,-2.670700788497925,-1.53510320186615
1772903818725114600,9.943114501953126,11.854736328125,-2.56016206741333,5.630037307739258,0.2712239623069763,-1.5387684106826782,-1.943160891532898
1772903818744100600,9.9621005859375,11.095465660095217,-2.6163997650146484,4.86627721786499,0.263893574476242,-0.5919279456138611,-1.6982040405273438
1772903818763086600,9.981086669921876,8.275155067443848,-1.6099956035614014,1.794431209564209,0.3799578845500946,0.0103847011923789,-1.1038326025009155
1772903818782072600,10.000072509765625,4.104545593261719,-0.1931687295436859,-0.0762286186218261,0.5864301919937134,0.4331031143665313,-0.4123337268829345
1772903818801058300,10.019058349609375,-1.2668981552124023,0.6447452902793884,-0.9604225158691406,0.6224712133407593,0.8350521326065063,0.078190691769123
1772903818820044300,10.038044189453124,-6.105181217193604,1.3887667655944824,-2.1705098152160645,0.4807505905628204,0.7812960743904114,0.2003636509180069
1772903818839030300,10.0570302734375,-8.385137557983398,1.765880107879639,-3.1361067295074463,0.2840521335601806,0.1178968995809555,0.1551596522331237
1772903818858016000,10.07601611328125,-9.172236442565918,1.148360013961792,-3.884756326675415,0.2040288299322128,-0.0299323741346597,0.0360410213470459
1772903818877002000,10.095001953125,-8.545270919799805,1.2017602920532229,-3.515542268753052,0.1325576603412628,0.0427605360746383,0.0195476729422807
1772903818895988000,10.113988037109374,-7.573748588562012,1.623083472251892,-3.6271402835845943,0.233961209654808,0.7000510096549988,0.0702494531869888
1772903818914974000,10.132973876953123,-7.581343650817871,1.5888906717300415,-3.5477428436279297,0.6169734001159668,1.924224019050598,-0.2174678593873977
1772903818933960000,10.1519599609375,-7.665851593017578,0.700526773929596,-2.574597120285034,0.8436042666435242,2.546084403991699,-0.6725621223449707
1772903818952946000,10.17094580078125,-7.399057865142822,0.6876872777938843,-1.2798768281936646,0.7709113359451294,2.828303813934326,-0.8967494964599609
1772903818971931600,10.189931640625,-6.6708664894104,1.2809700965881348,-0.7950379848480225,0.647516667842865,2.522871494293213,-0.8717040419578552
1772903818990917600,10.208917724609377,-6.58494234085083,1.5441349744796753,-0.5059890747070312,0.4899135529994964,1.6340632438659668,-0.6585122346878052
1772903819009903600,10.227903564453126,-6.743453025817871,1.7958261966705322,-0.6014786958694458,0.3897317349910736,0.8350521326065063,-0.2828303873538971
1772903819028889600,10.2468896484375,-6.40208101272583,1.9048213958740237,-0.2264062762260437,0.3549124300479889,0.3933969140052795,0.1264490038156509
1772903819047875600,10.26587548828125,-5.966378211975098,1.4817723035812378,0.1067540645599365,0.3292561173439026,-0.2064722925424575,0.5192350745201111
1772903819066861300,10.284861328125,-6.012239933013916,1.4644689559936523,0.2549725770950317,0.2944368124008178,-0.5528326034545898,0.8277217745780945
1772903819085847300,10.303847412109375,-5.613885402679443,1.4840856790542605,0.3862205743789673,0.2553414702415466,-0.3408625423908233,0.9498947262763976
1772903819104833300,10.322833251953124,-4.849082946777344,1.2724971771240234,1.2240922451019287,0.2125809490680694,-0.0103847011923789,0.5473348498344421
1772903819123819000,10.341819091796877,-3.1074981689453125,1.1390578746795654,1.484654664993286,0.0445931293070316,-0.7666352987289429,-0.1930332630872726
1772903819142805000,10.360804931640626,5.979916572570801,1.4935630559921265,1.181712627410889,-0.1600465774536132,-1.7818925380706787,-0.9352339506149292
1772903819161791000,10.379791015625,17.627689361572266,-0.0574059821665287,1.5092846155166626,-0.1881463527679443,-2.1019856929779053,-1.1673625707626345
1772903819180777000,10.39877685546875,25.85535430908203,-3.5869784355163574,2.440889358520508,0.119729496538639,-1.64872407913208,-0.9657772183418274
1772903819199763000,10.417762939453125,32.127681732177734,-3.418578863143921,4.32387638092041,0.5467239618301392,-0.9663881063461304,0.3787361681461334
1772903819218749000,10.4367490234375,26.023048400878903,-3.704156398773194,7.75806188583374,0.3616319596767425,0.1142317131161689,1.7006475925445557
1772903819237734700,10.455734619140625,12.708361625671388,-1.012014865875244,6.90903377532959,-0.1563813835382461,0.6255255341529846,1.666439175605774
1772903819256720600,10.474720703125,2.1076393127441406,0.9089375734329224,3.437898874282837,-0.5687150955200195,0.2755000293254852,0.4105011224746704
1772903819275706600,10.49370654296875,0.6566047668457031,1.291714072227478,-0.1584206819534301,-0.657290518283844,-0.2596175372600555,-0.7611374855041504
1772903819294692400,10.5126923828125,3.754176139831543,-0.2676707506179809,-0.4184408187866211,-0.6688969135284424,-0.8338304162025452,-1.1527018547058103
1772903819313678300,10.53167822265625,5.631255149841309,-1.4373791217803955,-0.2928495407104492,-0.6688969135284424,-1.2107340097427368,-0.8985821008682251
1772903819332664300,10.550664306640623,4.076314926147461,-1.280412673950195,-1.115795373916626,-0.5082395076751709,-1.258381485939026,-0.5235111117362976
1772903819351650300,10.569650390625,1.0367927551269531,-0.7919639945030212,-1.054722547531128,-0.3249800503253937,-0.7476984858512878,-0.1649334877729416
1772903819370636000,10.588635986328123,-2.201227188110352,-0.2396607995033264,-1.0918383598327637,-0.2492328286170959,-0.1069013327360153,0.1062904745340347
1772903819389622000,10.6076220703125,-4.78832483291626,0.2748585939407348,-1.0727262496948242,-0.2926042377948761,0.516791582107544,0.3084867000579834
1772903819408608000,10.62660791015625,-6.754489898681641,0.6030903458595276,-1.100882053375244,-0.4422661066055298,0.9688315391540528,0.3610210716724396
1772903819427594000,10.645593994140626,-8.074663162231445,0.8531288504600525,-1.7400524616241455,-0.5839866995811462,1.1795798540115356,0.1979201883077621
1772903819446580000,10.664580078125,-8.068741798400879,0.8555110692977905,-2.505632162094116,-0.5919279456138611,1.2956441640853882,0.1191186308860778
1772903819465565700,10.683565673828124,-7.209507942199707,0.6878714561462402,-2.5397229194641118,-0.5479456782341003,1.0225876569747925,0.2290742993354797
1772903819484551700,10.7025517578125,-6.937280654907227,0.2228101193904876,-2.0702767372131348,-0.5369501113891602,0.6224712133407593,0.45875945687294
1772903819503537700,10.72153759765625,-6.973176002502441,0.248672753572464,-1.7703757286071775,-0.4575377106666565,0.4141663312911987,0.758083164691925
1772903819522523400,10.7405234375,-6.395822048187256,0.1150281429290771,-1.4681811332702637,-0.346971184015274,0.1747073233127594,1.0653481483459473
1772903819541509400,10.75950927734375,-6.281249046325684,-0.3669852018356323,-1.1866695880889893,-0.2571740746498108,-0.0427605360746383,1.0684025287628174
1772903819560495400,10.778495361328124,-6.632275581359863,-0.8378453254699707,-0.7322812676429749,-0.2449567764997482,0.4367683231830597,0.99021178483963
1772903819579481300,10.7974814453125,-6.332644462585449,-0.6894513368606567,-0.3773587346076965,-0.1991419196128845,0.9786053895950316,0.9492838382720948
1772903819598467000,10.816467041015626,-5.648467540740967,-0.2893286943435669,-0.2217836380004882,-0.2290742993354797,1.0855066776275637,0.8680388331413269
1772903819617453000,10.835453125,-5.165009498596191,-0.326257586479187,-0.1627621054649353,-0.2700022459030151,1.1056652069091797,0.5717694163322449
1772903819636439000,10.85443896484375,-3.4739227294921875,-0.751483678817749,0.0229504704475402,-0.2394589930772781,1.3640609979629517,0.2852738499641418
1772903819655425000,10.873425048828125,-1.0089044570922852,-0.999938428401947,0.1540760844945907,-0.0073303775861859,2.392146587371826,0.3591884970664978
1772903819674411000,10.892410888671876,1.618403434753418,0.0980372428894043,-0.1537350118160247,0.1240055486559867,2.014021158218384,0.4697550237178802
1772903819693396700,10.911396728515625,3.7840452194213863,2.652615547180176,-0.9146748781204224,-0.1191186308860778,-0.0409279391169548,0.0476474538445472
1772903819712382700,10.9303828125,4.568641662597656,0.5549893379211426,0.455227255821228,-0.3451386094093323,0.0525343716144561,-0.4911352694034576
1772903819731368700,10.94936865234375,6.038121223449707,0.4736390113830566,-0.757022500038147,-0.2021962404251098,-0.0769689604640007,-1.2021819353103638
1772903819750354400,10.9683544921875,9.44569492340088,0.2211564779281616,-0.6825927495956421,0.0311541035771369,-1.3976585865020752,-1.6707152128219604
