time,seconds_elapsed,acc_z,acc_y,acc_x,gyro_z,gyro_y,gyro_x
1772903878672411600,0.11041162109375,-0.7254390716552734,-0.0986979007720947,-0.1897236108779907,0.2791652083396911,0.6646208763122559,0.8533781170845032
1772903878691397000,0.129397216796875,-0.8734979629516602,0.1011605262756347,-0.2216139435768127,0.3500255048274994,0.3610210716724396,0.8075632452964783
1772903878710382600,0.148382568359375,-1.140760898590088,0.3535741567611694,-0.1349666714668274,0.3750709891319275,0.0299323741346597,0.6890554428100586
1772903878729368000,0.1673681640625,-1.6548089981079102,0.3222850561141968,-0.0924883484840393,0.4153880476951599,-0.1820377111434936,0.4557051360607147
1772903878748353500,0.186353515625,-2.024145126342773,0.0755727291107177,-0.0047217607498168,0.4709767401218414,-0.5119046568870544,0.1466075479984283
1772903878767339000,0.205339111328125,-2.504054069519043,-0.3719393610954284,-0.0893281102180481,0.5192350745201111,-0.8338304162025452,-0.1997527778148651
1772903878786324700,0.22432470703125,-2.254727602005005,-0.1799993515014648,0.0169665813446044,0.5687150955200195,-0.851545512676239,-0.5601630210876465
1772903878805310200,0.243310302734375,-2.239966869354248,-0.59989994764328,-0.0230528116226196,0.7275399565696716,-0.9566142559051514,-0.9181297421455384
1772903878824295700,0.262295654296875,-2.184759616851806,-1.1053858995437622,0.2904183864593506,0.8484911918640137,-0.9853248596191406,-1.2553271055221558
1772903878843281200,0.28128125,-1.4329876899719238,-1.2917993068695068,0.5257247686386108,0.9651663303375244,-1.2162318229675293,-1.5332705974578855
1772903878862266600,0.3002666015625,-0.8388779163360596,-1.296561598777771,0.8426098823547363,1.0378592014312744,-1.6688826084136963,-1.8173227310180664
1772903878881252000,0.319252197265625,0.2875392436981201,-1.0776225328445437,1.5180187225341797,0.9743293523788452,-2.4434590339660645,-2.2345433235168457
1772903878900237600,0.338237548828125,3.3596410751342773,-0.8822515606880188,2.121398448944092,0.925460159778595,-3.4245078563690186,-2.7617197036743164
1772903878919223300,0.357223388671875,9.393295288085938,-0.5655017495155334,3.5919785499572754,0.8729257583618164,-3.820348262786865,-2.9095489978790283
1772903878938208800,0.376208740234375,16.194833755493164,-0.5550259351730347,6.269855976104736,0.5852084755897522,-3.2821764945983887,-2.413526773452759
1772903878957194000,0.395194091796875,20.188270568847656,-0.0812318325042724,6.672623634338379,0.1973093301057815,-2.003025531768799,-1.5515965223312378
1772903878976179700,0.4141796875,19.33345413208008,0.1434582471847534,5.201823711395264,-0.1417206227779388,-0.3824013471603393,-0.7018836140632629
1772903878995165200,0.433165283203125,15.545948028564451,1.2841713428497314,2.450284481048584,-0.2590066790580749,0.7641918659210205,-0.1313359290361404
1772903879014150700,0.452150634765625,11.151026725769045,1.8198068141937256,0.9668469429016112,-0.3304778337478637,1.5027273893356323,0.0995709598064422
1772903879033136000,0.47113623046875,7.662663459777832,1.4662952423095703,0.5244936943054199,-0.4349357187747955,2.1215333938598637,0.1637117564678192
1772903879052121600,0.49012158203125,5.477133750915527,0.9212263822555542,0.3066616058349609,-0.4557051360607147,2.6468770503997803,0.3506363928318023
1772903879071107000,0.509107177734375,3.782742500305176,0.3914805948734283,-0.2071566581726074,-0.3292561173439026,2.8148648738861084,0.665842592716217
1772903879090092500,0.528092529296875,1.9385461807250977,0.0048893094062805,-0.1856367588043213,-0.1191186308860778,2.8344125747680664,0.9492838382720948
1772903879109078300,0.547078369140625,0.1156330108642578,-0.1050736308097839,-0.0749957561492919,0.0561995580792427,2.6945245265960693,1.0916153192520142
1772903879128063700,0.566063720703125,-1.1493635177612305,-0.1164901852607727,-0.3049318790435791,0.2333503514528274,2.4178028106689453,1.063515543937683
1772903879147049200,0.58504931640625,-2.2374839782714844,-0.151933953166008,-0.3087313175201416,0.4214966893196106,2.187506675720215,0.9401208758354188
1772903879166034700,0.60403466796875,-2.551009178161621,-0.1212482005357742,-0.0186914205551147,0.5064069032669067,1.7537927627563477,0.7092140316963196
1772903879185020200,0.623020263671875,-2.822704315185547,-0.2317290604114532,-0.2926325500011444,0.6414080262184143,1.4819579124450684,0.439822643995285
1772903879204005600,0.642005615234375,-2.455474376678467,-0.2274329364299774,-0.6760810017585754,0.8662062287330627,1.0861176252365112,0.2046397030353546
1772903879222991000,0.6609912109375,-2.138535499572754,-0.1915136575698852,-0.5435353517532349,1.0800089836120603,0.7470875978469849,0.0488691814243793
1772903879241976600,0.6799765625,-1.676008224487305,-0.4474659860134125,-0.1524392962455749,1.2034035921096802,0.5064069032669067,-0.0568104237318038
1772903879260962300,0.69896240234375,-0.9346065521240234,-0.608380913734436,0.4486374258995056,1.2327251434326172,0.411722868680954,-0.0323758348822593
1772903879279947800,0.71794775390625,-0.4205217361450195,-0.7495131492614746,0.8820112943649292,1.1722495555877686,0.5100721120834351,0.1111773923039436
1772903879298933200,0.736933349609375,-0.1609888076782226,-0.7300427556037903,1.0402626991271973,1.072678565979004,0.6029235124588013,0.3023780584335327
1772903879317918700,0.755918701171875,-0.2642993927001953,-0.4735040068626404,0.958458662033081,0.9468404054641724,0.5595521330833435,0.4911352694034576
1772903879336904200,0.774904296875,-0.4121913909912109,-0.3844560086727142,0.9697149395942688,0.7611374855041504,0.3426951467990875,0.646905779838562
1772903879355889700,0.7938896484375,-0.5954189300537109,-0.2518827021121979,0.867983341217041,0.6212494969367981,0.1411097645759582,0.758083164691925
1772903879374875100,0.812875244140625,-0.8432693481445312,-0.2849752306938171,1.0291134119033811,0.5070177912712097,0.1258381456136703,0.7525854110717773
1772903879393860600,0.831860595703125,-1.1186189651489258,-0.422852098941803,0.9822388887405396,0.430659681558609,0.2125809490680694,0.6603448390960693
1772903879412846000,0.85084619140625,-1.0120468139648438,-0.3881860971450805,0.7235205173492432,0.3927860558032989,0.2046397030353546,0.5894845128059387
1772903879431831800,0.869831787109375,-1.0221214294433594,-0.3021385669708252,0.5494584441184998,0.3457494676113128,0.0959057733416557,0.554665207862854
1772903879450817300,0.8888173828125,-0.8987646102905273,-0.3766868114471435,0.5101771354675293,0.2956585586071014,0.0397062115371227,0.5235111117362976
1772903879469802800,0.907802734375,-0.9084815979003906,-0.4504971504211426,0.5977386236190796,0.2602283954620361,0.0897971242666244,0.4819723069667816
1772903879488788200,0.926788330078125,-0.9181842803955078,-0.4465920925140381,0.5874651670455933,0.2223547846078872,0.0788015574216842,0.4269944727420807
1772903879507773700,0.945773681640625,-0.5632915496826172,-0.4396513700485229,0.1551881730556488,0.21319180727005,-0.0177150778472423,0.430048793554306
1772903879526759200,0.96475927734375,-0.3218860626220703,-0.589882493019104,-0.06535404920578,0.2620609998703003,-0.0684168562293052,0.4990765154361725
1772903879545744600,0.98374462890625,-0.5741691589355469,-0.5357964038848877,0.1998625695705413,0.2565632164478302,-0.0647516697645187,0.5332849621772766
1772903879564730000,1.002730224609375,-1.6341848373413086,-0.3408041000366211,0.525739312171936,0.1905898153781891,-0.015882484614849,0.3628536760807037
1772903879583715600,1.021715576171875,-1.4006681442260742,0.1493760347366333,0.6863557696342468,0.1099556609988212,-0.1020144149661064,0.1374445706605911
1772903879602701300,1.040701416015625,-0.0144119262695312,-0.2130523920059204,0.7074626088142395,0.0244345907121896,-0.1655443608760833,0.1594357043504715
1772903879621686800,1.059686767578125,0.3601331710815429,-0.5524469614028931,0.2280143350362777,0.0476474538445472,-0.1808159798383712,0.287106454372406
1772903879640672300,1.07867236328125,-0.4157018661499023,-0.5511765480041504,-0.3283067941665649,0.1606574356555938,-0.2247982323169708,0.315206229686737
1772903879659657700,1.09765771484375,-1.1923799514770508,-0.4642325639724731,-0.1864577382802963,0.2620609998703003,-0.3481929302215576,0.2211330533027649
1772903879678643200,1.116643310546875,-1.3832597732543943,-0.4237149953842163,-0.0685878098011016,0.3011563420295715,-0.5180133581161499,0.1178968995809555
1772903879697628700,1.135628662109375,-1.1387310028076172,-0.5484039783477783,0.0573367960751056,0.3262017965316772,-0.5894845128059387,0.0507017783820629
1772903879716614100,1.1546142578125,-0.9510602951049804,-0.7929912805557251,0.3579786419868469,0.3115410506725311,-0.5827649831771851,0.0397062115371227
1772903879735599600,1.173599609375,-0.8932342529296875,-0.7727862596511841,0.3553603887557983,0.3023780584335327,-0.5070177912712097,0.0360410213470459
1772903879754585000,1.192585205078125,-1.1346931457519531,-0.8739920854568481,0.6138240098953247,0.2791652083396911,-0.3903425931930542,0.0061086476780474
1772903879773570600,1.211570556640625,-1.2218198776245115,-0.7961333990097046,0.5592803359031677,0.2437350451946258,-0.3830122053623199,-0.0152716198936104
1772903879792556300,1.230556396484375,-1.2683629989624023,-0.7568737268447876,0.3806402087211609,0.235793799161911,-0.4966330528259277,-0.013439024798572
1772903879811541500,1.24954150390625,-1.2161750793457031,-0.90078866481781,0.3355938196182251,0.2247982323169708,-0.6450732350349426,0.0287106446921825
1772903879830527200,1.26852734375,-1.1455812454223633,-1.037142992019653,0.4865315556526184,0.1857028901576995,-0.748920202255249,0.1160643100738525
1772903879849512700,1.2875126953125,-1.5025243759155271,-1.3608100414276123,0.8279718160629272,0.0897971242666244,-0.8063415288925171,0.2156352698802948
1772903879868498200,1.306498291015625,-2.1400156021118164,-1.4274685382843018,0.8211603164672852,-0.0152716198936104,-0.9364557266235352,0.2687804996967315
1772903879887483600,1.325483642578125,-2.6055774688720703,-1.438262939453125,0.7885524034500122,-0.1081230640411377,-1.1343759298324585,0.3005454838275909
1772903879906469000,1.34446923828125,-3.374819755554199,-1.6799262762069702,0.9233373403549194,-0.1771507859230041,-1.351232886314392,0.2510654330253601
1772903879925454600,1.36345458984375,-4.521552562713623,-1.693557620048523,0.588363528251648,-0.1637117564678192,-1.5228859186172483,-0.0342084281146526
1772903879944440000,1.382440185546875,-5.25177526473999,-1.5540738105773926,0.0747737884521484,-0.015882484614849,-1.6969823837280271,-0.5302306413650513
1772903879963425800,1.40142578125,-5.208860874176025,-1.4732608795166016,-0.3379366397857666,0.2565632164478302,-1.712864875793457,-1.128878116607666
1772903879982411000,1.420410888671875,-4.464753150939941,-1.44896399974823,-0.4163615703582763,0.5723803043365479,-1.525329351425171,-1.7996076345443726
1772903880001396700,1.439396728515625,-3.1125612258911133,-1.8296400308609009,0.0441799163818359,0.7159335017204285,-1.2620465755462646,-2.3933682441711426
1772903880020382200,1.45838232421875,-1.1651973724365234,-1.6633038520812988,0.6876497268676758,0.758694052696228,-1.2467750310897827,-2.7397284507751465
1772903880039367700,1.47736767578125,2.236660957336426,-1.1875708103179932,1.4494976997375488,0.7764091491699219,-1.4300343990325928,-2.763552188873291
1772903880058353200,1.496353271484375,6.52867317199707,-0.3437540531158447,1.1962013244628906,0.963333785533905,-1.5485422611236572,-2.4049746990203857
1772903880077338600,1.515338623046875,10.248912811279297,0.7237064838409424,2.061075448989868,1.023198485374451,-1.5583161115646362,-1.8613049983978271
1772903880096324000,1.534323974609375,14.125520706176758,2.566987991333008,3.0710039138793945,0.7000510096549988,-1.3939933776855469,-1.1423171758651731
1772903880115309600,1.5533095703125,17.50746726989746,3.870893001556397,4.290517330169678,0.150883600115776,-0.593149721622467,-0.3145953714847564
1772903880134295000,1.572294921875,18.734498977661133,3.336637020111084,4.948241710662842,-0.4373791813850403,0.8881973624229431,0.3811796307563782
1772903880153280500,1.591280517578125,16.848045349121094,1.3294272422790527,4.597838401794434,-0.7531962990760803,2.5998404026031494,0.9046907424926758
1772903880172266000,1.610265869140625,13.475303649902344,-0.4968485236167907,3.59430193901062,-0.8240565657615662,3.560119867324829,1.3548980951309204
1772903880191251700,1.629251708984375,10.937135696411133,-1.4441702365875244,2.609606981277466,-0.7990111112594604,3.551567792892456,1.9211697578430176
1772903880210237200,1.6482373046875,8.436689376831055,-2.77588415145874,1.9912233352661133,-0.7745765447616577,3.0671520233154297,2.5082108974456787
1772903880229222700,1.66722265625,5.729145050048828,-3.844837188720703,1.5600523948669434,-0.730594277381897,2.6022839546203613,2.954752922058105
1772903880248208000,1.686207763671875,2.6888160705566406,-4.373372077941895,1.0596096515655518,-0.6194168925285339,2.332892656326294,3.1618361473083496
1772903880267193600,1.705193603515625,-1.2068758010864258,-4.350869178771973,0.2274292707443237,-0.3720166385173797,2.18567419052124,3.120908260345459
1772903880286179000,1.724178955078125,-5.272483348846436,-4.168060779571533,-0.4262885451316833,-0.0360410213470459,1.8796309232711792,2.83319091796875
1772903880305164500,1.74316455078125,-8.28720760345459,-3.696455240249634,-0.3602468073368072,0.192422404885292,1.6310089826583862,2.494160890579224
1772903880324150000,1.76214990234375,-10.306236267089844,-3.385336637496948,-0.4762543439865112,0.4880809485912323,1.426369309425354,2.075718402862549
1772903880343135500,1.781135498046875,-11.369991302490234,-3.187314033508301,0.1286829113960266,0.7238747477531433,1.3292417526245115,1.658497929573059
1772903880362121000,1.800120849609375,-11.99071979522705,-3.0585765838623047,1.3394551277160645,0.7531962990760803,1.3060288429260254,1.3384047746658323
1772903880381106400,1.8191064453125,-12.446084976196287,-2.9748241901397705,2.732734203338623,0.5613847374916077,1.204625368118286,1.092226266860962
1772903880400092000,1.838091796875,-12.828510284423828,-3.1083037853240967,3.5291013717651367,0.2455676347017288,1.045189619064331,0.8533781170845032
1772903880419077600,1.85707763671875,-13.260638236999512,-2.9649767875671387,3.914298295974731,-0.1313359290361404,0.6047561168670654,0.5986474752426147
1772903880438062800,1.876062744140625,-14.11662483215332,-2.81925892829895,3.2965214252471924,-0.4850266277790069,0.0097738364711403,0.1569922417402267
1772903880457048600,1.895048583984375,-14.88596534729004,-2.541322469711304,2.0987002849578857,-0.6035344004631042,-0.5082395076751709,-0.6071996092796326
1772903880476034000,1.914033935546875,-14.905698776245115,-2.554534912109375,1.5021467208862305,-0.5687150955200195,-0.8735366463661194,-1.5528182983398438
1772903880495019500,1.93301953125,-12.530309677124023,-2.8577699661254883,1.4154300689697266,-0.4337140023708343,-1.1319323778152466,-2.357938051223755
1772903880514005000,1.9520048828125,-10.107503890991213,-3.837881803512573,2.3882291316986084,-0.4007273018360138,-1.554650902748108,-2.977965831756592
1772903880532990500,1.970990478515625,-7.8259196281433105,-3.995375633239746,3.3130979537963867,-0.4410443603992462,-2.3927574157714844,-3.378693103790283
1772903880551976000,1.989975830078125,-6.070238590240479,-4.304601192474365,4.08270788192749,-0.45875945687294,-3.5369069576263428,-3.783696413040161
1772903880570961400,2.00896142578125,-4.577241897583008,-5.340727806091309,4.873720169067383,-0.3347539007663727,-4.313927173614502,-4.502073287963867
1772903880589947000,2.02794677734375,-1.4223122596740725,-6.654924392700195,6.199868202209473,-0.1551596522331237,-4.605920314788818,-5.34751033782959
1772903880608932400,2.046932373046875,4.811342239379883,-8.368240356445312,9.052352905273438,-0.1533270627260208,-4.770853996276856,-5.860025882720947
1772903880627918000,2.06591796875,13.368313789367676,-10.497218132019045,11.95934009552002,-0.5070177912712097,-4.573544502258301,-5.806269645690918
1772903880646903600,2.084903564453125,22.158185958862305,-9.94292449951172,11.463029861450195,-0.9957095980644226,-3.401906013488769,-5.210065841674805
1772903880665889000,2.103888916015625,30.39794921875,-2.839946746826172,5.498774528503418,-1.544877052307129,-1.4575233459472656,-4.089739799499512
1772903880684874500,2.12287451171875,39.30808639526367,5.978815078735352,-1.706235647201538,-1.8191553354263303,1.14659321308136,-1.6560543775558472
1772903880703860000,2.14185986328125,29.77614402770996,-2.352461338043213,-1.567827224731445,-1.240666389465332,3.540572166442871,1.2498292922973633
1772903880722845400,2.160845458984375,14.073662757873535,-3.222966194152832,-3.790106058120728,0.0280997790396213,3.2009315490722656,3.00056791305542
1772903880741831000,2.179830810546875,4.147168159484863,-0.7928235530853271,-2.785099983215332,0.7476984858512878,1.249218463897705,3.6810710430145264
1772903880760816400,2.19881640625,-0.1625337600708007,-0.3029478788375854,-1.02073073387146,0.9205732345581056,-0.0256563201546669,3.457494735717773
1772903880779801900,2.2178017578125,-0.005314826965332,-0.7912850379943848,0.8732147216796875,0.90652334690094,-0.0616973415017128,2.682918071746826
1772903880798787300,2.236787353515625,3.682670593261719,-1.614131212234497,3.5065767765045166,0.5668824911117554,0.6071996092796326,2.073275089263916
1772903880817772800,2.255772705078125,7.902596473693848,-3.7880935668945312,5.144097328186035,0.0177150778472423,1.5699224472045898,2.103818416595459
1772903880836758300,2.27475830078125,7.960046768188477,-5.574339866638184,4.239535331726074,-0.3915643095970154,2.3206753730773926,2.5937318801879883
1772903880855744000,2.293743896484375,4.620328903198242,-5.617445945739746,1.4408133029937744,-0.3109301626682281,2.5240931510925293,3.0353870391845703
1772903880874729200,2.312729248046875,0.2879238128662109,-5.361610889434815,0.0946929454803466,0.0397062115371227,2.385426998138428,3.194211959838867
1772903880893715000,2.33171484375,-3.5428996086120605,-4.862432956695557,0.0215328931808471,0.315206229686737,2.108094453811645,3.138012409210205
1772903880912700400,2.350700439453125,-6.715837478637695,-4.296758651733398,-0.0634387731552124,0.4801397025585174,1.7482949495315552,2.911381483078003
1772903880931686000,2.369685791015625,-9.111624717712402,-3.730745315551758,-0.132370114326477,0.5766563415527344,1.3836086988449097,2.5411975383758545
1772903880950671400,2.38867138671875,-10.609553337097168,-3.3950657844543457,0.0475819706916809,0.5827649831771851,1.1209368705749512,2.0891575813293457
1772903880969656800,2.40765673828125,-11.463738441467283,-3.1345021724700928,0.2312801480293274,0.500298261642456,0.9046907424926758,1.6200133562088013
1772903880988642300,2.426642333984375,-11.80965805053711,-2.846665620803833,0.372940331697464,0.3573558926582336,0.6811142563819885,1.1801908016204834
1772903881007627800,2.445627685546875,-12.122232437133787,-2.5626258850097656,0.4571976959705353,0.1728747338056564,0.4031707644462585,0.7654135823249817
1772903881026613200,2.46461328125,-12.37957000732422,-2.0976271629333496,0.7129201292991638,-0.0836884751915931,0.0116064306348562,0.3762927055358886
1772903881045598700,2.4835986328125,-12.870290756225586,-1.8170716762542725,0.7647302150726318,-0.3995055556297302,-0.4917461574077606,-0.0641408041119575
1772903881064584200,2.502584228515625,-13.039640426635742,-1.9405202865600584,0.6164171695709229,-0.6438514590263367,-0.9456186890602112,-0.6273581385612488
1772903881083569700,2.521569580078125,-12.820358276367188,-2.397412776947021,0.2636896967887878,-0.7159335017204285,-1.2980875968933103,-1.3084723949432373
1772903881102555100,2.54055517578125,-11.618097305297852,-2.694042682647705,0.1412645578384399,-0.6719512343406677,-1.7220277786254885,-1.981034517288208
1772903881121540900,2.559540771484375,-10.234066009521484,-3.1964988708496094,0.7070640325546265,-0.5662716627120972,-2.288910388946533,-2.5894558429718018
1772903881140526300,2.5785263671875,-8.203715324401855,-3.933722257614136,1.5783588886260986,-0.4379900395870209,-2.839299440383911,-3.112967014312744
1772903881159511800,2.59751171875,-5.428065299987793,-4.70145845413208,3.004239082336426,-0.3249800503253937,-3.38907790184021,-3.6144869327545166
1772903881178497300,2.616497314453125,-2.073307037353516,-5.084935665130615,4.499350547790527,-0.1966984570026397,-3.923584461212158,-4.170984745025635
1772903881197482800,2.635482666015625,2.837574958801269,-5.006153583526611,4.799236297607422,0.2083048969507217,-4.002386093139648,-4.732369422912598
1772903881216468200,2.65446826171875,11.71314525604248,-5.05133056640625,5.945777416229248,0.7354812026023865,-3.2540767192840576,-4.812392711639404
1772903881235453700,2.67345361328125,21.84398651123047,-4.641051769256592,7.680755138397217,0.7916807532310486,-2.178954601287842,-3.863719701766968
1772903881254439200,2.692439208984375,28.135326385498047,-1.170602321624756,6.174464225769043,0.3946186602115631,-1.082452416419983,-2.0445644855499268
1772903881273424600,2.711424560546875,27.85770797729492,3.5105509757995605,2.65091323852539,-0.1624900251626968,0.1973093301057815,-0.1007926911115646
1772903881292410000,2.73041015625,21.044782638549805,3.3898866176605225,1.133227825164795,-0.5094612240791321,1.4471386671066284,1.2870920896530151
1772903881311395600,2.7493955078125,12.1292085647583,0.2398871183395385,0.8378720283508301,-0.4856374859809875,2.1948370933532715,1.9260566234588623
1772903881330381300,2.76838134765625,6.398804664611816,-0.7647192478179932,0.6890549659729004,-0.2406807243824005,2.310901403427124,2.090379238128662
1772903881349366500,2.787366455078125,4.218441009521484,-1.049637794494629,1.423051834106445,-0.1185077652335167,2.1172573566436768,2.050673007965088
1772903881368352300,2.806352294921875,3.8848276138305664,-1.6225697994232178,2.4654645919799805,-0.1844811588525772,1.9737040996551516,1.9346086978912356
1772903881387337700,2.825337646484375,4.37620735168457,-2.508226156234741,3.029003620147705,-0.2846629917621612,2.206443548202514,1.888182997703552
1772903881406323200,2.8443232421875,4.327277183532715,-3.628440380096436,2.8111555576324463,-0.2596175372600555,2.7397284507751465,1.9901974201202397
1772903881425308700,2.86330859375,2.457926750183105,-3.949481248855591,2.091679573059082,-0.1478292793035507,3.032943725585937,2.142913579940796
1772903881444294100,2.882294189453125,-0.087961196899414,-3.601437568664551,1.1736363172531128,0.0054977829568088,2.819140911102295,2.2864668369293213
1772903881463279600,2.901279541015625,-2.5401339530944824,-3.2242250442504883,0.4784705638885498,0.2083048969507217,2.249814987182617,2.4129159450531006
1772903881482265000,2.92026513671875,-4.948785305023193,-3.01365327835083,0.344412624835968,0.4288270771503448,1.6536109447479248,2.426965713500977
1772903881501250600,2.93925048828125,-7.144662857055664,-3.006824254989624,0.4405702948570251,0.6218603253364563,1.2119556665420532,2.3005168437957764
1772903881520236000,2.958236083984375,-8.855935096740723,-2.715942859649658,0.7768570780754089,0.7568614482879639,0.9285144805908204,2.042120933532715
1772903881539221500,2.977221435546875,-10.10478401184082,-2.4894556999206543,1.1572415828704834,0.7690787315368652,0.7348703145980835,1.7037018537521362
1772903881558207000,2.99620703125,-11.247056007385254,-2.324220895767212,1.6150720119476318,0.6878337264060974,0.5858193039894104,1.2889246940612793
1772903881577192400,3.0151923828125,-12.162342071533203,-2.285771131515503,1.9544641971588133,0.5564978122711182,0.4960221946239471,0.8313869833946228
1772903881596178200,3.03417822265625,-12.60666275024414,-2.287070751190185,2.0371615886688232,0.4098902642726898,0.3200931549072265,0.3817904889583587
1772903881615163600,3.05316357421875,-12.937793731689451,-2.0177576541900635,1.756712794303894,0.2559523284435272,-0.2675587832927704,-0.0714711770415306
1772903881634149000,3.072149169921875,-12.975210189819336,-1.7488548755645752,1.2643938064575195,0.164322629570961,-1.0604612827301023,-0.5766563415527344
1772903881653134600,3.091134521484375,-12.31715202331543,-2.049968719482422,1.1716201305389404,0.1594357043504715,-1.6927063465118408,-1.1612539291381836
1772903881672120000,3.1101201171875,-10.935263633728027,-2.6365644931793213,1.3686552047729492,0.235793799161911,-2.029903650283813,-1.8044945001602173
1772903881691105500,3.12910546875,-9.23602294921875,-3.4523355960845947,1.6015411615371704,0.4001164436340332,-2.1172573566436768,-2.4959933757781982
1772903881710091000,3.148091064453125,-7.403921127319336,-3.718904495239258,2.5084893703460693,0.5106829404830933,-2.0940444469451904,-3.305389404296875
1772903881729076500,3.167076416015625,-4.786435127258301,-3.521650791168213,3.36098051071167,0.5222893953323364,-2.0103559494018555,-4.206414699554443
1772903881748062000,3.18606201171875,0.5418167114257812,-3.165118455886841,2.9180707931518555,0.5980366468429565,-2.1887285709381104,-4.888751029968262
1772903881767047400,3.20504736328125,9.679169654846191,-3.075968742370605,3.2359273433685303,0.7275399565696716,-2.717126607894897,-4.869813919067383
1772903881786033000,3.224032958984375,21.89902877807617,-4.104366302490234,4.971591949462891,0.6340776681900024,-2.7598869800567627,-3.428173065185547
1772903881805018400,3.243018310546875,26.533145904541016,-2.816473484039306,4.412700653076172,0.2516762912273407,-1.916893720626831,-1.2974767684936523
1772903881824003800,3.26200390625,22.99844741821289,0.7011218070983887,1.8218510150909424,-0.0946840420365333,-0.6542361974716187,0.1545487940311432
1772903881842989300,3.2809892578125,16.797565460205078,2.918102264404297,0.4074165821075439,-0.4392117857933044,0.7800742983818054,0.6939423680305481
1772903881861975000,3.29997509765625,12.388800621032717,1.8620469570159912,0.1526739597320556,-0.5974257588386536,1.940717458724976,0.9016364216804504
1772903881880960300,3.318960205078125,9.907243728637695,-0.6981227397918701,1.0504438877105713,-0.5974257588386536,2.423300504684448,1.238833785057068
1772903881899946000,3.337946044921875,8.160914421081543,-1.5403296947479248,1.2013256549835205,-0.5186241865158081,2.3255622386932373,1.6731586456298828
1772903881918931200,3.35693115234375,6.092567443847656,-2.303210020065308,1.503307580947876,-0.4514290690422058,2.2052218914031982,1.9181153774261477
1772903881937917000,3.3759169921875,3.8891563415527344,-3.151719808578491,1.3066356182098389,-0.3133736252784729,2.3567163944244385,1.9230023622512815
1772903881956902400,3.39490234375,2.474817276000977,-3.513792991638184,1.1060829162597656,-0.1221729591488838,2.478278398513794,1.974925875663757
1772903881975888000,3.413887939453125,1.0084495544433594,-3.730581998825073,0.8602892160415649,0.1069013327360153,2.3732097148895264,2.176511287689209
1772903881994873300,3.432873291015625,-1.3848447799682615,-3.684598922729492,1.0843240022659302,0.2913824915885925,2.1331398487091064,2.408639907836914
1772903882013858800,3.45185888671875,-4.2401628494262695,-3.353779554367065,1.3080098628997805,0.3610210716724396,1.6804890632629397,2.5503604412078857
1772903882032844300,3.47084423828125,-6.834711074829102,-2.864522218704224,1.2636408805847168,0.3824013471603393,1.1514800786972046,2.539975643157959
1772903882051829800,3.489829833984375,-9.267871856689451,-2.650298833847046,1.0532886981964111,0.430659681558609,0.6688969135284424,2.2974624633789062
1772903882070815200,3.508815185546875,-11.07805347442627,-2.330409526824951,0.971114456653595,0.4807505905628204,0.3176496922969818,1.884517788887024
1772903882089800700,3.52780078125,-12.101369857788086,-2.0695223808288574,0.99851393699646,0.5229002237319946,0.0733037739992141,1.3744457960128784
1772903882108786200,3.5467861328125,-12.479568481445312,-2.050893545150757,1.0958993434906006,0.5485565662384033,-0.1710421442985534,0.8216131329536438
1772903882127771600,3.565771728515625,-12.526439666748049,-1.977478265762329,1.1497725248336792,0.5387827157974243,-0.4941896200180053,0.2626718580722809
1772903882146757000,3.584757080078125,-12.183253288269045,-1.8471871614456177,1.268164873123169,0.5064069032669067,-0.9077450633049012,-0.2724456787109375
1772903882165742800,3.603742919921875,-11.488527297973633,-2.075070381164551,1.42281973361969,0.4673115611076355,-1.4159845113754272,-0.7452550530433655
1772903882184728000,3.62272802734375,-10.522390365600586,-2.348974227905273,1.2773689031600952,0.4654789566993713,-2.0079126358032227,-1.1148282289505005
1772903882203713800,3.6417138671875,-9.181899070739746,-2.672412872314453,1.3421632051467896,0.5314523577690125,-2.6309945583343506,-1.4245367050170898
1772903882222699300,3.66069921875,-8.549044609069824,-3.326040267944336,1.3952041864395142,0.7086031436920166,-3.1832163333892822,-1.8417572975158687
1772903882241684700,3.679684814453125,-7.522064208984375,-3.759352207183838,1.9341723918914795,0.9297361969947816,-3.631591081619263,-2.3151774406433105
1772903882260670200,3.698670166015625,-5.630753993988037,-4.287311553955078,3.364008903503418,1.0763437747955322,-4.081187725067139,-2.777602195739746
1772903882279655700,3.71765576171875,-3.6347832679748535,-5.128391265869141,4.807956218719482,1.1606431007385254,-4.44098711013794,-3.243691921234131
1772903882298641200,3.73664111328125,-0.8285970687866211,-6.0433855056762695,6.527679443359375,1.2779290676116943,-4.502073287963867,-3.7519314289093018
1772903882317626600,3.755626708984375,3.5192794799804688,-7.036643028259277,8.071274757385254,1.4404191970825195,-4.088518142700195,-4.12516975402832
1772903882336612000,3.774612060546875,8.91805362701416,-6.744011878967285,9.647948265075684,1.433699607849121,-3.511861562728882,-4.11234188079834
1772903882355597600,3.79359765625,14.488116264343262,-3.7643730640411377,9.203176498413086,1.2522728443145752,-2.826471328735352,-3.668242931365967
1772903882374583000,3.8125830078125,21.213769912719727,2.6241049766540527,7.527582168579102,0.6090322136878967,-2.1423027515411377,-2.707963466644287
1772903882393568500,3.831568603515625,25.601505279541016,6.511319637298584,7.622165679931641,-0.6322450637817383,-0.5571087002754211,-1.1044435501098633
1772903882412554000,3.850553955078125,21.55558013916016,1.6552886962890625,5.677154541015625,-1.2834268808364868,1.3878847360610962,0.5601630210876465
1772903882431539500,3.86953955078125,13.482531547546388,-0.3776872158050537,1.999117851257324,-1.12765634059906,2.086103200912476,1.6658282279968262
1772903882450525000,3.88852490234375,8.069801330566406,1.4460232257843018,-0.3528599739074707,-0.7800742983818054,1.4275909662246704,2.2394301891326904
1772903882469510700,3.9075107421875,5.679134368896484,2.376391887664795,0.5390152931213379,-0.5632173418998718,0.7293725609779358,2.2626430988311768
1772903882488495900,3.926495849609375,5.707436561584473,0.844700813293457,4.02180290222168,-0.7287616729736328,0.934012234210968,1.9474369287490845
1772903882507481600,3.945481689453125,7.078354835510254,-0.8488636612892151,6.724071979522705,-1.2620465755462646,1.913839340209961,1.6969823837280271
1772903882526467000,3.964467041015625,6.702032089233398,-3.0693485736846924,6.338662147521973,-1.7238603830337524,3.1447319984436035,1.6798781156539917
1772903882545452500,3.98345263671875,4.146814346313477,-3.746421813964844,3.621915340423584,-1.8631376028060915,3.718333959579468,1.8631376028060915
1772903882564438000,4.00243798828125,0.8526191711425781,-3.6117024421691895,0.7084956169128418,-1.692095398902893,3.4776532649993896,2.160017967224121
1772903882583423500,4.021423583984375,-2.6779041290283203,-3.6591060161590576,-1.3109564781188965,-1.3286309242248535,2.788597822189331,2.3878703117370605
1772903882602409000,4.040408935546875,-6.195947647094727,-3.4886388778686523,-2.956551074981689,-0.8393282294273376,2.029903650283813,2.3799290657043457
1772903882621394400,4.05939453125,-8.468527793884277,-3.163868904113769,-3.507856607437134,-0.3775144219398498,1.433699607849121,2.1978914737701416
1772903882640380000,4.0783798828125,-9.969021797180176,-2.87227463722229,-3.1676342487335205,-0.0928514450788497,0.9737184643745422,1.8576397895812988
1772903882659365400,4.097365478515625,-11.01870822906494,-2.6870052814483643,-2.7193496227264404,0.0690277218818664,0.7916807532310486,1.4025455713272097
1772903882678350800,4.116350830078125,-11.483006477355955,-2.6348180770874023,-2.012202739715576,0.1038470119237899,0.778241753578186,0.9694424271583556
1772903882697336300,4.13533642578125,-11.91567039489746,-2.5412750244140625,-1.1535221338272097,-0.015882484614849,0.7483093738555908,0.6035344004631042
1772903882716321800,4.15432177734375,-12.74545955657959,-2.337523937225342,-1.2907077074050903,-0.1582139730453491,0.6389645338058472,0.1985310465097427
1772903882735307300,4.173307373046875,-13.571749687194824,-1.973130702972412,-1.8363077640533447,-0.1973093301057815,0.4367683231830597,-0.346971184015274
1772903882754292700,4.192292724609375,-13.521013259887695,-1.6002202033996582,-2.3755805492401123,-0.1362228393554687,0.1417206227779388,-0.9578359723091124
1772903882773278200,4.2112783203125,-12.59184455871582,-1.5211265087127686,-2.3786098957061768,0.0079412423074245,-0.2993237376213074,-1.528383731842041
1772903882792263700,4.230263671875,-11.448478698730469,-1.7393081188201904,-1.60210919380188,0.1692095398902893,-0.7898481488227844,-2.0720534324646
1772903882811249400,4.24924951171875,-10.279833793640137,-2.356710195541382,-0.1062431335449218,0.2852738499641418,-1.0806198120117188,-2.6774203777313232
1772903882830234600,4.268234619140625,-8.306341171264648,-3.021495819091797,1.9375696182250977,0.3017672002315521,-1.3720022439956665,-3.3292131423950195
1772903882849220400,4.287220458984375,-5.668089866638184,-3.409907341003418,3.916629314422608,0.173485592007637,-1.8723005056381223,-4.069581031799316
1772903882868205600,4.30620556640625,-1.618678092956543,-4.277764320373535,4.900423049926758,0.2119700759649276,-2.4544546604156494,-4.830718517303467
1772903882887191300,4.32519140625,5.676214218139648,-5.337870597839356,5.558876991271973,0.6145299673080444,-3.0585999488830566,-5.230224132537842
1772903882906176800,4.3441767578125,18.667604446411133,-6.311161994934082,8.21921443939209,0.8344413042068481,-3.243691921234131,-4.408611297607422
1772903882925162200,4.363162353515625,28.11305046081543,-5.2704033851623535,10.854299545288086,0.078190691769123,-2.399476766586304,-2.341444730758667
1772903882944147700,4.382147705078125,28.328956604003903,0.620948314666748,7.043623447418213,-1.0390809774398804,-0.880256175994873,-0.5528326034545898
1772903882963133200,4.40113330078125,23.968854904174805,3.717928886413574,2.0563244819641118,-1.4459168910980225,1.8161009550094604,0.6780598759651184
1772903882982118700,4.42011865234375,14.797893524169922,-1.8103067874908447,1.680821418762207,-1.258992314338684,3.82828950881958,1.4740166664123535
1772903883001104100,4.439104248046875,7.907463073730469,-3.2989389896392822,0.0229239463806152,-0.657290518283844,3.8716609477996826,2.054338216781616
1772903883020089600,4.458089599609375,4.50443172454834,-2.913875102996826,0.0501422882080078,-0.0030543238390237,2.9248206615448,2.334725141525269
1772903883039075000,4.477074951171875,3.92235279083252,-4.208425521850586,1.656780481338501,0.4147771894931793,2.5356996059417725,2.4214680194854736
1772903883058060500,4.496060546875,4.559930801391602,-5.13170337677002,3.235966205596924,0.5998691916465759,2.6358814239501958,2.554025650024414
1772903883077046000,4.5150458984375,3.4510602951049805,-5.020471572875977,3.8570070266723633,0.5748237371444702,2.838688611984253,2.7091853618621826
1772903883096031500,4.534031494140625,0.76324462890625,-4.169861316680908,3.460174560546875,0.4978547990322113,2.897331714630127,2.737895965576172
1772903883115017000,4.553016845703125,-2.30794620513916,-3.343414306640625,2.672461032867432,0.430659681558609,2.726900339126587,2.634659767150879
1772903883134002400,4.57200244140625,-4.918663024902344,-2.615571975708008,1.8708977699279783,0.4068359434604645,2.2950189113616943,2.4715588092803955
1772903883152988000,4.59098779296875,-7.403833389282227,-1.957787275314331,1.1549601554870603,0.4251618981361389,1.8002184629440308,2.2204935550689697
1772903883171973400,4.609973388671875,-9.34059238433838,-1.6207773685455322,0.7851500511169434,0.4862483739852905,1.4391974210739136,1.869246244430542
1772903883190958800,4.628958740234375,-10.707273483276367,-1.3284341096878052,0.6855165362358093,0.5222893953323364,1.0861176252365112,1.470962405204773
1772903883209944300,4.6479443359375,-11.591520309448242,-0.9269075393676758,0.8040339350700378,0.4850266277790069,0.5571087002754211,1.0983349084854126
1772903883228930000,4.666929931640625,-12.26148509979248,-0.4807479381561279,0.9726446866989136,0.3316995799541473,-0.1221729591488838,0.7244856357574463
1772903883247915300,4.685915283203125,-12.675701141357422,-0.5914950370788574,0.8679208159446716,0.1777616441249847,-0.7147117853164673,0.296269416809082
1772903883266901000,4.70490087890625,-12.580718994140623,-0.7509787082672119,0.9490716457366944,0.0335975624620914,-1.166140913963318,-0.1698204129934311
1772903883285886500,4.723886474609375,-12.145570755004885,-0.8569121360778809,1.1494617462158203,-0.1221729591488838,-1.6401718854904177,-0.6200277805328369
1772903883304872000,4.742871826171875,-11.880892753601074,-1.2330114841461182,1.3160107135772705,-0.2498437017202377,-2.0598361492156982,-1.1111630201339722
1772903883323857400,4.761857421875,-11.635156631469728,-1.829156994819641,1.5222190618515017,-0.3292561173439026,-2.4092507362365723,-1.701869249343872
1772903883342843000,4.7808427734375,-11.068669319152832,-2.2899858951568604,1.8134021759033203,-0.3878991305828094,-2.6560399532318115,-2.3958115577697754
1772903883361828400,4.799828369140625,-10.040553092956545,-3.0248734951019287,2.464755058288574,-0.4318813979625702,-2.8826708793640137,-3.118464708328247
1772903883380813800,4.818813720703125,-7.681916236877441,-4.137453079223633,3.413058280944824,-0.4276053309440613,-3.27240252494812,-3.7397141456604
1772903883399799300,4.83779931640625,-3.183438777923584,-5.616635799407959,4.567234516143799,-0.2083048969507217,-3.7617053985595694,-4.218632221221924
1772903883418784800,4.85678466796875,2.1571969985961914,-7.073988914489746,6.054238319396973,0.1893680840730667,-3.8374526500701904,-4.568047046661377
1772903883437770200,4.875770263671875,8.92432689666748,-8.19416332244873,7.990865230560303,0.5406153202056885,-3.517359495162964,-4.521010398864746
1772903883456755700,4.894755615234375,16.804920196533203,-6.803561210632324,7.632184028625488,0.860708475112915,-3.5332419872283936,-3.881434917449951
1772903883475741200,4.9137412109375,28.061304092407227,0.8456857204437256,5.91447639465332,0.545502245426178,-3.3817474842071533,-2.4355177879333496
1772903883494726700,4.9327265625,37.102821350097656,6.691220283508301,6.655743598937988,-0.7171552777290344,-0.6120865345001221,-0.0476474538445472
1772903883513712000,4.951712158203125,24.87342834472656,-4.210390567779541,6.1103692054748535,-1.2260055541992188,3.1734426021575928,1.841146469116211
1772903883532697600,4.970697509765625,9.688544273376465,-3.850619077682495,-1.9134862422943115,-0.3164279460906982,3.858222007751465,2.651763916015625
1772903883551683000,4.98968310546875,1.5848054885864258,-1.9897894859313965,-3.346401691436768,0.6298015713691711,2.480721950531006,2.699411392211914
1772903883570668500,5.00866845703125,-0.2488536834716797,-1.732105016708374,-1.329699993133545,1.1319323778152466,1.431867003440857,2.371987819671631
1772903883589654000,5.027654052734375,2.115054130554199,-2.2345752716064453,1.3216552734375,1.2974767684936523,1.4019346237182615,2.12580943107605
1772903883608639500,5.046639404296875,4.963293075561523,-2.7804980278015137,3.604543924331665,1.153923511505127,1.8991786241531368,2.1887285709381104
1772903883627625000,5.065625,5.3192949295043945,-3.349097490310669,5.01065731048584,0.7892373204231262,2.41963529586792,2.408639907836914
1772903883646610400,5.0846103515625,2.967715263366699,-2.807060956954956,4.524667739868164,0.3836230933666229,2.561966896057129,2.4966044425964355
1772903883665596000,5.103595947265625,0.0145931243896484,-2.122162342071533,3.283898115158081,0.0519235059618949,2.534477949142456,2.3512184619903564
1772903883684581400,5.122581298828125,-2.3380608558654785,-2.1600537300109863,2.2699570655822754,-0.1423314958810806,2.676809549331665,2.079383611679077
1772903883703566800,5.14156689453125,-4.152542591094971,-2.111436128616333,1.3102937936782837,-0.1985310465097427,2.822195291519165,1.841146469116211
1772903883722552300,5.16055224609375,-5.895846366882324,-1.7262091636657717,0.5753065943717957,-0.1722638607025146,2.73545241355896,1.6914845705032349
1772903883741537800,5.179537841796875,-8.052070617675781,-1.433013081550598,-0.0564756989479064,-0.0836884751915931,2.381150960922241,1.5192207098007202
1772903883760523300,5.198523193359375,-10.1636962890625,-0.8878872394561768,-0.3378381133079529,0.0433713980019092,1.8014402389526367,1.2644901275634766
1772903883779509000,5.217509033203125,-11.453279495239258,-0.572136402130127,-0.1228279769420623,0.1007926911115646,0.9645555019378662,0.989600956439972
1772903883798494200,5.236494140625,-12.395527839660645,-0.3791372776031494,-0.0188984274864196,0.0946840420365333,0.1466075479984283,0.6609556674957275
1772903883817480000,5.25547998046875,-12.682435035705566,-0.244502305984497,0.5617294311523438,0.0213802680373191,-0.3720166385173797,0.2626718580722809
1772903883836465200,5.274465087890625,-12.58935832977295,-0.5035645961761475,1.3163175582885742,-0.173485592007637,-0.5705476999282837,-0.1704312711954116
1772903883855451000,5.293450927734375,-12.368298530578612,-0.7219815254211426,1.588433861732483,-0.3976729810237884,-0.6707295179367065,-0.6444623470306396
1772903883874436400,5.312436279296875,-12.295148849487305,-0.883849024772644,1.6038519144058228,-0.6071996092796326,-0.8381064534187317,-1.1679733991622925
1772903883893421800,5.331421875,-12.111406326293944,-1.1231279373168943,1.4108176231384275,-0.7367029190063477,-1.2168426513671875,-1.7446298599243164
1772903883912407300,5.3504072265625,-11.140754699707031,-1.4433214664459229,1.378942608833313,-0.7953459620475769,-1.8551963567733765,-2.324951410293579
1772903883931392800,5.369392822265625,-9.239909172058104,-2.1414787769317627,2.1249022483825684,-0.8161153197288513,-2.4605634212493896,-2.928485870361328
1772903883950378200,5.388378173828125,-6.443870544433594,-3.6021595001220703,2.8175175189971924,-0.7147117853164673,-2.696357250213623,-3.543015718460083
1772903883969363700,5.40736376953125,-2.5888686180114746,-5.146688938140869,3.342223644256592,-0.4477638900279999,-2.7989823818206787,-4.108676433563232
1772903883988349200,5.42634912109375,1.9542665481567385,-6.263742923736572,4.29146671295166,-0.0500909127295017,-3.146564483642578,-4.522842884063721
1772903884007334700,5.445334716796875,9.35822582244873,-7.611992835998535,6.192048072814941,0.3316995799541473,-3.8093528747558594,-4.484969139099121
1772903884026320100,5.464320068359375,20.01889419555664,-7.743870735168457,7.480873107910156,0.3952295184135437,-4.167319297790527,-3.709781885147095
1772903884045305600,5.4833056640625,31.89865493774414,0.1283686161041259,5.10530424118042,-0.5894845128059387,-2.688416004180908,-2.13191819190979
1772903884064291000,5.502291015625,44.69506454467773,10.588153839111328,-1.239654541015625,-1.3964369297027588,0.7434224486351013,0.7232639193534851
1772903884083276500,5.521276611328125,24.739601135253903,-6.892181396484375,3.523801565170288,-1.505781650543213,5.031692981719971,2.478889226913452
1772903884102262000,5.540261962890625,5.957023620605469,-3.959019660949707,-3.2633228302001958,0.0390953458845615,5.602851867675781,2.542419195175171
1772903884121247500,5.55924755859375,-0.7146835327148438,-2.106066465377808,-0.906280755996704,0.8863648176193237,3.7568182945251465,2.307847023010254
1772903884140233000,5.57823291015625,-0.8090171813964844,-2.280332565307617,2.1082358360290527,0.9425643682479858,2.0879359245300293,2.204000234603882
1772903884159218400,5.597218505859375,1.7713394165039062,-3.0650651454925537,1.894691824913025,1.0207550525665283,1.257770538330078,2.269362688064575
1772903884178204000,5.616203857421875,3.046630859375,-3.709001302719116,2.4568772315979004,1.0445787906646729,1.255937933921814,2.381150960922241
1772903884197189400,5.635189453125,1.933375358581543,-3.978074550628662,3.544106960296631,0.8558215498924255,1.7825034856796265,2.29318642616272
1772903884216174800,5.6541748046875,0.1323451995849609,-3.496313571929932,3.0585289001464844,0.7165443897247314,2.0940444469451904,2.1056509017944336
1772903884235160300,5.673160400390625,-1.483285903930664,-2.9140868186950684,2.5042881965637207,0.6420188546180725,1.9278892278671265,2.006079912185669
1772903884254145800,5.692145751953125,-3.380974769592285,-2.622776985168457,2.101931571960449,0.5668824911117554,1.561981201171875,1.96148681640625
1772903884273131300,5.71113134765625,-5.374111175537109,-2.2362875938415527,1.863502860069275,0.4960221946239471,1.2431098222732544,1.8619158267974851
1772903884292116700,5.73011669921875,-7.5001349449157715,-1.8896074295043943,1.513193130493164,0.4648680984973907,0.9999856352806092,1.6187916994094849
1772903884311102200,5.749102294921875,-9.28660488128662,-1.400406837463379,1.241990566253662,0.4691441655158996,0.7012727856636047,1.257770538330078
1772903884330087700,5.768087646484375,-10.499370574951172,-1.0178511142730713,1.4736735820770264,0.4098902642726898,0.2968802750110626,0.8448259830474854
1772903884349073200,5.7870732421875,-11.269732475280762,-0.5849156379699707,1.875579833984375,0.2138026654720306,-0.1191186308860778,0.4172206521034241
1772903884368058600,5.80605859375,-11.342583656311035,-0.3000054359436035,2.543042659759521,-0.1069013327360153,-0.4599811732769012,0.0354301556944847
1772903884387044000,5.825044189453125,-11.41620922088623,-0.5159744024276733,2.78029727935791,-0.448985606431961,-0.6939423680305481,-0.3396408259868622
1772903884406029600,5.844029541015625,-11.78786563873291,-0.7565329074859619,2.5888538360595703,-0.7415898442268372,-0.8265000581741333,-0.8167262077331543
1772903884425015000,5.86301513671875,-11.898239135742188,-1.0011451244354248,1.9571033716201784,-0.9114102721214294,-0.9456186890602112,-1.414151906967163
1772903884444000500,5.88200048828125,-10.722169876098633,-1.2120428085327148,1.133259654045105,-0.8930842876434326,-1.1820234060287476,-1.940106511116028
1772903884462986000,5.900986083984375,-8.536884307861328,-1.30049729347229,0.8845233917236328,-0.8002328872680664,-1.617569923400879,-2.2137739658355717
1772903884481971500,5.919971435546875,-6.137913227081299,-1.2926175594329834,1.608147382736206,-0.8118392825126648,-2.0237951278686523,-2.28035831451416
1772903884500957000,5.93895703125,-4.625421047210693,-1.7465535402297974,2.612861633300781,-1.008537769317627,-2.0635011196136475,-2.393979072570801
1772903884519942400,5.9579423828125,-4.082637786865234,-1.7123943567276,1.888697981834412,-1.0800089836120603,-1.905898094177246,-2.7036874294281006
1772903884538927900,5.976927978515625,-2.619997024536133,-1.668318510055542,1.6083931922912598,-0.960890293121338,-2.1135921478271484,-3.076314926147461
1772903884557913300,5.995913330078125,0.2318811416625976,-2.1538336277008057,2.033910751342773,-0.7605266571044922,-2.7989823818206787,-3.3438737392425537
1772903884576898800,6.01489892578125,5.238422393798828,-2.7913565635681152,2.862459659576416,-0.5809323787689209,-3.542404890060425,-3.408625364303589
1772903884595884300,6.03388427734375,13.154894828796388,-3.3349926471710205,4.041980743408203,-0.6621774435043335,-3.579056739807129,-3.0298893451690674
1772903884614869800,6.052869873046875,22.140771865844727,-1.880391359329224,2.9735782146453857,-0.924849271774292,-2.6199989318847656,-2.0079126358032227
1772903884633855200,6.071855224609375,30.155351638793945,1.2134575843811035,-0.028059959411621,-1.0378592014312744,-0.916297197341919,-0.4068359434604645
1772903884652840700,6.0908408203125,28.586505889892575,-2.1343424320220947,0.3459470272064209,-0.832608699798584,1.4031563997268677,1.0671807527542114
1772903884671826200,6.109826171875,19.006149291992188,-5.214398384094238,-0.1677753925323486,-0.10934479534626,2.5967862606048584,1.729358196258545
1772903884690811600,6.128811767578125,12.720739364624023,-5.3371124267578125,0.185532808303833,0.6304124593734741,2.1355831623077397,1.997527837753296
1772903884709797000,6.147797119140625,10.95872402191162,-5.918639659881592,1.864198446273804,1.0341941118240356,1.6084070205688477,2.229656457901001
1772903884728782600,6.166782470703125,10.275458335876465,-6.047702789306641,2.4479129314422607,1.3567306995391846,1.4972295761108398,2.523482322692871
1772903884747768000,6.18576806640625,7.134055137634277,-5.373989105224609,3.630573987960816,1.3994911909103394,1.6511675119400024,2.6835289001464844
1772903884766753500,6.20475341796875,2.6305885314941406,-4.428150653839111,3.8466796875,1.2076796293258667,1.7244713306427002,2.561966896057129
1772903884785739000,6.223739013671875,-0.9201221466064452,-3.524742126464844,2.767704486846924,1.0311397314071655,1.6157373189926147,2.3090689182281494
1772903884804724500,6.242724365234375,-3.0326828956604004,-2.919990301132202,1.2972968816757202,1.025641918182373,1.2834268808364868,2.142913579940796
1772903884823710000,6.2617099609375,-4.788459777832031,-2.432645797729492,0.8916717767715454,0.9975422024726868,0.8472694754600525,2.0720534324646
1772903884842695400,6.2806953125,-6.8992438316345215,-2.5042741298675537,1.005179762840271,0.8875865340232849,0.4563159942626953,1.894902586936951
1772903884861681000,6.299680908203125,-8.562174797058105,-2.7574353218078613,1.335074782371521,0.7018836140632629,0.3500255048274994,1.646891474723816
1772903884880666400,6.318666259765625,-10.380762100219728,-2.854853391647339,1.8158392906188965,0.4532616734504699,0.6682860851287842,1.420260667800903
1772903884899651800,6.33765185546875,-12.741405487060549,-2.231750011444092,1.9417939186096191,0.1429423540830612,0.8399390578269958,1.221118688583374
1772903884918637300,6.35663720703125,-14.907257080078123,-0.7794344425201416,1.8735499382019043,-0.2907716333866119,0.545502245426178,0.998763918876648
1772903884937622800,6.375622802734375,-15.772464752197266,0.1702642440795898,1.6792787313461304,-0.7525854110717773,0.1600465774536132,0.7153226733207703
1772903884956608300,6.394608154296875,-16.856107711791992,-0.8294616937637329,1.663116216659546,-1.2052361965179443,-0.2565632164478302,0.1331685185432434
1772903884975593700,6.41359375,-16.47417449951172,-0.4868533611297607,-0.3077400922775268,-1.2889246940612793,-0.2089157551527023,-0.5729911923408508
1772903884994579200,6.4325791015625,-13.852136611938477,0.0267157554626464,-2.3448140621185303,-0.9779945015907288,0.1313359290361404,-1.0390809774398804
1772903885013564700,6.451564697265625,-10.41306972503662,-0.5412857532501221,-1.27459716796875,-0.7159335017204285,0.0641408041119575,-1.0219768285751345
1772903885032550100,6.470550048828125,-7.860032558441162,-0.5462265014648438,-0.1982698589563369,-0.6792816519737244,-0.0849102064967155,-0.6084213256835938
1772903885051535600,6.48953564453125,-7.295027732849121,-0.0567437410354614,-0.0078538358211517,-0.7250964641571045,-0.3909534513950348,-0.2095266133546829
1772903885070521000,6.50852099609375,-8.694146156311035,0.0119299888610839,0.6809384822845459,-0.8649845123291016,-0.573602020740509,-0.2791652083396911
1772903885089506300,6.52750634765625,-12.37689208984375,-0.8906927108764648,2.2979400157928467,-1.1404845714569092,-0.9938769936561584,-1.545487880706787
1772903885108492000,6.546491943359375,-10.99721336364746,-0.6273097395896912,-0.3532570004463196,-0.6414080262184143,-2.4959933757781982,-3.740935802459717
1772903885127477200,6.565477294921875,1.3501873016357422,-1.3060798645019531,2.329314947128296,-0.2455676347017288,-4.450150012969971,-5.169137954711914
1772903885146463000,6.584462890625,22.70362091064453,-6.330507278442383,10.535934448242188,-0.7617483735084534,-3.8771586418151855,-4.341415882110596
1772903885165448200,6.6034482421875,31.01432037353516,-9.162867546081545,10.72548007965088,-1.4483604431152344,-1.6462805271148682,-1.954767346382141
1772903885184434000,6.622433837890625,20.68596649169922,-2.2041478157043457,-0.5406177043914795,-0.6633991599082947,-0.6255255341529846,-0.6896663308143616
1772903885203419100,6.641419189453125,12.108959197998049,1.6776539087295532,-2.392608642578125,0.1350011229515075,-0.6750055551528931,-0.3591884970664978
1772903885222404600,6.660404541015625,10.086252212524414,1.2873156070709229,0.3478424549102783,0.1606574356555938,-0.8979712128639221,-0.0500909127295017
1772903885241390000,6.67939013671875,11.029581069946287,0.4080584645271301,0.5301840305328369,0.1606574356555938,-1.227838158607483,0.4043924808502197
1772903885260375600,6.69837548828125,11.900507926940918,-1.2975242137908936,0.5119032859802246,0.4013381600379944,-0.9639446139335632,0.7812960743904114
1772903885279361000,6.717361083984375,12.84675407409668,-2.498786211013794,1.267472743988037,0.6493492722511292,-0.1014035567641258,1.2095122337341309
1772903885298346500,6.736346435546875,11.953041076660156,-3.0713675022125244,2.6429989337921143,0.646905779838562,0.6340776681900024,1.7287473678588867
1772903885317332000,6.75533203125,8.857885360717773,-3.4760549068450928,3.541654586791992,0.4135554432868957,1.202792763710022,2.0720534324646
1772903885336317400,6.7743173828125,4.93394947052002,-3.535117149353028,3.299269914627075,0.1661552190780639,1.5595377683639526,2.1581852436065674
1772903885355303000,6.793302978515625,1.415909767150879,-3.0076024532318115,2.205708265304565,-0.0109955659136176,1.6896519660949707,2.106261730194092
1772903885374288400,6.812288330078125,-1.42706298828125,-2.398437976837158,0.9163830280303956,-0.0965166315436363,1.665217399597168,2.0054690837860107
1772903885393273900,6.83127392578125,-3.641891479492188,-1.961360573768616,-0.3126459121704101,-0.0849102064967155,1.461799383163452,1.9211697578430176
1772903885412259300,6.85025927734375,-5.29740047454834,-1.669555902481079,-1.3163007497787476,0.0250454563647508,1.1038326025009155,1.8808526992797847
1772903885431244800,6.869244873046875,-6.721348285675049,-1.3506208658218384,-0.6777130365371704,0.0122172953560948,0.7831286191940308,1.888182997703552
1772903885450230300,6.888230224609375,-8.810548782348633,-1.5924019813537598,0.579660177230835,-0.2761108875274658,0.6976075768470764,1.8283182382583616
1772903885469215700,6.9072158203125,-11.306949615478516,-1.8547409772872925,0.9988532066345216,-0.7318159937858582,0.6774490475654602,1.594357132911682
1772903885488201200,6.926201171875,-13.762516021728516,-1.6917500495910645,-0.0376726388931274,-1.09283709526062,0.5797106623649597,1.1154390573501587
1772903885507186700,6.945186767578125,-15.214266777038574,-1.4306261539459229,-1.4446972608566284,-1.1704169511795044,0.4404335021972656,0.4251618981361389
1772903885526172000,6.964171875,-15.363114356994627,-1.40802001953125,-2.216959953308105,-1.0293071269989014,0.2950477004051208,-0.3274235129356384
1772903885545157400,6.983157470703125,-13.907384872436523,-1.3779070377349854,-2.277682304382324,-0.8350521326065063,0.1374445706605911,-0.8955277800559998
1772903885564142800,7.002142822265625,-11.374987602233888,-1.3254824876785278,-2.0313496589660645,-0.6737838387489319,-0.0537560991942882,-1.100778341293335
1772903885583128300,7.02112841796875,-9.393675804138184,-1.0551564693450928,-1.7205191850662231,-0.5510000586509705,-0.2950477004051208,-0.9926552772521972
1772903885602113800,7.04011376953125,-8.556661605834961,-0.7903165817260742,-1.4318331480026243,-0.4935787320137024,-0.5473348498344421,-0.7880155444145203
1772903885621099300,7.059099365234375,-8.844534873962402,-0.683207631111145,-1.1848301887512207,-0.4514290690422058,-0.5790998339653015,-0.8222240209579468
1772903885640084700,7.078084716796875,-9.844688415527344,-1.3490962982177734,-0.8730640411376953,-0.3243691921234131,-0.6218603253364563,-1.3909391164779663
1772903885659070200,7.0970703125,-11.589168548583984,-3.269980430603028,1.5218887329101562,-0.2864955961704254,-1.29197895526886,-2.761108875274658
1772903885678055700,7.1160556640625,-9.443384170532228,-4.433072566986084,2.9036152362823486,-0.0629190728068351,-2.771493434906006,-4.685943603515625
1772903885697041200,7.135041259765625,1.927611351013184,-3.2344348430633545,5.229171752929688,-0.0372627526521682,-3.9779515266418457,-5.936995029449463
1772903885716026600,7.154026611328125,23.333650588989254,-4.929014205932617,9.549598693847656,-0.6194168925285339,-3.06409764289856,-4.897913932800293
1772903885735012000,7.17301220703125,34.098472595214844,-8.160006523132324,9.183467864990234,-0.9107993841171264,-1.2424989938735962,-2.1056509017944336
1772903885753997600,7.19199755859375,30.300586700439453,-2.336126804351806,-0.5313026905059814,-0.0036651887930929,-0.7147117853164673,0.3127627670764923
1772903885772982800,7.210982666015625,20.08728790283203,1.7969131469726562,0.265993595123291,0.2730565667152405,-0.3689623177051544,1.3090832233428955
1772903885791968300,7.22996826171875,12.234686851501465,0.7771512269973755,2.3101143836975098,0.1203403621912002,0.8943060636520386,1.2651009559631348
1772903885810953700,7.24895361328125,10.492080688476562,0.1400573253631591,2.055920124053955,0.3023780584335327,1.6841541528701782,1.4453060626983645
1772903885829939200,7.267939208984375,8.313968658447266,-1.3965479135513306,3.172398090362549,0.3762927055358886,1.662163019180298,1.9657628536224363
1772903885848924700,7.286924560546875,4.04533576965332,-1.920519232749939,3.021777868270874,0.3573558926582336,1.148425817489624,2.1166465282440186
1772903885867910100,7.30591015625,1.4311609268188477,-2.29437255859375,2.359013795852661,0.3597993552684784,0.7843503952026367,1.7440189123153689
1772903885886895600,7.3248955078125,2.036449432373047,-2.8887686729431152,2.664494752883911,0.3787361681461334,0.8851430416107178,1.3420698642730713
1772903885905881000,7.343881103515625,2.655801773071289,-2.9589877128601074,2.937541961669922,0.2687804996967315,1.122769474983215,1.2712095975875854
1772903885924866600,7.362866455078125,2.0802106857299805,-2.335089445114136,2.1892895698547363,0.1087339296936988,1.1814124584197998,1.442862629890442
1772903885943852000,7.38185205078125,0.5287246704101562,-1.754202127456665,0.7667620182037354,0.0372627526521682,0.9584468603134156,1.6352850198745728
1772903885962837200,7.400837158203125,-1.397024154663086,-1.241278052330017,-0.4980645179748535,0.1337793916463852,0.647516667842865,1.6633847951889038
1772903885981823000,7.419822998046875,-2.3030519485473637,-1.1066523790359497,-0.4368137121200561,0.2559523284435272,0.4923570156097412,1.6157373189926147
1772903886000808200,7.43880810546875,-3.694048404693604,-1.0598183870315552,0.9835065603256226,0.1111773923039436,0.758694052696228,1.535714030265808
1772903886019793700,7.457793701171875,-5.515298366546631,-0.9872438311576844,1.523930549621582,-0.2431241869926452,1.0781763792037964,1.426369309425354
1772903886038779100,7.476779052734375,-7.002801895141602,-0.7516782283782959,0.7620722055435181,-0.5913171172142029,1.1533126831054688,1.3781108856201172
1772903886057764600,7.4957646484375,-8.398873329162598,-0.8663978576660156,-0.5108675956726074,-0.7330377101898193,1.0164790153503418,1.3365721702575684
1772903886076750000,7.51475,-9.746064186096191,-1.3489534854888916,-1.365718126296997,-0.6603448390960693,0.8558215498924255,1.2638791799545288
1772903886095735600,7.533735595703125,-10.868517875671388,-1.986787796020508,-1.5872392654418943,-0.4801397025585174,0.695164144039154,1.2101231813430786
1772903886114720800,7.552720703125,-11.808605194091797,-2.385918617248535,-1.5001777410507202,-0.2791652083396911,0.4514290690422058,1.1679733991622925
1772903886133706500,7.57170654296875,-12.695069313049316,-2.258863925933838,-1.2063148021697998,-0.1539379209280014,0.0806341543793678,1.0592395067214966
1772903886152691700,7.590691650390625,-13.494121551513672,-1.918123722076416,-0.9656304717063904,-0.1685986816883087,-0.4440986812114715,0.8405499458312988
1772903886171677200,7.60967724609375,-13.973084449768066,-1.7226635217666626,-1.932333707809448,-0.098960094153881,-0.8436042666435242,0.4202749729156494
1772903886190662700,7.62866259765625,-13.33384132385254,-1.5961687564849854,-2.4446730613708496,0.1209512278437614,-0.9584468603134156,-0.1062904745340347
1772903886209648000,7.647648193359375,-12.334656715393066,-2.0197911262512207,-1.3778643608093262,0.1704312711954116,-0.7373138070106506,-0.6542361974716187
1772903886228633600,7.666633544921875,-12.32247543334961,-3.159444093704224,-0.4568181037902832,0.0421496704220771,-0.3292561173439026,-1.3469568490982056
1772903886247619000,7.685619140625,-13.300721168518066,-2.8547580242156982,-0.7071253657341003,0.0116064306348562,-0.6096430420875549,-2.445291757583618
1772903886266604500,7.7046044921875,-11.142314910888672,-1.767667531967163,0.6883498430252075,0.0183259434998035,-2.03112530708313,-3.816072225570679
1772903886285589800,7.72358984375,-2.768605232238769,-2.3227834701538086,3.380657434463501,0.0054977829568088,-3.872271776199341,-5.090336322784424
1772903886304575200,7.7425751953125,12.831249237060549,-6.370264530181885,8.248104095458984,-0.0073303775861859,-4.0500335693359375,-5.433031558990479
1772903886323560700,7.761560791015625,27.823654174804688,-10.791060447692873,12.041508674621582,-0.3115410506725311,-2.095266103744507,-4.087907314300537
1772903886342546200,7.780546142578125,31.10970115661621,-6.633798599243164,6.074657440185547,-0.1111773923039436,-1.1343759298324585,-2.12886381149292
1772903886361531600,7.79953173828125,26.20350646972656,-1.6147080659866333,0.95090913772583,0.6725621223449707,-1.1924080848693848,-0.8051197528839111
1772903886380517000,7.81851708984375,22.525300979614254,-0.3913651704788208,2.4461615085601807,0.9944878816604614,-0.5558869242668152,0.0452039949595928
1772903886399502600,7.837502685546875,19.725662231445312,-0.0487569570541381,3.4261233806610107,1.003650784492493,0.5131264328956604,0.9553925395011902
1772903886418488000,7.856488037109375,13.591737747192385,-0.9268680810928344,4.155550003051758,0.822834849357605,1.3817760944366455,1.6230677366256714
1772903886437473300,7.875473388671875,6.195992469787598,-2.338426113128662,3.867994785308838,0.5699368119239807,1.8099923133850095,1.6939280033111572
1772903886456458800,7.894458740234375,1.8463449478149412,-3.029694080352783,2.126309871673584,0.5974257588386536,1.7776165008544922,1.3994911909103394
1772903886475444200,7.9134443359375,0.8151960372924805,-2.8820972442626958,1.5251226425170898,0.729983389377594,1.4159845113754272,1.2437206506729126
1772903886494429700,7.9324296875,0.0171709060668945,-2.3994624614715576,1.9835073947906492,0.6218603253364563,1.1869102716445925,1.2944225072860718
1772903886513415200,7.951415283203125,-2.027777671813965,-1.3749347925186155,1.8513705730438232,0.3048215210437774,1.173471212387085,1.3261874914169312
1772903886532400600,7.970400634765625,-4.572294235229492,-0.4943670630455017,0.7270500659942627,0.0342084281146526,1.2730422019958496,1.164919137954712
1772903886551386000,7.98938623046875,-6.439077377319336,-0.0304821729660034,-0.5928730964660645,-0.0525343716144561,1.3781108856201172,0.9046907424926758
1772903886570371300,8.008371337890624,-7.454523086547852,0.1123679280281066,-1.427028775215149,0.0250454563647508,1.3158026933670044,0.6896663308143616
1772903886589356800,8.027356689453125,-7.907228469848633,0.1630216240882873,-1.8020501136779783,0.2315177470445633,1.0793980360031128,0.6071996092796326
1772903886608342300,8.04634228515625,-8.221887588500977,0.2202052474021911,-1.2993111610412598,0.4294379353523254,0.8387173414230347,0.6847794055938721
1772903886627327700,8.06532763671875,-9.00814151763916,0.0664871931076049,-0.2129896879196167,0.481361448764801,0.6505709886550903,0.851545512676239
1772903886646313000,8.08431298828125,-10.310242652893066,0.0053989887237548,0.7552466988563538,0.3414734005928039,0.3787361681461334,1.0115920305252075
1772903886665298700,8.103298583984374,-11.993541717529297,0.1929471492767334,0.8774722218513489,0.1270598769187927,0.0659733936190605,0.9993748068809508
1772903886684284000,8.122283935546875,-13.178199768066406,0.533129096031189,0.3360218405723572,-0.0109955659136176,0.0201585385948419,0.7922916412353516
1772903886703269400,8.141269287109376,-14.65944766998291,0.0996515750885009,-0.1436703205108642,-0.0140498895198106,0.2498437017202377,0.277332603931427
1772903886722254800,8.1602548828125,-15.089422225952148,0.4553252458572387,-0.893506646156311,0.0806341543793678,0.3176496922969818,-0.2913824915885925
1772903886741240300,8.179240234375,-14.76938819885254,0.9376792907714844,-0.9393821954727172,0.1459966748952865,-0.0897971242666244,-0.8069523572921753
1772903886760225800,8.198225830078124,-14.167055130004885,0.2363793849945068,0.1231616735458374,-0.0226019974797964,-0.6065887212753296,-1.4288127422332764
1772903886779211000,8.2172109375,-14.071426391601562,-1.690938949584961,1.1512675285339355,-0.1893680840730667,-1.592524528503418,-2.469726324081421
1772903886798196500,8.236196533203126,-10.677607536315918,-2.381439447402954,0.4003875255584717,-0.0189368072897195,-2.855792760848999,-3.864941358566284
1772903886817182000,8.255181884765625,-2.322137355804444,-2.332221508026123,2.8118622303009038,0.150883600115776,-4.790401458740234,-4.856986045837402
1772903886836167400,8.27416748046875,12.409246444702148,-4.790021896362305,8.056875228881836,-0.0684168562293052,-5.330406188964844,-5.010923862457275
1772903886855153000,8.29315283203125,28.590656280517575,-9.637815475463867,10.841045379638672,-0.2846629917621612,-2.8515167236328125,-3.60410213470459
1772903886874138400,8.312138427734375,32.829734802246094,-8.031474113464355,7.122374534606934,-0.2718348205089569,-0.9266818761825562,-1.1795798540115356
1772903886893123600,8.33112353515625,24.61205673217773,-1.4660406112670898,3.192241668701172,-0.1411097645759582,-0.8020654320716858,0.1356119811534881
1772903886912109000,8.350109130859375,18.0045166015625,-0.0668072700500488,3.5687694549560547,-0.3481929302215576,-0.0769689604640007,0.2272416949272155
1772903886931094500,8.369094482421875,18.1802978515625,-1.1270358562469482,3.1730399131774902,-0.3927860558032989,1.2498292922973633,0.5485565662384033
1772903886950080000,8.388080078125,17.42474365234375,-2.941920280456543,2.9611783027648926,-0.2620609998703003,2.149022340774536,1.5497639179229736
1772903886969065500,8.4070654296875,11.92033576965332,-3.761972188949585,2.691466808319092,-0.013439024798572,2.334725141525269,2.36893367767334
1772903886988050700,8.42605078125,5.467366218566895,-3.932166576385498,2.950658082962036,0.0769689604640007,2.254091024398804,2.5558581352233887
1772903887007036200,8.4450361328125,1.243818283081055,-3.476458072662353,2.589554786682129,0.0079412423074245,2.0109667778015137,2.35305118560791
1772903887026021600,8.464021728515625,-0.8012332916259766,-3.0123400688171387,1.2645416259765625,0.026267185807228,1.767231822013855,1.9987496137619016
1772903887045007000,8.483007080078124,-1.2570505142211914,-3.1039857864379883,0.3181476593017578,0.2266308367252349,1.5424336194992063,1.7501275539398191
1772903887063992300,8.501992431640625,-1.1895437240600586,-2.973672151565552,0.2279396057128906,0.4080576598644256,1.3194679021835327,1.805105447769165
1772903887082977800,8.520977783203126,-2.5668954849243164,-2.429046630859375,0.4533882141113281,0.3964512348175049,1.0757328271865845,2.0018038749694824
1772903887101963300,8.53996337890625,-5.088834762573242,-1.7784748077392578,-0.0652931928634643,0.3292561173439026,0.8967494964599609,2.0806055068969727
1772903887120948700,8.55894873046875,-7.533363342285156,-1.431609272956848,-0.2722667455673218,0.2803869247436523,0.9682206511497498,2.003025531768799
1772903887139934200,8.577934326171874,-9.58139705657959,-1.6644152402877808,0.4256600141525268,0.2229656428098678,1.227838158607483,1.938273906707764
1772903887158919400,8.59691943359375,-11.662203788757324,-2.272620677947998,1.6572458744049072,0.0232128612697124,1.3671153783798218,1.9596542119979856
1772903887177905000,8.61590478515625,-14.21017074584961,-2.290663957595825,1.415138602256775,-0.2302960157394409,0.9486730098724364,1.9346086978912356
1772903887196890400,8.634890380859375,-16.913990020751953,-1.4099591970443726,0.4898186326026916,-0.4294379353523254,0.1704312711954116,1.6322306394577026
1772903887215875800,8.653875732421875,-19.054113388061523,-1.7468485832214355,0.1505835652351379,-0.5125155448913574,-0.3683514595031738,0.8588758707046509
1772903887234861300,8.672861328125,-20.86064338684082,-2.868678569793701,-0.1020277142524719,-0.5491674542427063,-0.0739146396517753,-0.370184063911438
1772903887253846500,8.691846435546875,-20.337779998779297,-2.415851593017578,-1.5709974765777588,-0.3714057803153991,0.5186241865158081,-1.508836030960083
1772903887272832000,8.71083203125,-16.427692413330078,-0.8080968856811523,-2.513534545898437,-0.1557705253362655,-0.0030543238390237,-1.7269147634506226
1772903887291817500,8.7298173828125,-12.238763809204102,-0.1641682386398315,-1.0222349166870115,-0.1551596522331237,-1.5870267152786257,-1.2693769931793213
1772903887310803000,8.748802978515625,-11.140413284301758,-0.6872903108596802,-0.1961342096328735,-0.1857028901576995,-2.6841397285461426,-1.2870920896530151
1772903887329788200,8.7677880859375,-11.77895736694336,-2.109729766845703,0.9774399995803832,-0.1948658674955368,-2.9266531467437744,-2.5851798057556152
1772903887348773600,8.786773681640625,-7.733506202697754,-3.591465711593628,2.5333611965179443,-0.0665842592716217,-2.562577724456787,-4.655400276184082
1772903887367759000,8.805759033203126,5.691890716552734,-5.43172550201416,4.16819429397583,0.1753181964159011,-2.7421720027923584,-5.77694845199585
1772903887386744600,8.82474462890625,25.97273063659668,-7.1460041999816895,6.266461849212647,0.4886918365955353,-3.4526076316833496,-4.451371669769287
1772903887405730000,8.84372998046875,36.85335159301758,-7.878220558166504,9.473525047302246,0.305432379245758,-3.223533391952514,-1.6731586456298828
1772903887424715300,8.86271533203125,30.72353744506836,-3.1793441772460938,5.594232082366943,0.2822195291519165,-1.5027273893356323,-0.2657261788845062
1772903887443700700,8.88170068359375,24.65060234069824,1.431970477104187,3.50490951538086,0.2443459182977676,0.4141663312911987,0.098960094153881
1772903887462686200,8.900686279296876,23.797697067260746,0.7865592241287231,4.261300086975098,0.0018325943965464,1.497840404510498,1.0219768285751345
1772903887481671700,8.919671630859375,19.33769798278809,-2.193198204040528,3.857255697250366,0.0085521070286631,2.016464710235596,2.2052218914031982
1772903887500657200,8.9386572265625,10.837491989135742,-3.602573871612549,3.232285261154175,0.2247982323169708,2.0909900665283203,2.731176376342773
1772903887519642400,8.957642333984374,4.1735944747924805,-3.955734252929688,2.90798568725586,0.4056142270565033,2.0995421409606934,2.5491387844085693
1772903887538627800,8.9766279296875,1.364363670349121,-3.9039382934570312,2.659097909927368,0.472198486328125,2.0555598735809326,2.221104383468628
1772903887557613000,8.995613037109376,0.2676820755004883,-3.792799234390259,2.227787733078003,0.4868592321872711,1.7550145387649536,2.006690740585327
1772903887576598500,9.0145986328125,-0.3536109924316406,-3.572241306304932,2.0317575931549072,0.4764745235443115,1.3377938270568848,1.9394956827163696
1772903887595584000,9.033583984375,-1.6915960311889648,-3.232663631439209,1.816815972328186,0.4343248605728149,1.0665699243545532,1.9162827730178835
1772903887614569500,9.052569580078124,-3.739538192749024,-2.706010341644287,1.5692415237426758,0.3280344009399414,0.9327905178070068,1.8179335594177248
1772903887633555000,9.071554931640623,-5.752174377441406,-2.2257096767425537,0.9936431646347046,0.277332603931427,0.9028581380844116,1.6169590950012207
1772903887652540200,9.0905400390625,-7.241203308105469,-1.727982759475708,0.7963515520095825,0.2687804996967315,0.8600975871086121,1.4257583618164062
1772903887671525600,9.109525634765625,-8.772333145141602,-1.6103278398513794,1.2653416395187378,0.1765399277210235,0.8173370957374573,1.3084723949432373
1772903887690511000,9.128510986328124,-10.53032112121582,-1.789963722229004,2.115031480789185,-0.0604756139218807,0.8680388331413269,1.2168426513671875
1772903887709496600,9.14749658203125,-12.523765563964844,-1.8269813060760496,2.527747869491577,-0.4129445850849151,0.8057306408882141,1.0555742979049685
1772903887728482000,9.16648193359375,-14.4862060546875,-1.714200735092163,1.813071370124817,-0.7073814272880554,0.5125155448913574,0.7098248600959778
1772903887747467300,9.18546728515625,-16.094417572021484,-1.6327357292175293,0.2904750108718872,-0.7385355234146118,0.1221729591488838,0.1117882579565048
1772903887766452700,9.20445263671875,-15.976836204528809,-1.778482437133789,-0.4586835503578186,-0.5974257588386536,-0.2223547846078872,-0.5424479246139526
1772903887785438000,9.22343798828125,-14.24635124206543,-1.9974409341812132,-0.127944529056549,-0.5161807537078857,-0.4844157695770263,-1.0091485977172852
1772903887804423400,9.24242333984375,-12.165319442749023,-2.109748601913452,0.4370951056480407,-0.5302306413650513,-0.6682860851287842,-1.1869102716445925
1772903887823409000,9.261408935546877,-11.23739242553711,-2.2770915031433105,0.0798435807228088,-0.4954113364219665,-0.9425643682479858,-1.240666389465332
1772903887842394400,9.280394287109376,-11.142192840576172,-1.730893611907959,-1.3015164136886597,-0.1973093301057815,-1.50028395652771,-1.3799434900283811
1772903887861379800,9.2993798828125,-10.092215538024902,-1.2430541515350342,-1.787946343421936,0.258395791053772,-2.0635011196136475,-1.647502303123474
1772903887880365000,9.318364990234375,-8.848260879516602,-2.737176418304444,1.8189916610717771,0.2614501118659973,-2.726900339126587,-2.349385976791382
1772903887899350500,9.3373505859375,-9.944992065429688,-8.092169761657715,7.172515392303467,-0.1044578775763511,-3.3988516330718994,-4.450150012969971
1772903887918336000,9.3563359375,-1.326498031616211,-10.905940055847168,6.346487045288086,0.1227838173508644,-3.6535823345184326,-6.7714362144470215
1772903887937321200,9.3753212890625,28.600875854492188,-7.846024513244629,3.7020046710968018,1.003650784492493,-3.970010280609131,-5.893012523651123
1772903887956306700,9.394306640625,50.89850234985352,-8.645748138427734,10.500286102294922,0.5247328281402588,-2.017686367034912,-1.398269534111023
1772903887975292200,9.413292236328124,43.60781097412109,-0.7655649185180664,4.106960773468018,0.1588248461484909,0.3384190797805786,2.0494513511657715
1772903887994277600,9.432277587890624,22.6849308013916,2.2552947998046875,2.8383679389953613,-0.067805990576744,2.5210390090942383,2.727511167526245
1772903888013262800,9.451262939453123,9.080504417419434,0.7494446039199829,3.4941110610961914,-0.1692095398902893,3.787972450256348,2.367100954055786
1772903888032248300,9.470248291015626,4.096103668212891,0.5056462287902832,3.488619804382324,-0.2693913578987121,3.199098825454712,2.328005790710449
1772903888051233800,9.48923388671875,1.315577507019043,-0.3459313511848449,3.369896411895752,-0.5632173418998718,2.3402230739593506,2.1557416915893555
1772903888070219000,9.508218994140623,0.3815155029296875,-1.402883768081665,2.7628045082092285,-0.8106175661087036,2.3732097148895264,1.674991250038147
1772903888089204500,9.52720458984375,0.8463363647460938,-2.031748056411743,1.363933563232422,-0.7788525819778442,2.7030766010284424,1.2260055541992188
1772903888108190000,9.54618994140625,1.928504943847656,-2.2859809398651123,-0.2148352861404419,-0.481361448764801,2.6615378856658936,1.2076796293258667
1772903888127175200,9.565175048828126,1.3987970352172852,-2.26392126083374,-0.9613272547721864,-0.0897971242666244,2.0378448963165283,1.516777276992798
1772903888146160600,9.58416064453125,0.0884876251220703,-1.812021851539612,-0.5035496950149536,0.1802051067352295,1.4819579124450684,1.823431372642517
1772903888165146000,9.60314599609375,-1.367462158203125,-1.6790132522583008,0.2190367877483368,0.2950477004051208,1.321911334991455,1.96148681640625
1772903888184131600,9.622131591796874,-3.0675926208496094,-1.755732536315918,0.9629874229431152,0.3048215210437774,1.3090832233428955,1.9394956827163696
1772903888203116800,9.64111669921875,-4.502358436584473,-1.7021608352661133,1.1518511772155762,0.3084867000579834,1.2290599346160889,1.7898337841033936
1772903888222102300,9.660102294921876,-5.557455062866211,-1.8892195224761963,1.5150773525238037,0.305432379245758,1.0677915811538696,1.6505566835403442
1772903888241087700,9.679087646484374,-6.6654372215271,-2.025643348693848,1.9673359394073489,0.2431241869926452,0.8631519079208374,1.546709656715393
1772903888260073000,9.698072998046875,-7.968448638916016,-2.055804967880249,2.1478588581085205,0.1692095398902893,0.6805033683776855,1.4019346237182615
1772903888279058400,9.717058349609376,-9.276023864746094,-1.9588935375213623,2.106506824493408,0.0800232887268066,0.4660898149013519,1.1814124584197998
1772903888298044000,9.7360439453125,-10.441291809082031,-1.8439068794250488,1.963114142417908,0.0164933484047651,0.1973093301057815,0.8686497211456299
1772903888317029000,9.755029052734375,-11.246179580688477,-1.8642828464508057,2.122096061706543,-0.0305432397872209,-0.0580321550369262,0.5045742988586426
1772903888336014600,9.7740146484375,-11.808286666870115,-2.048783779144287,2.212143421173096,-0.0806341543793678,-0.2626718580722809,0.098960094153881
1772903888355000000,9.793,-12.013492584228516,-2.0600833892822266,2.207173585891724,-0.1233946830034256,-0.4703658819198608,-0.3200931549072265
1772903888373985500,9.811985595703124,-11.779888153076172,-2.1900360584259038,2.2393760681152344,-0.1844811588525772,-0.730594277381897,-0.7037162184715271
1772903888392970800,9.830970703125,-11.272958755493164,-2.2274863719940186,1.6954591274261477,-0.1649334877729416,-1.053741693496704,-1.0439679622650146
1772903888411956200,9.849956298828126,-10.51113510131836,-2.1647298336029053,1.477967619895935,-0.0616973415017128,-1.3286309242248535,-1.3384047746658323
1772903888430941700,9.868941650390624,-9.956360816955566,-2.5237865447998047,1.451093673706055,0.0794124230742454,-1.5247185230255127,-1.6340632438659668
1772903888449927000,9.887927001953123,-9.387701034545898,-2.463012933731079,1.5238733291625977,0.2241873741149902,-1.85092031955719,-1.9468261003494265
1772903888468912400,9.906912353515626,-8.641820907592773,-2.936590671539306,2.9575283527374268,0.211359217762947,-2.494771718978882,-2.4489569664001465
1772903888487897900,9.92589794921875,-7.74299144744873,-3.2709763050079346,4.4211745262146,0.0598647482693195,-3.0695955753326416,-3.4745988845825195
1772903888506883000,9.944883056640624,-2.648301124572754,-4.399033069610596,5.6375885009765625,-0.0629190728068351,-3.1887142658233643,-4.498408317565918
1772903888525868500,9.96386865234375,8.813478469848633,-6.1294450759887695,6.528730869293213,-0.1429423540830612,-3.0702064037323,-4.578431606292725
1772903888544854000,9.98285400390625,18.931659698486328,-6.731901168823242,6.403629779815674,-0.2926042377948761,-2.940092086791992,-3.605934858322144
1772903888563839200,10.001839111328126,25.64545249938965,-3.7931060791015625,2.5373406410217285,-0.1417206227779388,-3.140455722808838,-2.1050400733947754
1772903888582824700,10.02082470703125,28.841426849365234,-0.514165997505188,-1.1659250259399414,0.1857028901576995,-2.221104383468628,-0.5259546041488647
1772903888601810200,10.03981005859375,25.904172897338867,1.003447413444519,-0.6548550128936768,0.0867427960038185,0.1227838173508644,0.6017017960548401
1772903888620795400,10.05879541015625,19.059059143066406,1.132021427154541,-0.8593614101409912,0.0568104237318038,1.9278892278671265,1.276707410812378
1772903888639780900,10.07778076171875,12.24907112121582,0.1442471742630005,0.0371894836425781,0.0800232887268066,2.44468092918396,1.802051067352295
1772903888658766300,10.096766357421876,6.605030059814453,-0.5481120944023132,1.0864722728729248,0.0219911318272352,2.1129813194274902,2.120922565460205
1772903888677751600,10.11575146484375,3.0051727294921875,-0.7823950052261353,1.7838468551635742,-0.1276707351207733,1.7269147634506226,2.1667373180389404
1772903888696737000,10.134737060546875,0.7222309112548828,-1.1170878410339355,2.3753862380981445,-0.3738492429256439,1.7629557847976685,1.9364413022994995
1772903888715722200,10.15372216796875,-0.352604866027832,-1.2379672527313232,1.9709105491638184,-0.5473348498344421,1.9840887784957888,1.6395610570907593
1772903888734708000,10.1727080078125,-0.9910802841186525,-1.219163417816162,0.9732820987701416,-0.5766563415527344,2.030514478683472,1.4764602184295654
1772903888753693200,10.191693115234376,-1.186202049255371,-1.3258819580078125,0.2400128841400146,-0.4954113364219665,1.839924693107605,1.4813470840454102
1772903888772678700,10.2106787109375,-1.7518367767333984,-1.3414758443832395,-0.4760307073593139,-0.3219257295131683,1.5680898427963257,1.4886775016784668
1772903888791664000,10.2296640625,-2.4990968704223637,-1.3663082122802734,-1.1575815677642822,-0.0592538826167583,1.2705987691879272,1.4214823246002195
1772903888810649300,10.2486494140625,-2.8690643310546875,-1.3498544692993164,-1.2722458839416504,0.2046397030353546,0.9553925395011902,1.3261874914169312
1772903888829634800,10.267634765625,-3.1860952377319336,-1.4005653858184814,-0.1745912432670593,0.3207040131092071,0.813060998916626,1.21928608417511
1772903888848620000,10.2866201171875,-3.734797477722168,-1.4983705282211304,0.94105327129364,0.2706131041049957,0.8393282294273376,1.1038326025009155
1772903888867605500,10.30560546875,-4.816959381103516,-1.3608025312423706,1.2301595211029053,0.1814268380403518,0.7984002828598022,0.9547816514968872
1772903888886591000,10.324591064453124,-5.998537063598633,-1.1283228397369385,1.2345579862594604,0.1142317131161689,0.5803215503692627,0.7690787315368652
1772903888905576200,10.343576171875,-7.235564708709717,-0.9527945518493652,1.4764164686203003,0.0507017783820629,0.3384190797805786,0.5021308660507202
1772903888924561700,10.362561767578123,-8.569415092468262,-1.022007703781128,2.196446180343628,-0.0788015574216842,0.2095266133546829,0.1588248461484909
1772903888943547100,10.381547119140626,-9.956762313842772,-1.2044103145599363,2.85298228263855,-0.258395791053772,0.1466075479984283,-0.2193004488945007
1772903888962532400,10.400532470703125,-11.729368209838867,-1.4267704486846924,2.7776379585266118,-0.4111120104789734,-0.1838703006505966,-0.637742817401886
1772903888981517800,10.419517822265624,-13.412410736083984,-1.2138941287994385,1.6595818996429443,-0.3671297430992126,-0.8436042666435242,-1.1410953998565674
1772903889000503300,10.43850341796875,-14.577539443969728,-1.410604476928711,-0.042727455496788,0.0048869182355701,-1.5949679613113403,-1.7421863079071045
1772903889019488500,10.457488525390623,-15.007740020751951,-1.240586280822754,-0.0603218227624893,0.481361448764801,-2.562577724456787,-2.5130977630615234
1772903889038474000,10.476473876953126,-13.383432388305664,-2.9054830074310303,1.84639310836792,0.6969966888427734,-3.6413650512695312,-3.302945852279663
1772903889057459200,10.495459228515625,-9.784635543823242,-3.449959516525269,3.826098918914795,0.6175842881202698,-4.259560108184815,-4.136776447296143
1772903889076444700,10.514444580078123,-0.0007486343383789,-4.247945308685303,6.629062652587891,0.1191186308860778,-3.91991925239563,-4.261392593383789
1772903889095430100,10.53343017578125,8.179818153381348,-5.3181867599487305,7.294281005859375,-0.3860665261745453,-3.8515024185180655,-3.760483503341675
1772903889114415400,10.552415283203125,16.33916473388672,-5.19611120223999,3.900644540786743,-0.1295033395290374,-3.9669559001922607,-2.729954719543457
1772903889133400800,10.57140087890625,24.6970157623291,-1.994166731834412,2.757746696472168,0.5540543794631958,-3.7201664447784415,-0.99021178483963
1772903889152386300,10.59038623046875,26.31831932067871,0.3464826345443725,6.117917060852051,0.1350011229515075,-2.1606287956237797,0.6896663308143616
1772903889171371500,10.60937158203125,20.401386260986328,1.9514522552490237,5.459987163543701,-0.740368127822876,-0.0464257225394248,1.1887428760528564
1772903889190357000,10.62835693359375,13.70122528076172,2.416718006134033,2.806924819946289,-1.0360267162322998,2.014021158218384,1.0097594261169434
1772903889209342500,10.647342529296877,8.06894588470459,0.9394387006759644,1.6630659103393557,-0.9749401807785034,3.015228509902954,0.9114102721214294
1772903889228327700,10.66632763671875,4.683574676513672,0.1156821846961975,1.0161216259002686,-0.8625410795211792,2.860068798065185,1.1026109457015991
1772903889247313200,10.685313232421874,2.837100028991699,-0.278777539730072,0.7515323162078857,-0.7709113359451294,2.310901403427124,1.3646719455718994
1772903889266298400,10.70429833984375,1.1842050552368164,-0.7175886631011963,1.177018642425537,-0.8106175661087036,1.8222095966339111,1.4789036512374878
1772903889285283800,10.723283935546876,-0.0926532745361328,-1.345672369003296,1.1799366474151611,-0.9260709881782532,1.5100576877593994,1.4520255327224731
1772903889304269300,10.742269287109377,-2.491088390350342,-0.7555518746376038,-0.6084568500518799,-0.7165443897247314,2.52042818069458,1.5302162170410156
1772903889323254500,10.761254638671875,-2.3333425521850586,-1.980017900466919,0.0066046714782714,-0.2400698512792587,1.3640609979629517,0.9028581380844116
1772903889342240000,10.780239990234374,-2.560011863708496,-2.331851959228516,0.0132644176483154,0.1490510106086731,1.470962405204773,0.7770199775695801
1772903889361225500,10.7992255859375,-1.940474510192871,-2.317348003387451,0.2178593873977661,0.3011563420295715,1.4343105554580688,0.8649845123291016
1772903889380210700,10.818210693359376,-1.7434215545654297,-1.2619245052337646,0.3404704332351684,0.2926042377948761,1.1685843467712402,1.0757328271865845
1772903889399196200,10.837196044921876,-2.66878604888916,-0.7242143154144287,0.0560255050659179,0.2724456787109375,0.9853248596191406,1.1490366458892822
1772903889418181600,10.856181640625,-3.798820018768311,-0.5956161022186279,-0.1162589192390441,0.2828303873538971,0.6835576891899109,0.9712749719619752
1772903889437166800,10.875166748046874,-4.019485950469971,-0.2899514436721802,-0.0230635404586792,0.2608392536640167,0.4465421438217163,0.6963858604431152
1772903889456152300,10.89415234375,-3.327678680419922,-0.1615999937057495,0.0586568117141723,0.2510654330253601,0.4526508152484894,0.4801397025585174
1772903889475137500,10.913137451171876,-2.327071189880371,-0.3226965665817261,0.4473372101783752,0.2284634262323379,0.4948004782199859,0.430048793554306
1772903889494123000,10.932123046875,-1.473419189453125,-0.2056754827499389,0.5089585781097412,0.143553227186203,0.3176496922969818,0.4618137776851654
1772903889513108500,10.9511083984375,-0.9650888442993164,-0.1107175350189209,0.3298962712287903,0.0610864795744419,0.1551596522331237,0.5027416944503784
1772903889532093700,10.97009375,-1.0358524322509766,-0.1134734153747558,0.1460726261138916,0.0384844802320003,0.0482583157718181,0.5009090900421143
1772903889551079200,10.9890791015625,-1.0861215591430664,0.0246081352233886,0.0944368839263916,-0.0085521070286631,-0.1001818254590034,0.4502073526382446
1772903889570064400,11.008064453125,-1.0617218017578125,0.0062298774719238,0.3014793395996094,-0.1007926911115646,-0.1679878085851669,0.3439168632030487
1772903889589049900,11.0270498046875,-1.0110454559326172,0.0429058074951171,0.1958637237548828,-0.1857028901576995,-0.1893680840730667,0.2009745091199875
1772903889608035300,11.046035400390624,-1.012126922607422,-0.0715739727020263,-0.163708209991455,-0.2144135385751724,-0.1521053314208984,0.0531452372670173
1772903889627020500,11.0650205078125,-0.7418050765991211,-0.316485047340393,-0.270591139793396,-0.1985310465097427,-0.0311541035771369,-0.0140498895198106
1772903889646006000,11.084006103515623,-0.4598283767700195,-0.4964996576309204,-0.47732675075531,-0.1221729591488838,0.10934479534626,0.0213802680373191
1772903889664991200,11.1029912109375,-0.284341812133789,-0.710634708404541,-0.464482307434082,0.0109955659136176,0.3640754222869873,0.1679878085851669
1772903889683976700,11.121976806640625,-0.4123249053955078,-0.8190639019012451,-0.3586005568504333,0.1496618688106537,0.7574723362922668,0.3671297430992126
1772903889702962000,11.1409619140625,-1.1454334259033203,-0.933786153793335,-0.4310610890388489,0.3414734005928039,1.033583164215088,0.5125155448913574
1772903889721947400,11.159947509765624,-0.8011751174926758,-0.8490817546844482,-0.3515031933784485,0.3573558926582336,0.1930332630872726,0.5571087002754211
1772903889740932900,11.178932861328123,-1.587996482849121,0.5672509670257568,0.4705973267555237,0.1466075479984283,-0.1936441361904144,0.2241873741149902
1772903889759918000,11.19791796875,-1.5529327392578125,-0.0886094570159912,1.5956846475601196,-0.0317649692296981,0.0916297137737274,-0.1160643100738525
1772903889778903600,11.216903564453125,-1.3595514297485352,0.1395425796508789,0.7366652488708496,-0.1221729591488838,0.2296851575374603,-0.4050033390522003
1772903889797889000,11.235888916015623,-0.3265161514282226,-0.0621712207794189,0.0519470423460006,-0.0598647482693195,0.1123991161584854,-0.4233292937278747
1772903889816874200,11.254874267578124,0.2554683685302734,-0.6071863174438477,0.0857340991497039,0.0091629717499017,0.0054977829568088,-0.1606574356555938
