time,seconds_elapsed,acc_z,acc_y,acc_x,gyro_z,gyro_y,gyro_x
1772903903343865600,0.121865478515625,0.2337064743041992,-0.0986897945404052,0.0889248996973037,0.2590066790580749,-0.1313359290361404,0.1056796088814735
1772903903362850800,0.140850830078125,0.3448028564453125,-0.1643555164337158,0.0493784397840499,0.2779434621334076,-0.1808159798383712,0.1270598769187927
1772903903381835800,0.159835693359375,0.3702011108398437,-0.1562449932098388,0.1444645226001739,0.2993237376213074,-0.1667660921812057,0.1606574356555938
1772903903400821000,0.178821044921875,0.2191858291625976,-0.0771915912628173,0.1086994558572769,0.318871408700943,-0.1123991161584854,0.1740964651107788
1772903903419806200,0.19780615234375,0.0379352569580078,-0.0139145851135253,0.0937668085098266,0.3231474757194519,-0.1087339296936988,0.1545487940311432
1772903903438791200,0.216791259765625,-0.1082668304443359,0.0110950469970703,0.0657422691583633,0.3268126547336578,-0.1490510106086731,0.1026252806186676
1772903903457776400,0.2357763671875,0.0875225067138671,0.0433909893035888,0.1523635685443878,0.318871408700943,-0.1704312711954116,0.0726929083466529
1772903903476761300,0.25476123046875,0.313547134399414,-0.0227420330047607,0.4010252952575683,0.2590066790580749,-0.1221729591488838,0.0977383628487587
1772903903495746600,0.27374658203125,0.1782693862915039,-0.0077652931213378,0.4122573137283325,0.173485592007637,-0.0623082071542739,0.0897971242666244
1772903903514731500,0.2927314453125,0.1074857711791992,0.1065151691436767,0.1923355162143707,0.119729496538639,-0.0439822636544704,0.036651886999607
1772903903533716700,0.311716796875,0.2594919204711914,0.1537060737609863,0.0955102741718292,0.0928514450788497,-0.0293215103447437,-0.0103847011923789
1772903903552701700,0.33070166015625,0.4390277862548828,0.16357421875,-0.0715154409408569,0.0904079899191856,-0.0048869182355701,-0.0268780495971441
1772903903571687000,0.34968701171875,0.798069953918457,0.2818913459777832,-0.0884552597999572,0.0904079899191856,0.0012217295588925,-0.0042760535143315
1772903903590672100,0.368672119140625,0.9299201965332032,0.329859972000122,-0.0683338344097137,0.0696385875344276,0.0555886961519718,0.0164933484047651
1772903903609657000,0.387656982421875,0.8203678131103516,0.2880210876464844,-0.1192979514598846,0.0549778304994106,0.1484401375055313,0.0061086476780474
1772903903628642300,0.406642333984375,0.8295917510986328,0.1526222229003906,-0.1353135406970977,0.078190691769123,0.1795942485332489,-0.0018325943965464
1772903903647627500,0.42562744140625,0.7715053558349609,-0.0367093086242675,0.0396343171596527,0.1160643100738525,0.1478292793035507,-0.0018325943965464
1772903903666612500,0.444612548828125,0.4892654418945312,-0.3666543960571289,0.2414517104625702,0.1600465774536132,0.1233946830034256,0.0006108647794462
1772903903685597700,0.46359765625,0.0635232925415039,-0.5185470581054688,0.4228210151195526,0.1869246214628219,0.1368337124586105,0.006719512399286
1772903903704582700,0.482582763671875,-0.4947786331176758,-0.5661838054656982,0.5111806392669678,0.2064722925424575,0.1887572109699249,-0.0079412423074245
1772903903723567900,0.50156787109375,-1.034955978393555,-0.518836259841919,0.4789376854896545,0.2290742993354797,0.2455676347017288,-0.047036588191986
1772903903742553000,0.520552978515625,-1.3293333053588867,-0.4774923324584961,0.3848249614238739,0.2522871494293213,0.2535088956356048,-0.067805990576744
1772903903761538000,0.5395380859375,-1.6519136428833008,-0.4289531707763672,0.3035926222801208,0.2651153206825256,0.1692095398902893,-0.0940731763839721
1772903903780523300,0.558523193359375,-1.995438575744629,-0.3702852725982666,0.2011496126651764,0.2938259541988373,0.098960094153881,-0.1331685185432434
1772903903799508200,0.57750830078125,-2.145841598510742,-0.2166452407836914,0.1960786283016204,0.3170388340950012,-0.0012217295588925,-0.1893680840730667
1772903903818493400,0.596493408203125,-2.0369791984558105,0.0770285129547119,0.2209646701812744,0.2907716333866119,-0.1844811588525772,-0.306043267250061
1772903903837478400,0.615478515625,-1.8518638610839844,0.1778745651245117,0.1030267179012298,0.2467893660068512,-0.3500255048274994,-0.5583304166793823
1772903903856463600,0.634463623046875,-1.4036226272583008,0.2757048606872558,-0.2074362933635711,0.2437350451946258,-0.4520399272441864,-0.916297197341919
1772903903875448600,0.653448486328125,-0.5165224075317383,0.479217529296875,-0.5875012278556824,0.3371973633766174,-0.5400044918060303,-1.2748748064041138
1772903903894433800,0.672433837890625,0.4766998291015625,0.323133111000061,-0.7249334454536438,0.4954113364219665,-0.4838049113750458,-1.553429126739502
1772903903913419000,0.6914189453125,1.395132064819336,0.06649911403656,-0.503424346446991,0.6243038177490234,-0.2632827162742615,-1.665217399597168
1772903903932404000,0.710404052734375,2.190591812133789,-0.0496512651443481,-0.2427881360054016,0.6884446144104004,0.0378736145794391,-1.5558725595474243
1772903903951389200,0.72938916015625,2.546815872192383,0.0059370994567871,0.2346967458724975,0.6243038177490234,0.3304778337478637,-1.277318239212036
1772903903970374100,0.7483740234375,2.693201065063477,0.1408094763755798,0.417272686958313,0.4886918365955353,0.5564978122711182,-0.8851430416107178
1772903903989359400,0.767359375,2.617953300476074,0.2549793720245361,0.4444038867950439,0.3310887217521667,0.6462949514389038,-0.4245510101318359
1772903904008344300,0.78634423828125,2.075641632080078,0.2200750708580017,0.210450530052185,0.1857028901576995,0.593149721622467,-0.0048869182355701
1772903904027329500,0.80532958984375,1.2930727005004885,0.231091022491455,-0.0843726694583892,0.0769689604640007,0.4673115611076355,0.3042106628417969
1772903904046314500,0.824314453125,0.6029243469238281,0.3678194880485534,-0.2510098218917846,0.0103847011923789,0.2877173125743866,0.4893026947975158
1772903904065299700,0.8432998046875,0.1101722717285156,0.4582974910736084,-0.2589567303657532,-0.047036588191986,0.0873536616563797,0.5668824911117554
1772903904084284700,0.86228466796875,-0.0952482223510742,0.4454866647720337,-0.2314480245113372,-0.0934623107314109,-0.0671951249241828,0.5662716627120972
1772903904103270000,0.881269775390625,-0.019845962524414,0.4316022396087646,-0.201164498925209,-0.0904079899191856,-0.1154534444212913,0.545502245426178
1772903904122254800,0.9002548828125,-0.0523633956909179,0.3033744096755981,-0.3947465717792511,-0.0128281600773334,-0.0861319303512573,0.5009090900421143
1772903904141240000,0.919239990234375,-0.0306329727172851,0.0053519010543823,-0.6581361889839172,0.1447749584913253,-0.0287106446921825,0.4294379353523254
1772903904160225000,0.93822509765625,0.1044425964355468,-0.1842535734176635,-0.8580204248428345,0.3878991305828094,0.0806341543793678,0.3805687427520752
1772903904179210200,0.957210205078125,0.3020582199096679,-0.2092632055282592,-0.6823320388793945,0.5974257588386536,0.1221729591488838,0.3683514595031738
1772903904198195500,0.976195556640625,0.419076919555664,-0.154223084449768,-0.0709540694952011,0.6627882719039917,0.1295033395290374,0.4123337268829345
1772903904217180400,0.995180419921875,0.4990520477294922,0.0160015821456909,0.4971519112586975,0.6224712133407593,0.088575392961502,0.490524411201477
1772903904236165600,1.01416552734375,0.361551284790039,-0.0773395299911499,0.4667410850524902,0.5711585879325867,0.0543669648468494,0.5626064538955688
1772903904255150600,1.033150634765625,0.2095546722412109,-0.306640625,0.1909146904945373,0.5345066785812378,-0.0629190728068351,0.6071996092796326
1772903904274135800,1.0521357421875,0.2409219741821289,-0.3150193691253662,0.1370853185653686,0.5338957905769348,-0.0739146396517753,0.6707295179367065
1772903904293120800,1.071120849609375,0.2909822463989258,-0.2685446739196777,0.4659416973590851,0.5241219997406006,0.067805990576744,0.7269290685653687
1772903904312106000,1.09010595703125,0.209177017211914,-0.3450913429260254,0.6587550640106201,0.4911352694034576,0.2901607751846313,0.7391464114189148
1772903904331091000,1.109091064453125,0.0814113616943359,-0.3536241054534912,0.5929239392280579,0.472198486328125,0.4783071279525757,0.7098248600959778
1772903904350076200,1.128076171875,-0.0187749862670898,-0.4313158988952636,0.3247759938240051,0.4440986812114715,0.4563159942626953,0.6432406306266785
1772903904369061000,1.14706103515625,-0.1601161956787109,-0.3093008995056152,0.2416968643665313,0.3304778337478637,0.2480110973119735,0.5766563415527344
1772903904388046300,1.16604638671875,-0.3509197235107422,-0.1592798233032226,0.4646619856357574,0.1502727419137954,0.0207694023847579,0.4618137776851654
1772903904407031300,1.18503125,-0.3951873779296875,-0.3395740985870361,0.2069729268550872,0.0445931293070316,-0.1295033395290374,0.328645259141922
1772903904426016500,1.2040166015625,-0.0749759674072265,-0.4839634895324707,-0.1852945387363433,0.0561995580792427,-0.1832594275474548,0.2406807243824005
1772903904445001700,1.223001708984375,0.1327791213989257,-0.6863236427307129,-0.3902071118354797,0.1423314958810806,-0.2290742993354797,0.2327394783496856
1772903904463986700,1.241986572265625,-0.0890073776245117,-0.7295777797698975,-0.3928128182888031,0.2626718580722809,-0.2535088956356048,0.263893574476242
1772903904482972000,1.260971923828125,-0.5191688537597656,-0.7128970623016357,-0.3313688933849334,0.3543015718460083,-0.2535088956356048,0.2443459182977676
1772903904501956900,1.279956787109375,-0.7701225280761719,-0.6585128307342529,0.0659056305885315,0.3573558926582336,-0.2748891413211822,0.1826485693454742
1772903904520941800,1.29894189453125,-0.9398279190063475,-0.6734228134155273,0.199092149734497,0.3145953714847564,-0.2706131041049957,0.1166751757264137
1772903904539927000,1.317927001953125,-1.116316795349121,-0.596602201461792,0.4984010457992553,0.233961209654808,-0.215024396777153,0.0329866968095302
1772903904558912300,1.336912353515625,-1.371784210205078,-0.6683759689331055,0.6639060378074646,0.1215620934963226,-0.1356119811534881,-0.0665842592716217
1772903904577897200,1.355897216796875,-1.510152816772461,-0.6975181102752686,0.7524726986885071,-0.0030543238390237,-0.1203403621912002,-0.1411097645759582
1772903904596882400,1.37488232421875,-1.6004972457885742,-0.718590259552002,0.5878512859344482,-0.1166751757264137,-0.2290742993354797,-0.1704312711954116
1772903904615867400,1.393867431640625,-1.810367584228516,-0.8486278057098389,0.3827075362205505,-0.211359217762947,-0.3970620930194855,-0.1728747338056564
1772903904634852600,1.4128525390625,-1.5341920852661133,-0.9347689151763916,0.4916644692420959,-0.2999345958232879,-0.574212908744812,-0.119729496538639
1772903904653837600,1.431837646484375,-1.236252784729004,-0.9987524747848512,0.5911673307418823,-0.3927860558032989,-0.6181951761245728,-0.002443459117785
1772903904672822500,1.450822509765625,-1.3162717819213867,-1.1118508577346802,0.6041210889816284,-0.4679224193096161,-0.5564978122711182,0.0818558782339096
1772903904691807700,1.469807861328125,-1.5010251998901367,-1.1025605201721191,0.5412144660949707,-0.4929678738117218,-0.4202749729156494,0.1166751757264137
1772903904710793000,1.48879296875,-1.45965576171875,-1.1821720600128174,0.6562737226486206,-0.4685332775115967,-0.205861434340477,0.1759290546178817
1772903904729778000,1.50777783203125,-1.7836809158325195,-1.320420742034912,0.6159565448760986,-0.3915643095970154,-0.0372627526521682,0.2877173125743866
1772903904748763100,1.52676318359375,-2.529626846313477,-1.3909289836883545,0.4541807174682617,-0.2553414702415466,0.0164933484047651,0.3488037884235382
1772903904767748000,1.545748046875,-2.9822168350219727,-1.4987576007843018,0.7407829761505127,-0.1362228393554687,-0.1453858166933059,0.3860665261745453
1772903904786733000,1.564733154296875,-3.658029556274414,-1.4441428184509275,0.8463035821914673,-0.0226019974797964,-0.5027416944503784,0.2687804996967315
1772903904805718300,1.58371826171875,-4.936966896057129,-1.596340894699097,0.9094187021255492,0.0842993408441543,-0.8558215498924255,-0.1270598769187927
1772903904824703500,1.602703369140625,-5.92582893371582,-1.826879620552063,1.0058304071426392,0.1539379209280014,-1.1209368705749512,-0.7574723362922668
1772903904843688400,1.6216884765625,-6.098830223083496,-2.1479201316833496,1.343900442123413,0.1826485693454742,-1.1838558912277222,-1.4282019138336182
1772903904862673700,1.640673583984375,-5.699781894683838,-2.643890380859375,1.72216534614563,0.130114197731018,-1.1459823846817017,-2.0573925971984863
1772903904881658600,1.65965869140625,-5.156289100646973,-3.205438137054444,1.8243112564086916,0.0714711770415306,-1.26021409034729,-2.6676464080810547
1772903904900643800,1.678643798828125,-3.888752460479736,-3.8052263259887695,1.8280224800109863,0.1215620934963226,-1.4917317628860474,-3.2009315490722656
1772903904919628800,1.69762890625,-1.7859315872192385,-4.573207378387451,2.2691028118133545,0.2223547846078872,-1.8209879398345947,-3.601047992706299
1772903904938614000,1.716614013671875,1.0887269973754885,-5.178466320037842,3.068190336227417,0.2504545450210571,-2.3115122318267822,-3.815461397171021
1772903904957599000,1.735598876953125,4.784783363342285,-5.0437331199646,3.3634488582611084,0.2791652083396911,-2.9321508407592773,-3.852724075317383
1772903904976584200,1.754584228515625,10.130144119262695,-3.8664708137512207,2.8835010528564453,0.4495964646339416,-3.241859436035156,-3.643197536468506
1772903904995569200,1.773569091796875,18.17148208618164,-1.5347237586975098,1.6622819900512695,0.7324268817901611,-2.6309945583343506,-2.9498660564422607
1772903905014554000,1.79255419921875,25.798587799072266,1.6385846138000488,1.318521499633789,0.7092140316963196,-0.9297361969947816,-1.6481131315231323
1772903905033539300,1.811539306640625,28.97864151000977,3.8517351150512695,1.343545913696289,0.3262017965316772,1.120326042175293,0.0519235059618949
1772903905052524500,1.830524658203125,24.9758358001709,2.271539688110352,2.24262809753418,-0.0348192937672138,2.497826099395752,1.5821397304534912
1772903905071509500,1.849509521484375,17.04328155517578,0.3749842643737793,2.939905166625977,-0.2168570011854171,3.0225589275360107,2.360992431640625
1772903905090494700,1.86849462890625,11.733495712280272,0.0520840883255004,2.8866488933563232,-0.2877173125743866,3.1172430515289307,2.569908142089844
1772903905109479700,1.887479736328125,9.148700714111328,-0.8357065916061401,3.1133949756622314,-0.4538725316524505,3.4666576385498047,2.6413793563842773
1772903905128464600,1.906464599609375,6.629822731018066,-1.5901790857315063,2.404287576675415,-0.5345066785812378,3.8789913654327393,2.7446155548095703
1772903905147449900,1.925449951171875,3.2186899185180664,-2.0613932609558105,1.2953786849975586,-0.4062250852584839,4.057363986968994,2.823416948318481
1772903905166434800,1.944434814453125,-0.8892927169799805,-2.2743208408355717,0.8349913954734802,-0.173485592007637,3.8289003372192383,2.824638843536377
1772903905185420000,1.963419921875,-5.316439628601074,-1.8899989128112795,0.1744861006736755,0.0971274971961975,2.970635414123535,2.707352638244629
1772903905204405000,1.982405029296875,-10.465453147888184,-1.2251205444335938,0.3208779990673065,0.3011563420295715,1.746462345123291,2.2369868755340576
1772903905223390200,2.00139013671875,-12.66929054260254,-2.162931442260742,2.1414036750793457,0.2999345958232879,0.9523382186889648,1.5613703727722168
1772903905242375200,2.020375244140625,-11.985496520996094,-1.389994978904724,-0.1088365316390991,0.5925388336181641,1.370169758796692,1.2730422019958496
1772903905261360400,2.0393603515625,-11.69585418701172,-1.210063338279724,0.2506308555603027,0.9779945015907288,1.528383731842041,1.2400555610656738
1772903905280345300,2.058345458984375,-12.294866561889648,-2.1238555908203125,2.7444498538970947,0.9474512934684752,1.1575887203216553,1.1600322723388672
1772903905299330600,2.07733056640625,-13.086152076721191,-2.325361967086792,4.140205383300781,0.5900954008102417,0.6524035930633545,0.9767727851867676
1772903905318315500,2.0963154296875,-13.729096412658691,-1.81809401512146,3.874556541442871,0.2333503514528274,-0.0244345907121896,0.7171552777290344
1772903905337300700,2.11530078125,-14.710877418518066,-1.7393436431884766,3.21459436416626,-0.0061086476780474,-0.6133082509040833,0.1667660921812057
1772903905356285700,2.13428564453125,-15.3489408493042,-1.9868003129959104,2.964552640914917,-0.1960875988006591,-0.8796452879905701,-0.7348703145980835
1772903905375270700,2.153270751953125,-14.89427661895752,-2.0256476402282715,2.820039749145508,-0.3811796307563782,-1.0506874322891235,-1.802051067352295
1772903905394256000,2.172255859375,-13.205422401428224,-2.193908929824829,2.739651679992676,-0.5815432667732239,-1.4471386671066284,-2.7989823818206787
1772903905413241000,2.191240966796875,-10.967092514038086,-2.53308367729187,2.515242576599121,-0.7141009569168091,-2.056781768798828,-3.603491306304932
1772903905432226000,2.21022607421875,-8.648937225341797,-3.1557483673095703,2.8595762252807617,-0.7745765447616577,-2.839299440383911,-4.296212196350098
1772903905451211000,2.2292109375,-1.5217256546020508,-3.890679121017456,1.9246206283569336,-0.62857985496521,-2.954752922058105,-4.44098711013794
1772903905470196200,2.2481962890625,2.1977977752685547,-6.963341236114502,4.205158710479736,-0.5894845128059387,-3.442223072052002,-4.162432670593262
1772903905489181200,2.26718115234375,3.7872066497802734,-7.567821502685547,5.234805583953857,-0.6426297426223755,-4.294379234313965,-4.218021392822266
1772903905508166400,2.28616650390625,6.263908386230469,-8.33237075805664,5.827418327331543,-0.6524035930633545,-5.223504543304443,-4.720763206481934
1772903905527151400,2.3051513671875,14.720827102661133,-8.133051872253418,5.162263870239258,-0.4153880476951599,-5.593078136444092,-4.9217376708984375
1772903905546136600,2.324136474609375,30.356355667114254,-1.866552829742432,-0.0327944755554199,0.0635299384593963,-5.076897144317627,-3.651749610900879
1772903905565121500,2.34312158203125,42.189918518066406,5.470686912536621,0.7118687629699707,-0.2956585586071014,-2.58701229095459,-0.9053016304969788
1772903905584106500,2.3621064453125,32.09151840209961,-6.292731285095215,8.68075180053711,-1.1380411386489868,2.7617197036743164,1.666439175605774
1772903905603091700,2.381091796875,15.417191505432127,-5.367761611938477,1.52595853805542,-0.2021962404251098,4.769632339477539,3.090364933013916
1772903905622077000,2.400076904296875,3.4827699661254883,-2.4572579860687256,2.5417046546936035,0.3249800503253937,3.6205954551696777,3.5918848514556885
1772903905641062000,2.419061767578125,-2.48452091217041,-0.8131375312805176,4.194312572479248,0.1087339296936988,1.9523237943649288,3.4324491024017334
1772903905660046800,2.438046875,-4.430080413818359,-0.181032657623291,3.701730966567993,-0.1252272725105285,1.0012073516845703,2.710407018661499
1772903905679032000,2.457031982421875,-2.543717861175537,-0.4397331476211548,3.5147438049316406,-0.2388481348752975,0.7507528066635132,1.8197661638259888
1772903905698017000,2.47601708984375,1.487966537475586,-1.7360259294509888,4.489593505859375,-0.5021308660507202,1.0793980360031128,1.33290696144104
1772903905717002200,2.495002197265625,5.525341987609863,-3.667882919311523,4.622852325439453,-0.7770199775695801,1.8741331100463867,1.5491530895233154
1772903905735987200,2.5139873046875,5.481871604919434,-4.458601474761963,2.704116106033325,-0.7452550530433655,2.5198171138763428,2.119089841842652
1772903905754972200,2.53297216796875,1.7686710357666016,-4.12236213684082,1.1944363117218018,-0.4954113364219665,2.6890268325805664,2.478889226913452
1772903905773957400,2.551957275390625,-2.240309715270996,-3.5580081939697266,0.8115825653076172,-0.2412915825843811,2.532645463943481,2.557080030441284
1772903905792942300,2.5709423828125,-5.501273155212402,-2.945800542831421,0.8641358017921448,-0.0891862586140632,2.2394301891326904,2.4263548851013184
1772903905811927600,2.589927490234375,-7.933558464050293,-2.3842575550079346,0.9289134740829468,-0.0287106446921825,1.85092031955719,2.1777329444885254
1772903905830912500,2.60891259765625,-9.892739295959473,-1.6888452768325806,1.044485569000244,-0.1062904745340347,1.3182462453842163,1.8735222816467283
1772903905849897700,2.627897705078125,-11.58677864074707,-1.17849600315094,0.8769677877426147,-0.2498437017202377,0.8203914165496826,1.432477951049805
1772903905868882700,2.646882568359375,-12.694896697998049,-0.9021815061569214,0.8395380973815918,-0.4013381600379944,0.4373791813850403,0.8808670043945312
1772903905887868000,2.665867919921875,-13.200613021850586,-0.7726593017578125,0.7422999143600464,-0.5259546041488647,0.1881463527679443,0.2822195291519165
1772903905906852900,2.684852783203125,-13.31637477874756,-0.9509737491607666,0.942046284675598,-0.6407971382141113,0.0561995580792427,-0.3048215210437774
1772903905925838000,2.703838134765625,-12.894180297851562,-1.0030512809753418,1.157388687133789,-0.7654135823249817,-0.1747073233127594,-0.8301652073860168
1772903905944823000,2.722822998046875,-12.22007179260254,-1.0676190853118896,1.1899824142456057,-0.8826996088027954,-0.6414080262184143,-1.2925899028778076
1772903905963808000,2.74180810546875,-11.63604736328125,-1.307090163230896,1.274714708328247,-0.9688315391540528,-1.2516618967056274,-1.7794491052627563
1772903905982793200,2.760793212890625,-10.718520164489746,-1.9367129802703855,1.391285061836243,-1.003650784492493,-1.7800599336624146,-2.4239113330841064
1772903906001778200,2.779778076171875,-8.886651992797852,-2.787085056304932,1.9666569232940676,-1.0012073516845703,-2.1331398487091064,-3.163057804107666
1772903906020763400,2.798763427734375,-6.529229164123535,-3.818988561630249,3.017653465270996,-1.0207550525665283,-2.3261730670928955,-3.9443538188934326
1772903906039748400,2.817748291015625,-2.744806289672852,-5.662393569946289,4.665043830871582,-1.1362085342407229,-2.450178623199463,-4.644404888153076
1772903906058733600,2.836733642578125,3.720303535461426,-7.535150527954102,5.070194244384766,-1.1252129077911377,-2.9797983169555664,-4.929678916931152
1772903906077718500,2.855718505859375,13.311226844787598,-8.057114601135254,3.0229079723358154,-0.5864301919937134,-3.989557981491089,-4.428769588470459
1772903906096703500,2.874703369140625,24.689186096191406,-5.030540466308594,0.2372479438781738,0.0684168562293052,-4.497186660766602,-3.0030112266540527
1772903906115688700,2.893688720703125,36.6234130859375,3.1964640617370605,0.294565200805664,-0.6175842881202698,-2.3927574157714844,-0.8692606091499329
1772903906134673700,2.912673583984375,34.474788665771484,-0.9897656440734864,3.317635059356689,-1.2712095975875854,2.743393659591675,1.1948515176773071
1772903906153659000,2.931658935546875,16.61874008178711,-6.6496992111206055,-1.5595277547836304,-0.315206229686737,5.722581386566162,2.1862850189208984
1772903906172643800,2.950643798828125,5.465421676635742,-3.06123423576355,-2.5290274620056152,0.8900299668312073,4.847211837768555,2.5851798057556152
1772903906191628800,2.96962890625,0.4674835205078125,-2.339842796325684,0.9574297666549684,1.22234046459198,2.954752922058105,2.5827362537384038
1772903906210614000,2.988614013671875,-0.505284309387207,-2.941152334213257,2.51397442817688,1.1685843467712402,1.8185445070266724,2.288910388946533
1772903906229599000,3.007598876953125,0.447946548461914,-3.650475263595581,2.0276970863342285,1.193018913269043,1.4966187477111816,1.9462151527404783
1772903906248584200,3.026584228515625,1.0206937789916992,-4.196195125579834,2.3876171112060547,1.2021819353103638,1.6230677366256714,1.7971642017364502
1772903906267569200,3.045569091796875,0.0835027694702148,-3.935553789138794,2.627920627593994,1.1618647575378418,1.7898337841033936,1.841146469116211
1772903906286554000,3.06455419921875,-1.4093809127807615,-2.3651082515716557,2.826616048812866,0.9828814268112184,1.3585633039474487,2.0946552753448486
1772903906305539300,3.083539306640625,-2.537446975708008,-0.0320320725440979,4.300600528717041,0.4239401519298553,-0.2852738499641418,2.7623305320739746
1772903906324524300,3.102524169921875,-4.592161178588867,1.0823707580566406,4.771613597869873,-0.3207040131092071,-2.4990477561950684,3.4965898990631104
1772903906343509500,3.121509521484375,-11.832971572875977,-0.3687974214553833,2.357028007507324,-0.5839866995811462,-2.259588718414306,2.783099889755249
1772903906362494500,3.140494384765625,-13.060590744018556,-0.7938976287841797,1.365367412567139,-0.656679630279541,-1.527161955833435,1.5210533142089844
1772903906381479400,3.1594794921875,-12.58123016357422,-0.7398996353149414,-0.1236100792884826,-0.5516108870506287,-0.5222893953323364,0.3390299379825592
1772903906400464600,3.178464599609375,-11.939693450927734,-0.7562791109085083,-0.3089781999588012,-0.5216785073280334,0.5412262082099915,-0.6860011219978333
1772903906419449600,3.19744970703125,-10.856075286865234,-1.1607319116592407,-0.8671466708183289,-0.4850266277790069,1.2742639780044556,-1.5015056133270264
1772903906438434800,3.216434814453125,-9.224745750427246,-1.366107940673828,-0.8835335969924927,-0.4923570156097412,1.3170244693756104,-1.8930699825286863
1772903906457419800,3.235419677734375,-7.430598258972168,-1.0580716133117676,-0.6094217300415039,-0.5424479246139526,0.5705476999282837,-1.813657522201538
1772903906476404700,3.25440478515625,-6.532512664794922,-1.0565754175186155,-0.4949196577072143,-0.5094612240791321,-0.555276095867157,-1.556483507156372
1772903906495390000,3.273389892578125,-6.521690368652344,-1.293570041656494,0.0735592544078826,-0.4233292937278747,-1.497840404510498,-1.5131120681762695
1772903906514375000,3.292375,-7.117186546325684,-1.954960346221924,1.091968297958374,-0.3353647589683532,-1.919947981834412,-1.9651520252227783
1772903906533360000,3.311360107421875,-6.2748613357543945,-2.557932138442993,1.780342698097229,-0.2254091054201126,-2.200945854187012,-2.654818296432495
1772903906552345000,3.330344970703125,-3.085176467895508,-3.0850369930267334,2.583545923233032,-0.1020144149661064,-3.050658702850342,-3.2125377655029297
1772903906571330000,3.349330078125,1.8501005172729488,-4.255935192108154,4.156614303588867,0.0439822636544704,-4.648681163787842,-3.576002359390259
1772903906590315300,3.368315185546875,10.186771392822266,-5.37821626663208,5.023673057556152,0.4752528071403503,-6.093376159667969,-3.551567792892456
1772903906609300200,3.38730029296875,24.316144943237305,-3.696189641952514,7.125617027282715,0.6151408553123474,-5.5002264976501465,-2.3536620140075684
1772903906628285400,3.406285400390625,32.13017272949219,1.7635385990142822,9.289698600769045,-0.5497782826423645,-1.5131120681762695,-0.6047561168670654
1772903906647270400,3.4252705078125,25.95487594604492,2.072648048400879,5.264577865600586,-1.400712966918945,3.467879295349121,0.6041452884674072
1772903906666255400,3.44425537109375,14.991827964782717,0.1059706211090087,-0.2489955425262451,-1.0641264915466309,5.647444725036621,1.3994911909103394
1772903906685240600,3.463240478515625,8.407788276672363,-0.7020775079727173,-1.0977026224136353,-0.3921751976013183,4.8520989418029785,2.006079912185669
1772903906704225500,3.4822255859375,6.297482490539551,-2.086544990539551,0.7917294502258301,-0.0250454563647508,3.3017241954803467,2.4568982124328613
1772903906723210800,3.501210693359375,5.465507507324219,-4.57941484451294,2.229820728302002,0.0965166315436363,2.7458372116088867,2.6639811992645264
1772903906742195700,3.52019580078125,3.69956111907959,-6.101959705352783,1.9833276271820068,0.3463603258132934,3.116021156311035,2.640768527984619
1772903906761180700,3.5391806640625,1.477094650268555,-5.649495124816895,1.5104411840438845,0.7012727856636047,3.481318473815918,2.607170820236206
1772903906780166000,3.558165771484375,-1.1698484420776367,-4.275428771972656,1.589371919631958,0.9138537049293518,3.053713083267212,2.73850679397583
1772903906799150800,3.57715087890625,-4.695184230804443,-3.263040542602539,1.7160508632659912,0.9480621218681335,2.1306962966918945,2.828303813934326
1772903906818135800,3.5961357421875,-7.841888427734375,-2.6802871227264404,1.6735241413116455,0.9022472500801086,1.26021409034729,2.718348264694214
1772903906837121000,3.61512109375,-10.329504013061523,-2.253875970840454,1.239329218864441,0.8912517428398132,0.7409789562225342,2.35305118560791
1772903906856106000,3.63410595703125,-11.915807723999023,-1.9267346858978271,1.2005882263183594,0.9181297421455384,0.4618137776851654,1.7721186876296997
1772903906875091200,3.65309130859375,-12.611931800842283,-1.6132793426513672,1.845075249671936,0.8222240209579468,0.2693913578987121,1.1814124584197998
1772903906894076200,3.672076171875,-12.709550857543944,-1.3617095947265625,2.6709446907043457,0.5656607747077942,0.0751363709568977,0.7098248600959778
1772903906913061000,3.69106103515625,-12.892934799194336,-1.470325946807861,3.1359856128692627,0.2193004488945007,-0.1472184062004089,0.3115410506725311
1772903906932046300,3.71004638671875,-13.35920238494873,-1.3747045993804932,2.9238734245300293,-0.1282816082239151,-0.5400044918060303,-0.1392771750688552
1772903906951031300,3.72903125,-13.601165771484377,-1.2604411840438845,2.336841583251953,-0.3683514595031738,-1.0299180746078491,-0.7159335017204285
1772903906970016500,3.7480166015625,-13.444039344787598,-1.7304564714431765,1.756033182144165,-0.4550942480564117,-1.4715732336044312,-1.4556907415390017
1772903906989001500,3.76700146484375,-12.203643798828123,-2.387737274169922,1.3049674034118652,-0.3848448097705841,-1.886961340904236,-2.243706226348877
1772903907007986400,3.785986328125,-9.982181549072266,-2.8490471839904785,1.425703525543213,-0.2376264035701751,-2.42574405670166,-2.904662132263184
1772903907026971400,3.804971435546875,-7.646405220031738,-3.810220718383789,2.480087757110596,-0.1588248461484909,-3.0531022548675537,-3.4385578632354736
1772903907045956600,3.82395654296875,-4.830634117126465,-4.664429664611816,3.645963430404663,-0.1423314958810806,-3.666410446166992,-3.987725257873535
1772903907064941600,3.842941650390625,-0.8009567260742188,-5.4560747146606445,4.245657920837402,-0.0684168562293052,-3.8631088733673096,-4.600422859191895
1772903907083926800,3.8619267578125,6.604092597961426,-5.815380096435547,4.073764801025391,0.2260199636220932,-3.991390466690064,-4.872257709503174
1772903907102911700,3.880911865234375,17.98076629638672,-5.353392601013184,4.002262115478516,0.6536253094673157,-3.9920012950897217,-4.139219760894775
1772903907121896700,3.899896728515625,28.8785457611084,-2.9333322048187256,3.811145544052124,0.6322450637817383,-3.092808485031128,-2.2644758224487305
1772903907140882000,3.9188818359375,30.510847091674805,1.507766604423523,2.7151598930358887,-0.098960094153881,-0.8295543789863586,-0.4233292937278747
1772903907159867000,3.937866943359375,24.889549255371094,1.5215078592300415,0.5933442115783691,-0.4239401519298553,1.944993495941162,0.7953459620475769
1772903907178851800,3.956851806640625,17.400821685791016,-1.3997626304626465,0.9325401782989502,-0.2919933497905731,3.3487606048583984,1.905287265777588
1772903907197837000,3.975837158203125,9.27959442138672,-2.03513765335083,1.3662796020507812,-0.0708603113889694,2.901607751846313,2.66581392288208
1772903907216822000,3.994822021484375,3.4156713485717773,-2.1185903549194336,1.9796979427337649,0.0598647482693195,2.006690740585327,2.83319091796875
1772903907235807000,4.013806884765625,0.710209846496582,-2.733708381652832,2.574512720108032,0.0684168562293052,1.739132046699524,2.5741841793060303
1772903907254792200,4.032792236328125,0.1501855850219726,-3.069429397583008,2.7145791053771973,0.0397062115371227,1.935219645500183,2.277914762496948
1772903907273777200,4.051777099609375,-0.7425699234008789,-2.9211208820343018,2.253368377685547,0.0280997790396213,2.028681993484497,2.0555598735809326
1772903907292762000,4.07076220703125,-1.889118194580078,-2.6048614978790283,1.4068721532821655,0.0983492285013198,1.783114314079285,1.9278892278671265
1772903907311747300,4.089747314453125,-3.1731905937194824,-2.4379241466522217,0.8149005174636841,0.2101374864578247,1.4086542129516602,1.8900156021118164
1772903907330732300,4.108732177734375,-4.542205333709717,-2.310879230499268,0.3700032830238342,0.347582072019577,1.0018181800842283,1.9010112285614011
1772903907349717200,4.12771728515625,-6.255371570587158,-1.8470423221588133,0.1724969148635864,0.45875945687294,0.5320632457733154,1.859472393989563
1772903907368702500,4.146702392578125,-8.283770561218262,-1.4184907674789429,0.3323927521705627,0.5064069032669067,0.1490510106086731,1.64872407913208
1772903907387687400,4.1656875,-9.929594039916992,-1.2184022665023804,0.8863775730133057,0.4605920314788818,-0.0537560991942882,1.2877029180526731
1772903907406672600,4.184672607421875,-11.12648105621338,-1.1136627197265625,1.3036913871765137,0.3243691921234131,-0.1496618688106537,0.8362739086151123
1772903907425657600,4.20365771484375,-11.791723251342772,-1.0146204233169556,1.438962459564209,0.1404989063739776,-0.2791652083396911,0.3707949221134186
1772903907444642600,4.222642578125,-12.314237594604492,-0.8392363786697388,1.11599600315094,-0.0433713980019092,-0.6059778332710266,-0.1191186308860778
1772903907463627800,4.241627685546875,-12.564794540405272,-0.8191957473754883,0.4639331698417663,-0.1258381456136703,-1.0213658809661863,-0.6939423680305481
1772903907482612700,4.26061279296875,-12.097249984741213,-1.129931092262268,-0.0028090476989746,-0.0952949076890945,-1.426369309425354,-1.331685185432434
1772903907501597700,4.27959765625,-10.68166732788086,-1.7219734191894531,0.0631163120269775,0.0226019974797964,-1.7446298599243164,-1.9388848543167116
1772903907520582700,4.298582763671875,-8.707159996032715,-2.64074182510376,0.7396248579025269,0.152716189622879,-2.0024147033691406,-2.453843832015991
1772903907539567900,4.31756787109375,-6.6230010986328125,-3.416909456253052,1.763481378555298,0.2290742993354797,-2.2333216667175293,-2.940703153610229
1772903907558552800,4.336552734375,-5.018651008605957,-3.891501426696777,3.1434898376464844,0.1857028901576995,-2.5051565170288086,-3.593717575073242
1772903907577538000,4.3555380859375,-2.201150894165039,-4.318703651428223,3.85420823097229,0.2162461280822754,-2.867399215698242,-4.318813800811768
1772903907596523000,4.37452294921875,4.555126190185547,-4.728315830230713,4.367991924285889,0.45875945687294,-3.5588982105255127,-4.53872537612915
1772903907615508000,4.393508056640625,15.560077667236328,-4.624831199645996,5.435681819915772,0.7525854110717773,-4.240623474121094,-3.551567792892456
1772903907634493200,4.4124931640625,24.06735610961914,-2.265866994857788,5.894634246826172,0.7128791809082031,-3.942521333694458,-1.663995623588562
1772903907653478100,4.43147802734375,25.503345489501957,3.096319913864136,4.387165069580078,0.1948658674955368,-2.193004608154297,-0.1704312711954116
1772903907672463000,4.450463134765625,23.179668426513672,3.637484073638916,4.8756303787231445,-0.5131264328956604,0.9004147052764893,0.8619301915168762
1772903907691448000,4.469447998046875,16.30178451538086,-0.4787008762359619,4.705534934997559,-0.8246674537658691,3.269348382949829,1.722638726234436
1772903907710433300,4.488433349609375,8.415650367736816,-0.930800437927246,2.497396469116211,-0.6921098232269287,3.523468017578125,2.257756233215332
1772903907729418200,4.507418212890625,3.6110315322875977,-0.2951185703277588,2.239715576171875,-0.6933315396308899,2.554025650024414,2.455065488815308
1772903907748403200,4.5264033203125,1.7216405868530271,-0.9218512773513794,2.602027177810669,-0.8619301915168762,1.977980136871338,2.2950189113616943
1772903907767388400,4.545388427734375,1.4107332229614258,-2.042699813842773,2.3302676677703857,-0.9596685767173768,2.238819360733032,1.915061116218567
1772903907786373400,4.564373291015625,1.2759037017822266,-2.842257261276245,1.8459794521331787,-0.9474512934684752,2.7818782329559326,1.5796962976455688
1772903907805358300,4.5833583984375,1.254256248474121,-3.119619369506836,1.1058175563812256,-0.8161153197288513,3.136179685592652,1.524107575416565
1772903907824343600,4.602343505859375,0.2236671447753906,-2.999197006225586,0.4155246019363403,-0.6255255341529846,2.955974578857422,1.7501275539398191
1772903907843328500,4.62132861328125,-1.8883256912231443,-2.735371351242065,0.0310921669006347,-0.4550942480564117,2.389092206954956,2.0604469776153564
1772903907862313500,4.6403134765625,-4.757652282714844,-2.252035617828369,-0.6107804775238037,-0.2700022459030151,1.6829324960708618,2.1978914737701416
1772903907881298700,4.659298583984375,-7.567602157592773,-1.7900512218475342,-1.322685956954956,-0.0219911318272352,1.0916153192520142,2.0463969707489014
1772903907900283600,4.67828369140625,-9.422545433044434,-1.5077012777328491,-1.295061469078064,0.21319180727005,0.7086031436920166,1.6786564588546753
1772903907919268600,4.6972685546875,-10.369664192199709,-1.3645753860473633,-0.7341122627258301,0.3433060050010681,0.4453204274177551,1.2412772178649902
1772903907938253600,4.716253662109375,-11.237688064575195,-1.2381188869476318,-0.0536836385726928,0.3390299379825592,0.2156352698802948,0.7910698652267456
1772903907957238800,4.73523876953125,-11.746585845947266,-1.255197048187256,0.5062679052352905,0.2351829409599304,-0.1099556609988212,0.3683514595031738
1772903907976223700,4.7542236328125,-12.223762512207031,-1.1230400800704956,0.216525137424469,0.1521053314208984,-0.6212494969367981,-0.1166751757264137
1772903907995208700,4.773208740234375,-12.25775146484375,-1.1947052478790283,-0.1267664432525634,0.1679878085851669,-1.1478148698806765,-0.7024945020675659
1772903908014194000,4.79219384765625,-11.703983306884766,-1.6068545579910278,-0.0373833179473876,0.2693913578987121,-1.5528182983398438,-1.36772620677948
1772903908033179000,4.811178955078125,-10.332419395446776,-2.1396617889404297,0.6660765409469604,0.3549124300479889,-1.8380920886993408,-2.029903650283813
1772903908052163800,4.830163818359375,-8.594123840332031,-2.8339085578918457,1.4314531087875366,0.4312705397605896,-2.070220708847046,-2.6523749828338623
1772903908071148800,4.849148681640625,-6.042147636413574,-3.657219886779785,2.62614107131958,0.4697550237178802,-2.2724170684814453,-3.1703882217407227
1772903908090134000,4.868134033203125,-2.707474708557129,-4.592411518096924,3.794678926467896,0.4819723069667816,-2.582125425338745,-3.5332419872283936
1772903908109119000,4.887118896484375,1.7347593307495115,-4.722522735595703,3.775408744812012,0.6768381595611572,-3.007898092269897,-3.7458229064941406
1772903908128104000,4.90610400390625,9.043956756591797,-4.223846435546875,2.77950119972229,1.1410953998565674,-3.419620990753174,-3.5143051147460938
1772903908147089200,4.925089111328125,18.76862335205078,-2.233220338821411,2.322861194610596,1.461188554763794,-3.4495534896850586,-2.5051565170288086
1772903908166074000,4.94407421875,27.35313034057617,2.32374906539917,3.140040874481201,0.851545512676239,-2.04700779914856,-0.924849271774292
1772903908185059300,4.963059326171875,28.630624771118164,3.224254846572876,3.5344810485839844,-0.0641408041119575,0.8680388331413269,0.7061597108840942
1772903908204044300,4.982044189453125,20.31281089782715,-1.7470699548721311,3.068475246429444,-0.2840521335601806,3.27240252494812,1.95843243598938
1772903908223029200,5.001029296875,10.05420970916748,-2.1720876693725586,1.646122694015503,-0.0213802680373191,3.523468017578125,2.5802929401397705
1772903908242014200,5.02001416015625,3.947772979736328,-1.551459550857544,2.685098886489868,-0.0623082071542739,2.6083927154541016,2.7195699214935303
1772903908260999400,5.03899951171875,1.228546142578125,-2.1661007404327397,3.629822015762329,-0.3579667508602142,2.119089841842652,2.509432554244995
1772903908279984400,5.057984375,0.2611675262451172,-3.0769176483154297,3.5319972038269043,-0.5674933791160583,2.2846343517303467,2.149022340774536
1772903908298969300,5.07696923828125,-0.6093282699584961,-3.2219603061676025,2.54445481300354,-0.5613847374916077,2.486830472946167,1.8356486558914185
1772903908317954300,5.095954345703125,-1.4779253005981443,-3.1342437267303467,1.9819703102111816,-0.4251618981361389,2.467893600463867,1.6450588703155518
1772903908336939500,5.114939453125,-2.4100356101989746,-2.982050895690918,1.7673733234405518,-0.2730565667152405,2.1972806453704834,1.6169590950012207
1772903908355924500,5.133924560546875,-3.9624886512756343,-2.468058586120605,1.6535351276397705,-0.2040288299322128,1.701258420944214,1.6682716608047483
1772903908374909400,5.152909423828125,-6.229836940765381,-1.869507074356079,1.09712815284729,-0.1337793916463852,1.2021819353103638,1.577863693237305
1772903908393894400,5.171894287109375,-8.148499488830566,-1.3052890300750732,0.4270483553409576,0.0390953458845615,0.8472694754600525,1.2913681268692017
1772903908412879600,5.190879638671875,-8.98062801361084,-0.7507121562957764,0.4726652204990387,0.2040288299322128,0.5723803043365479,0.9541707634925842
1772903908431864600,5.209864501953125,-9.457233428955078,-0.6147255897521973,1.1810394525527954,0.2541197538375854,0.3787361681461334,0.6267472505569458
1772903908450849500,5.228849609375,-9.939532279968262,-0.665738582611084,1.6878900527954102,0.2315177470445633,0.2345720827579498,0.3323104381561279
1772903908469834800,5.247834716796875,-10.57934856414795,-0.6172446012496948,2.021692991256714,0.1191186308860778,-0.0042760535143315,0.0232128612697124
1772903908488819700,5.26681982421875,-11.233072280883787,-0.4312295913696289,1.8706976175308228,-0.0433713980019092,-0.4691441655158996,-0.3555232882499695
1772903908507804700,5.2858046875,-11.698740005493164,-0.3627907037734985,1.5907987356185913,-0.2046397030353546,-1.103221774101257,-0.8491020202636719
1772903908526789600,5.30478955078125,-11.604576110839844,-0.6118590831756592,1.2733569145202637,-0.3103193044662475,-1.7159191370010376,-1.4593559503555298
1772903908545774800,5.32377490234375,-10.6693754196167,-1.3101723194122314,1.336644411087036,-0.3652971386909485,-2.235154151916504,-2.1129813194274902
1772903908564759800,5.342759765625,-9.185311317443848,-2.266577959060669,1.580467700958252,-0.3573558926582336,-2.6383249759674072,-2.769050121307373
1772903908583744800,5.361744873046875,-6.830631256103516,-3.189419746398926,2.111045837402344,-0.3115410506725311,-3.0561563968658447,-3.3377652168273926
1772903908602729700,5.380729736328125,-3.1966800689697266,-4.5437421798706055,3.735964775085449,-0.3732383847236633,-3.585776329040528,-3.643197536468506
1772903908621715000,5.39971484375,0.5554265975952148,-5.556341171264648,4.715104103088379,-0.4392117857933044,-4.305375099182129,-3.7311620712280273
1772903908640700000,5.418699951171875,5.093075752258301,-6.37232780456543,4.977370738983154,-0.2223547846078872,-4.953502655029297,-3.671297311782837
1772903908659684900,5.437684814453125,12.051033020019531,-5.775322914123535,4.588785648345947,0.3359756171703338,-5.480679035186768,-3.1331255435943604
1772903908678669800,5.456669921875,20.50455665588379,-1.7154383659362793,5.7383904457092285,0.4874700903892517,-5.350564479827881,-2.0207407474517822
1772903908697655000,5.475655029296875,27.540605545043945,4.245915412902832,9.023451805114746,-0.7165443897247314,-3.4275622367858887,-0.6792816519737244
1772903908716640000,5.494639892578125,23.86055374145508,1.211647868156433,11.085716247558594,-2.143524408340454,1.0867284536361694,0.45875945687294
1772903908735625000,5.513625,11.722000122070312,-2.6875407695770264,2.133841037750244,-1.877798318862915,4.641961574554443,0.861319363117218
1772903908754610000,5.53260986328125,4.495063781738281,-0.9269636869430542,-3.684825420379639,-0.7556397318840027,5.16425085067749,1.1148282289505005
1772903908773595100,5.55159521484375,2.1556711196899414,0.0902590751647949,-3.5183544158935547,0.1692095398902893,3.976118803024292,1.3274091482162476
1772903908792580000,5.570580078125,3.582601547241211,0.07444429397583,-1.285768985748291,0.648127555847168,2.4184136390686035,1.7061452865600586
1772903908811565000,5.58956494140625,4.887722969055176,-1.1633375883102417,1.4208881855010986,0.5790998339653015,1.415373682975769,2.1032073497772217
1772903908830550000,5.608550048828125,4.2779541015625,-2.660634994506836,3.2296292781829834,0.205861434340477,1.5314379930496216,2.218050003051758
1772903908849535200,5.62753515625,2.058424949645996,-3.164362668991089,2.682944297790528,-0.0042760535143315,2.481332778930664,1.9657628536224363
1772903908868520200,5.646520263671875,0.0867033004760742,-2.9819397926330566,1.5307269096374512,0.0812450125813484,3.402516841888428,1.6316198110580444
1772903908887505200,5.665505126953125,-1.3967885971069336,-2.100026130676269,0.8644328117370605,0.2205221801996231,3.7201664447784415,1.480736255645752
1772903908906490000,5.684489990234375,-3.157522678375244,-1.4657777547836304,0.850227952003479,0.2974911332130432,3.4544403553009038,1.488066554069519
1772903908925475000,5.70347509765625,-5.260935783386231,-0.915844976902008,0.7120769023895264,0.3066541254520416,2.8710644245147705,1.507614254951477
1772903908944460300,5.722460205078125,-7.162224292755127,-0.44422447681427,0.304819256067276,0.3072649836540222,2.081216335296631,1.4434734582901
1772903908963445200,5.7414453125,-8.538558006286621,-0.1872580051422119,0.345976859331131,0.2822195291519165,1.313359260559082,1.2797616720199585
1772903908982430200,5.76043017578125,-9.621495246887209,-0.0607386827468872,0.5989631414413452,0.1912006735801696,0.7434224486351013,1.007315993309021
1772903909001415200,5.779415283203125,-10.318222045898438,-0.1071195602416992,0.7221517562866211,0.1026252806186676,0.3439168632030487,0.6420188546180725
1772903909020400000,5.798400146484375,-10.958699226379396,-0.283901572227478,1.0277968645095823,-0.0042760535143315,0.0250454563647508,0.2138026654720306
1772903909039385300,5.81738525390625,-11.443978309631348,-0.4591931104660034,1.2174420356750488,-0.1105665266513824,-0.3518581092357635,-0.2571740746498108
1772903909058370300,5.836370361328125,-11.593942642211914,-0.5524889230728149,1.2953908443450928,-0.2345720827579498,-0.8857539296150208,-0.7703005075454712
1772903909077355300,5.855355224609375,-11.375364303588867,-0.7422624826431274,1.180051326751709,-0.3280344009399414,-1.585194110870361,-1.3408482074737549
1772903909096340500,5.874340576171875,-10.639055252075195,-1.2608230113983154,1.2022961378097534,-0.3384190797805786,-2.2724170684814453,-2.014021158218384
1772903909115325400,5.893325439453125,-9.182541847229004,-2.136962890625,1.7255066633224487,-0.2351829409599304,-2.746448040008545,-2.776991367340088
1772903909134310400,5.912310302734375,-6.255569934844971,-3.3453376293182373,2.4772653579711914,-0.0586430206894874,-3.0195045471191406,-3.4379470348358154
1772903909153295400,5.93129541015625,-0.8989372253417969,-4.8277363777160645,4.074097633361816,0.1062904745340347,-3.2925610542297363,-3.7042839527130127
1772903909172280600,5.950280517578125,5.953322410583496,-5.60207462310791,4.92153263092041,0.2974911332130432,-3.618152141571045,-3.406182050704956
1772903909191265500,5.969265625,13.29726791381836,-4.573808193206787,3.622307777404785,0.7360920310020447,-3.996277332305908,-2.5998404026031494
1772903909210250500,5.98825048828125,19.880699157714844,-1.3459210395812988,3.367435932159424,0.8662062287330627,-3.6028804779052734,-1.5839723348617554
1772903909229235500,6.0072353515625,26.019332885742188,3.647010803222656,2.818633556365967,0.1765399277210235,-1.2858703136444092,-0.5375609993934631
1772903909248220400,6.026220458984375,26.898963928222656,1.8032264709472656,2.914318084716797,-0.4166097939014435,2.472780704498291,0.6780598759651184
1772903909267205400,6.045205322265625,19.802345275878903,-2.9550914764404297,0.9050893783569336,-0.0671951249241828,4.568047046661377,1.8967351913452148
1772903909286190600,6.064190673828125,11.809700012207031,-2.6888411045074463,-0.1564607620239257,0.5797106623649597,4.070191860198975,2.77332615852356
1772903909305175600,6.083175537109375,6.208691596984863,-2.7030014991760254,2.100424528121948,0.7202095985412598,3.1025822162628174,3.0799801349639893
1772903909324160500,6.102160400390625,3.1832427978515625,-3.35318374633789,3.2963364124298096,0.564439058303833,2.812421560287476,2.9999568462371826
1772903909343145500,6.1211455078125,1.321690559387207,-3.6525721549987793,2.9284377098083496,0.4960221946239471,2.9797983169555664,2.7397284507751465
1772903909362130700,6.140130615234375,-0.3637237548828125,-3.4579436779022217,2.2856762409210205,0.6126973628997803,3.1917684078216557,2.4795000553131104
1772903909381115600,6.15911572265625,-2.194530487060547,-3.090480327606201,2.2661221027374268,0.7464767694473267,3.132514476776123,2.3365578651428223
1772903909400100600,6.1781005859375,-4.0219316482543945,-2.584002494812012,2.6838629245758057,0.7733548283576965,2.6731443405151367,2.3567163944244385
1772903909419085600,6.19708544921875,-6.4296417236328125,-2.116910457611084,2.996234655380249,0.6823359727859497,2.003025531768799,2.3897030353546143
1772903909438070800,6.21607080078125,-8.862290382385254,-1.9350717067718504,2.9668431282043457,0.5790998339653015,1.3823870420455933,2.3041820526123047
1772903909457055700,6.2350556640625,-11.420454978942873,-2.0129106044769287,3.3464391231536865,0.4367683231830597,0.8845322132110596,2.0250167846679688
1772903909476040700,6.254040771484375,-13.611570358276367,-1.5923292636871338,3.505438804626465,0.2254091054201126,0.5039634704589844,1.5082250833511353
1772903909495025700,6.273025634765625,-15.015206336975098,-1.099717140197754,3.31521987915039,-0.0146607551723718,0.047036588191986,0.7990111112594604
1772903909514010600,6.2920107421875,-15.284526824951172,-0.9591076374053956,2.966350555419922,-0.2229656428098678,-0.564439058303833,-0.0103847011923789
1772903909532995600,6.31099560546875,-14.55521297454834,-1.411937594413757,2.9666616916656494,-0.4379900395870209,-1.2253947257995603,-0.831997811794281
1772903909551980500,6.32998046875,-13.319574356079102,-2.084067821502685,2.716703414916992,-0.5809323787689209,-1.5992439985275269,-1.630398154258728
1772903909570965800,6.3489658203125,-11.47287940979004,-2.799494743347168,2.4653220176696777,-0.6224712133407593,-1.8735222816467283,-2.310290575027466
1772903909589950700,6.36795068359375,-9.353052139282228,-3.324441432952881,2.580392599105835,-0.6273581385612488,-2.310290575027466,-2.842353820800781
1772903909608935700,6.386935791015625,-6.644989013671875,-3.752273559570313,3.276395320892334,-0.6731730103492737,-2.90282940864563,-3.2675156593322754
1772903909627920600,6.405920654296875,-2.3545961380004883,-4.4975996017456055,4.801804065704346,-0.8484911918640137,-3.5301876068115234,-3.481318473815918
1772903909646905600,6.424905517578125,3.670069694519043,-5.165437698364258,4.408667087554932,-0.7690787315368652,-4.142273902893066,-3.416566610336304
1772903909665890600,6.443890625,10.113218307495115,-5.234632015228272,2.3012256622314453,-0.1380554437637329,-4.305985927581787,-3.2168140411376958
1772903909684875800,6.462875732421875,17.81923484802246,-3.4926095008850098,-0.162989854812622,0.729983389377594,-3.648695230484009,-2.6774203777313232
1772903909703860700,6.48186083984375,24.818035125732425,-0.1515231132507324,0.6184611320495605,0.6890554428100586,-2.073885917663574,-1.5607595443725586
1772903909722845700,6.500845703125,28.26933479309082,3.865049839019776,-0.4138164520263672,0.0598647482693195,0.4660898149013519,-0.0739146396517753
1772903909741830700,6.51983056640625,23.394474029541016,0.5446767807006836,-0.7126405239105225,-0.0720820426940918,2.6804747581481934,1.4196497201919556
1772903909760815900,6.53881591796875,12.017227172851562,-1.623465657234192,-1.0577435493469238,0.2999345958232879,3.405571222305298,2.163072109222412
1772903909779800800,6.55780078125,4.271703720092773,-0.9869933128356934,-0.3351874351501465,0.6114756464958191,2.7788238525390625,2.288299560546875
1772903909798785800,6.576785888671875,1.8756694793701167,-1.1061406135559082,1.514228343963623,0.5760455131530762,2.1032073497772217,2.1636829376220703
1772903909817770800,6.595770751953125,2.242854118347168,-1.8871251344680784,2.3721790313720703,0.4214966893196106,1.9541563987731931,1.9730932712554927
1772903909836755700,6.614755615234375,2.674236297607422,-2.418703317642212,2.294440746307373,0.3390299379825592,2.1050400733947754,1.8655810356140137
1772903909855740700,6.63374072265625,1.8357534408569336,-2.5247488021850586,1.9911950826644895,0.3121519088745117,2.1282529830932617,1.8356486558914185
1772903909874726000,6.652725830078125,0.679600715637207,-2.453441619873047,1.4002457857131958,0.3964512348175049,1.905287265777588,1.9120067358016968
1772903909893710800,6.6717109375,-1.3488531112670898,-2.73956036567688,1.274219989776611,0.5027416944503784,1.6786564588546753,1.987753987312317
1772903909912695800,6.69069580078125,-3.911895751953125,-2.667959690093994,1.0850324630737305,0.648127555847168,1.4935643672943115,1.922391414642334
1772903909931680800,6.7096806640625,-6.021575927734375,-2.345715045928955,1.1113824844360352,0.8124501705169678,1.3011419773101809,1.747684121131897
1772903909950665700,6.728665771484375,-7.598504066467285,-2.0195231437683105,1.515366792678833,0.9169080257415771,0.9492838382720948,1.5393792390823364
1772903909969650700,6.747650634765625,-8.856932640075684,-1.6535329818725586,2.089287042617798,0.905912458896637,0.5070177912712097,1.2980875968933103
1772903909988635600,6.7666357421875,-10.04010772705078,-1.4502947330474854,2.580161571502685,0.7855721116065979,0.1099556609988212,0.9883792400360109
1772903910007620900,6.785620849609375,-11.038702964782717,-1.2421107292175293,2.8067214488983154,0.5980366468429565,-0.2083048969507217,0.5815432667732239
1772903910026605800,6.804605712890625,-11.96085262298584,-1.2469165325164795,3.0259926319122314,0.3817904889583587,-0.4086685478687286,0.0348192937672138
1772903910045590800,6.8235908203125,-12.536291122436523,-1.351388454437256,3.267284631729126,0.1282816082239151,-0.5797106623649597,-0.6298015713691711
1772903910064575700,6.84257568359375,-12.369036674499512,-1.2896664142608645,2.9825243949890137,-0.0928514450788497,-0.8857539296150208,-1.3213005065917969
1772903910083560700,6.861560791015625,-11.304859161376951,-1.528537392616272,2.524136543273926,-0.1979201883077621,-1.390328288078308,-1.940717458724976
1772903910102545700,6.880545654296875,-9.91629695892334,-2.0362625122070312,2.4096736907958984,-0.2009745091199875,-1.92361319065094,-2.4856088161468506
1772903911621344500,8.399344482421874,-11.03115463256836,-0.724165678024292,2.132664680480957,0.3231474757194519,-0.9957095980644226,-0.3011563420295715
1772903911640329500,8.41832958984375,-11.007401466369627,-0.8103644847869873,2.328513860702514,0.0665842592716217,-1.450192928314209,-0.6896663308143616
1772903911659314400,8.437314453125,-10.701200485229492,-1.0396745204925537,2.552537441253662,-0.2015853822231292,-1.9645410776138303,-1.127045512199402
1772903911678299600,8.456299560546874,-9.949914932250977,-1.4067736864089966,2.2455174922943115,-0.3579667508602142,-2.477056741714477,-1.663995623588562
1772903911697284600,8.47528466796875,-8.320867538452148,-2.0664172172546387,2.124692440032959,-0.356745034456253,-2.81119966506958,-2.271806001663208
1772903911716269300,8.494269287109375,-5.520476341247559,-3.2235336303710938,2.7372560501098637,-0.305432379245758,-3.0268349647521973,-2.780656576156616
1772903911735254500,8.513254638671874,-1.4570808410644531,-4.173848628997803,3.4750280380249023,-0.215024396777153,-3.416566610336304,-3.023780584335327
1772903911754239500,8.532239501953125,3.283083915710449,-4.640625953674316,3.7598137855529785,0.0635299384593963,-4.116617679595947,-3.007898092269897
1772903911773224200,8.55122412109375,8.850372314453125,-4.662873268127441,4.441130638122559,0.4563159942626953,-4.559494495391846,-2.7959280014038086
1772903911792209400,8.57020947265625,15.536206245422363,-3.100250244140625,5.21683931350708,0.5436696410179138,-4.009716510772705,-2.4208571910858154
1772903911811194400,8.5891943359375,23.24711799621582,3.188308954238892,5.115262985229492,-0.3775144219398498,-1.7250821590423584,-1.864359259605408
1772903911830179300,8.608179443359376,29.14742660522461,3.900765180587769,4.867469310760498,-1.466075420379639,2.1306962966918945,-0.526565432548523
1772903911849164300,8.627164306640625,20.148902893066406,-3.74296498298645,0.9878575801849364,-1.3139700889587402,5.0475754737854,0.9657772183418274
1772903911868149200,8.646149169921875,8.107465744018555,-1.942002534866333,-4.2649664878845215,-0.1502727419137954,4.544223308563232,1.803883671760559
1772903911887134200,8.66513427734375,1.9186944961547847,0.0101982951164245,-3.0768465995788574,0.5540543794631958,2.452011108398437,2.1056509017944336
1772903911906119200,8.684119140625,0.8811378479003906,-0.6861369609832764,-0.546486496925354,0.7947350740432739,1.2815942764282229,2.003025531768799
1772903911925104000,8.703104248046875,2.501089096069336,-1.942088842391968,0.9725961685180664,0.9034690260887146,1.393382549285889,1.786779522895813
1772903911944089000,8.722089111328126,3.4263458251953125,-3.162531614303589,2.4584708213806152,0.9187406301498412,2.0341796875,1.6982040405273438
1772903911963074000,8.741073974609375,2.6857614517211914,-3.1506073474884038,2.5858314037323,0.9480621218681335,2.4049746990203857,1.7782273292541504
1772903911982059000,8.76005908203125,0.8194131851196289,-2.874431133270264,3.0369873046875,0.8625410795211792,2.3652684688568115,2.0042474269866943
1772903912001044000,8.7790439453125,-2.427037715911865,-2.163290023803711,2.575373649597168,0.721431314945221,2.003025531768799,2.1306962966918945
1772903912020029000,8.79802880859375,-6.16721773147583,-1.582574486732483,1.745989203453064,0.647516667842865,1.6316198110580444,1.954767346382141
1772903912039014000,8.817013916015625,-8.634710311889648,-0.9480836391448976,1.2443625926971436,0.6212494969367981,1.321911334991455,1.5674790143966677
1772903912057998800,8.835998779296874,-9.937007904052734,-0.4988458156585693,1.1817166805267334,0.5821541547775269,1.0054833889007568,1.094058871269226
1772903912076983800,8.85498388671875,-10.33885383605957,-0.2701590061187744,1.2250704765319824,0.5180133581161499,0.6328558921813965,0.6169734001159668
1772903912095968800,8.87396875,-10.18601417541504,-0.1925404071807861,1.327846646308899,0.4379900395870209,0.2626718580722809,0.1893680840730667
1772903912114953700,8.89295361328125,-9.887999534606934,-0.4075222015380859,1.475487470626831,0.3518581092357635,-0.088575392961502,-0.1612683087587356
1772903912133938700,8.911938720703125,-9.547577857971191,-0.6381375789642334,1.83103346824646,0.2370155304670334,-0.4783071279525757,-0.4477638900279999
1772903912152923600,8.930923583984375,-9.588717460632324,-0.9249159097671508,2.1793289184570312,0.0830776095390319,-0.842382550239563,-0.7623592615127563
1772903912171908600,8.94990869140625,-10.01942253112793,-1.2105166912078855,2.192786931991577,-0.0464257225394248,-1.1991275548934937,-1.2143992185592651
1772903912190893600,8.9688935546875,-9.78956127166748,-1.2913405895233154,2.2716548442840576,-0.1502727419137954,-1.7354668378829956,-1.7153083086013794
1772903912209878500,8.98787841796875,-8.615567207336426,-1.446462869644165,2.649555206298828,-0.2516762912273407,-2.478278398513794,-2.1868958473205566
1772903912228863500,9.006863525390624,-6.699544429779053,-2.0115857124328613,3.600560188293457,-0.370184063911438,-3.206429243087769,-2.606559991836548
1772903912247848400,9.025848388671877,-3.49884033203125,-3.1117706298828125,5.141049385070801,-0.5925388336181641,-3.658469200134277,-2.897942543029785
1772903912266833400,9.04483349609375,0.358682632446289,-4.094602108001709,5.722219944000244,-0.7959567904472351,-3.929082155227661,-3.0298893451690674
1772903912285818400,9.063818359375,4.358160018920898,-4.60928201675415,5.389272689819336,-0.7666352987289429,-4.155102252960205,-3.004232883453369
1772903912304803300,9.08280322265625,8.947345733642578,-4.319462299346924,4.3098649978637695,-0.4557051360607147,-4.129446029663086,-2.7977607250213623
1772903912323788300,9.101788330078126,15.618102073669434,-1.717551589012146,2.982572555541992,-0.2345720827579498,-3.60410213470459,-2.2620322704315186
1772903912342773200,9.120773193359376,24.09994888305664,4.408912658691406,0.7720069885253906,-0.5467239618301392,-2.232710838317871,-1.277318239212036
1772903912361758200,9.13975830078125,28.018497467041016,3.1842613220214844,2.5496296882629395,-1.2131774425506592,0.861319363117218,0.3964512348175049
1772903912380743200,9.1587431640625,19.146163940429688,-2.9990456104278564,0.2358665466308593,-0.8356630206108093,3.791637659072876,1.5650355815887451
1772903912399728000,9.17772802734375,8.666902542114258,-1.7606589794158936,-2.6646900177001958,0.2510654330253601,4.3713483810424805,1.9394956827163696
1772903912418713000,9.196713134765623,3.548588752746582,0.239516019821167,-1.134235382080078,0.7238747477531433,3.2143704891204834,2.0360124111175537
1772903912437698000,9.215697998046876,3.2835617065429688,0.3244262933731079,1.3311684131622314,0.5821541547775269,1.8551963567733765,2.254091024398804
1772903912456683000,9.23468310546875,3.132038116455078,-1.3647410869598389,3.0700507164001465,0.2535088956356048,1.320689678192139,2.348775148391724
1772903912475668000,9.25366796875,1.7574434280395508,-2.301098585128784,3.5592291355133057,0.0054977829568088,1.7073670625686646,2.196669816970825
1772903912494653000,9.27265283203125,-0.4199752807617187,-2.628221273422241,2.9346959590911865,-0.0983492285013198,2.318842649459839,1.877798318862915
1772903912513638000,9.291637939453125,-2.5816807746887207,-2.073403596878052,1.830902457237244,-0.0855210721492767,2.5405867099761963,1.5607595443725586
1772903912532622800,9.310622802734375,-4.530557155609131,-1.81244432926178,1.2888562679290771,-0.078190691769123,2.323729515075684,1.3286309242248535
1772903912551607800,9.32960791015625,-6.181895732879639,-1.5872442722320557,0.7577692270278931,-0.0916297137737274,1.81304669380188,1.16552996635437
1772903912570592800,9.3485927734375,-7.543506622314453,-1.3231321573257446,0.2090248316526413,-0.0616973415017128,1.1600322723388672,0.9957095980644226
1772903912589577700,9.36757763671875,-8.481365203857422,-1.1472357511520386,0.0462297797203063,-0.0274889152497053,0.5815432667732239,0.7690787315368652
1772903912608562700,9.386562744140624,-8.707103729248047,-1.2068798542022705,0.4644819796085357,-0.0433713980019092,0.2015853822231292,0.5247328281402588
1772903912627547600,9.405547607421877,-8.759411811828613,-1.1517114639282229,0.5344724059104919,-0.0623082071542739,-0.0812450125813484,0.2559523284435272
1772903912646532600,9.42453271484375,-8.82388687133789,-1.0953068733215332,0.4679296016693115,-0.0317649692296981,-0.2907716333866119,-0.0238237269222736
1772903912665517600,9.443517578125,-8.878952026367188,-1.013019323348999,0.6685814261436462,-0.0183259434998035,-0.5790998339653015,-0.3213148713111877
1772903912684502500,9.46250244140625,-8.76761531829834,-0.9334368109703064,1.0082629919052124,-0.0610864795744419,-0.90652334690094,-0.6206386089324951
1772903912703487500,9.481487548828126,-8.690790176391602,-0.9449915289878844,1.3067622184753418,-0.1539379209280014,-1.3096940517425537,-0.9413426518440248
1772903912722472400,9.500472412109374,-8.441109657287598,-0.9164201617240906,1.412548303604126,-0.2632827162742615,-1.711643099784851,-1.3005311489105225
1772903912741457400,9.51945751953125,-7.98289680480957,-1.4622797966003418,1.2806087732315063,-0.2663370370864868,-2.021962404251098,-1.7623448371887207
1772903912760442000,9.538442138671876,-7.0449538230896,-2.1190013885498047,1.133239507675171,-0.1313359290361404,-2.3145666122436523,-2.288910388946533
1772903912779427300,9.55742724609375,-4.969552993774414,-2.83451509475708,1.8574652671813965,0.0458148568868637,-2.711017847061157,-2.800204038619995
1772903912798412000,9.576412109375,-1.153461456298828,-3.563866138458252,3.53983473777771,0.0623082071542739,-2.995069980621338,-3.1893250942230225
1772903912817397200,9.595397216796876,4.266328811645508,-4.232430934906006,4.474706649780273,-0.0360410213470459,-2.998735189437866,-3.274235248565674
1772903912836382000,9.6143818359375,9.56012725830078,-3.828800678253174,3.364262580871582,-0.0207694023847579,-2.8350234031677246,-2.9608616828918457
1772903912855367000,9.633366943359375,14.928020477294922,-1.9359357357025144,1.689737319946289,0.0739146396517753,-2.481332778930664,-2.2644758224487305
1772903912874351900,9.652351806640626,20.025611877441406,1.7214144468307495,-0.0626401901245117,-0.0244345907121896,-1.6126830577850342,-1.2229512929916382
1772903912893336800,9.6713369140625,21.461986541748047,2.415400505065918,0.1068778038024902,-0.3555232882499695,0.1307250559329986,0.0598647482693195
1772903912912321800,9.69032177734375,17.160093307495117,-1.246695041656494,-0.1518054008483886,-0.2419024556875229,2.014021158218384,1.268766164779663
1772903912931306800,9.709306640625,10.490190505981444,-1.6357678174972534,-1.265620470046997,0.2474002391099929,2.475224018096924,2.13191819190979
1772903912950291700,9.728291748046876,5.035330772399902,-0.8132610321044922,-0.2237329483032226,0.5131264328956604,1.6853759288787842,2.551582098007202
1772903912969276700,9.747276611328124,1.7635812759399414,-0.5333449244499207,1.7172858715057373,0.3738492429256439,0.9462295174598694,2.531423568725586
1772903912988261600,9.76626171875,0.3337936401367187,-0.9933205246925354,2.689253330230713,0.1062904745340347,0.9786053895950316,2.138026714324951
1772903913007246600,9.78524658203125,0.445281982421875,-1.8137025833129885,2.970532178878784,-0.1056796088814735,1.5503748655319214,1.737910270690918
1772903913026231600,9.8042314453125,0.8393821716308594,-2.469601631164551,2.5630805492401123,-0.1912006735801696,2.0781619548797607,1.5937461853027344
1772903913045216500,9.823216552734374,0.1159181594848632,-2.309043884277344,1.8283824920654297,-0.1765399277210235,2.176511287689209,1.6603304147720337
1772903913064201500,9.842201416015625,-1.8344926834106443,-1.9816489219665527,1.4203099012374878,-0.1704312711954116,1.9278892278671265,1.7305799722671509
1772903913083186400,9.8611865234375,-4.228069305419922,-1.5946180820465088,0.9959768056869508,-0.2119700759649276,1.5509856939315796,1.6682716608047483
1772903913102171400,9.88017138671875,-6.463876724243164,-1.2377166748046875,0.3971004486083984,-0.2394589930772781,1.21928608417511,1.4245367050170898
1772903913121156400,9.89915625,-7.933874130249023,-0.9320321083068848,-0.2106696963310241,-0.2028071135282516,0.943786084651947,1.0567960739135742
1772903913140141300,9.918141357421876,-8.606780052185059,-0.7084423303604126,-0.4919700920581817,-0.1191186308860778,0.7165443897247314,0.646905779838562
1772903913159126000,9.9371259765625,-8.68455982208252,-0.6069682836532593,-0.3905805945396423,-0.0390953458845615,0.4923570156097412,0.2944368124008178
1772903913178111000,9.956111083984377,-8.73807430267334,-0.4810179471969604,-0.1095514893531799,0.0177150778472423,0.1514944583177566,0.0531452372670173
1772903913197096000,9.975095947265626,-9.072161674499512,-0.4169061183929443,0.2486606240272522,0.0213802680373191,-0.3481929302215576,-0.1533270627260208
1772903913216081000,9.994080810546874,-9.48004150390625,-0.3474824428558349,0.7651320695877075,-0.0653625279664993,-0.8814778923988342,-0.4520399272441864
1772903913235065900,10.01306591796875,-9.87426471710205,-0.4926848411560058,0.9163366556167604,-0.171653002500534,-1.2907572984695437,-0.9413426518440248
1772903913254050800,10.03205078125,-9.47746467590332,-1.0617272853851318,1.027014970779419,-0.2095266133546829,-1.4837905168533323,-1.5503748655319214
1772903913273035800,10.051035888671874,-8.528426170349121,-1.7969930171966553,0.8951205015182495,-0.1606574356555938,-1.609017848968506,-2.18567419052124
1772903913292020700,10.070020751953123,-6.537773132324219,-2.5999972820281982,1.283953070640564,-0.0421496704220771,-1.8154901266098025,-2.712850570678711
1772903913311005700,10.089005615234376,-4.023053169250488,-3.557696580886841,2.2393035888671875,0.0311541035771369,-2.2559237480163574,-3.0445499420166016
1772903913329990700,10.10799072265625,-1.5836338996887207,-4.192113876342773,2.781330347061157,0.1496618688106537,-2.955363750457764,-3.2815656661987305
1772903913348975600,10.1269755859375,1.2263031005859375,-4.432567596435547,3.2298083305358887,0.3817904889583587,-3.648695230484009,-3.4917030334472656
1772903913367960600,10.145960693359376,5.783743858337402,-4.201834678649902,3.585421562194824,0.685390293598175,-4.0194902420043945,-3.481929302215576
1772903913386945500,10.164945556640625,12.720052719116213,-2.09961199760437,3.85689640045166,0.759304940700531,-3.801411628723145,-2.967581033706665
1772903913405930200,10.18393017578125,21.63851356506348,1.0590665340423584,4.11132287979126,0.346971184015274,-2.380540132522583,-1.7336342334747314
1772903913424915500,10.20291552734375,24.941383361816406,0.6615550518035889,4.832295894622803,-0.3200931549072265,0.296269416809082,0.0244345907121896
1772903913443900200,10.221900146484376,17.663814544677734,-2.3327910900115967,2.4227328300476074,-0.3921751976013183,2.715293884277344,1.4569125175476074
1772903913462885000,10.240885009765623,7.3434553146362305,-1.462907314300537,-0.6996970176696777,0.0323758348822593,3.2479679584503174,1.9999712705612185
1772903913481870000,10.2598701171875,1.435749053955078,0.0276436805725097,-0.9634556770324708,0.3512472510337829,2.477056741714477,2.017075538635254
1772903913500855000,10.27885498046875,0.1932249069213867,0.9079764485359192,-0.2938952445983886,0.4367683231830597,1.3017528057098389,1.943160891532898
1772903913519840000,10.297840087890624,1.1911993026733398,0.1802822351455688,1.0000214576721191,0.3652971386909485,0.5033525824546814,1.8655810356140137
1772903913538825000,10.316824951171874,2.3412647247314453,-1.134147047996521,2.5373029708862305,0.1838703006505966,0.6163625717163086,1.75929057598114
1772903913557810000,10.335809814453125,2.7887439727783203,-2.417163848876953,3.526081323623657,-0.026267185807228,1.5515965223312378,1.6963714361190796
1772903913576795000,10.354794921875,1.7900991439819336,-2.486236095428467,2.8062071800231934,-0.0867427960038185,2.4129159450531006,1.7067562341690063
1772903913595779800,10.37377978515625,-0.5060548782348633,-1.7497930526733398,1.7476706504821775,-0.1111773923039436,2.532034397125244,1.760512351989746
1772903913614764500,10.3927646484375,-3.267958164215088,-1.1975847482681274,0.8212777376174927,-0.1478292793035507,2.0995421409606934,1.7696752548217771
1772903913633749500,10.41174951171875,-5.672977924346924,-0.6535071134567261,-0.1559069156646728,-0.1362228393554687,1.4813470840454102,1.656665325164795
1772903913652734500,10.430734375,-7.417734146118164,-0.3773172497749328,-0.8270071744918823,-0.0342084281146526,0.9498947262763976,1.4062107801437378
1772903913671719400,10.449719482421877,-8.75979232788086,-0.4042645692825317,-0.7326949834823608,0.0610864795744419,0.5858193039894104,1.0555742979049685
1772903913690704400,10.468704345703124,-9.869452476501465,-0.2960450053215027,-0.5135817527770996,0.1258381456136703,0.3133736252784729,0.6291907429695129
1772903913709689300,10.487689453125,-10.615928649902344,-0.0556130409240722,-0.4246199131011963,0.1551596522331237,-0.0610864795744419,0.1979201883077621
1772903913728674300,10.50667431640625,-11.167102813720703,-0.0220786333084106,-0.2936544418334961,0.1142317131161689,-0.6811142563819885,-0.2535088956356048
1772903913747659300,10.5256591796875,-11.17806625366211,-0.012729525566101,-0.2387646436691284,0.0305432397872209,-1.400712966918945,-0.748920202255249
1772903913766644200,10.544644287109374,-10.645419120788574,-0.4573507308959961,-0.206705093383789,-0.0390953458845615,-2.0995421409606934,-1.2932007312774658
1772903913785629200,10.563629150390623,-9.768924713134766,-0.8612282872200012,0.039630651473999,-0.0623082071542739,-2.699411392211914,-1.913839340209961
1772903913804614000,10.58261376953125,-8.410572052001953,-1.8326420783996584,0.5502052307128906,-0.0085521070286631,-3.062265157699585,-2.6108360290527344
1772903913823598800,10.601598876953124,-5.789533615112305,-3.4404687881469727,1.6785719394683838,0.1472184062004089,-3.098306179046631,-3.291950225830078
1772903913842583800,10.620583740234377,-1.4941949844360352,-5.207917213439941,2.754188060760498,0.3872882723808288,-2.938870429992676,-3.742157697677612
1772903913861568800,10.63956884765625,4.481104850769043,-5.93528938293457,3.4663801193237305,0.7635809779167175,-2.598618745803833,-3.714057922363281
1772903913880553700,10.6585537109375,11.619498252868652,-4.8971147537231445,2.724170207977295,1.2699878215789795,-2.4349069595336914,-3.135568857192993
1772903913899538700,10.67753857421875,19.71479606628418,-1.4062249660491943,1.6482148170471191,1.4538581371307373,-2.271806001663208,-1.9822561740875244
1772903913918523600,10.696523681640626,26.368322372436523,2.902297019958496,2.887765884399414,0.5723803043365479,-0.9181297421455384,-0.3848448097705841
1772903913937508600,10.715508544921876,25.22861099243164,-0.2369637489318847,4.122729778289795,-0.1692095398902893,2.0097451210021973,1.321911334991455
1772903913956493600,10.73449365234375,15.29067325592041,-3.129786491394043,1.5447931289672852,0.0836884751915931,3.925417184829712,2.349385976791382
1772903913975478300,10.753478271484376,6.326643943786621,-1.7748472690582275,0.709235429763794,0.4569268524646759,3.744601011276245,2.7000222206115723
1772903913994463200,10.772463134765625,2.2321949005126958,-0.8205956220626831,2.143206834793091,0.3549124300479889,2.721402645111084,2.7482805252075195
1772903914013448200,10.7914482421875,0.672978401184082,-1.0790656805038452,2.757997512817383,0.0256563201546669,2.0549490451812744,2.5882341861724854
1772903914032433200,10.81043310546875,-0.3416652679443359,-1.5228826999664309,2.391933917999268,-0.2144135385751724,1.8533637523651123,2.2027783393859863
1772903914051418000,10.829418212890625,-1.2291269302368164,-1.5897855758666992,1.2679448127746582,-0.21319180727005,1.9492695331573489,1.6896519660949707
1772903914070403000,10.848403076171875,-1.973575592041016,-1.6476459503173828,0.5204123258590698,-0.0378736145794391,1.9718714952468872,1.1722495555877686
1772903914089388000,10.867387939453126,-2.430470466613769,-1.355007886886597,0.0317803621292114,0.1203403621912002,1.5968005657196045,0.8368847370147705
1772903914108372700,10.886372802734376,-3.3747711181640625,-0.897079586982727,-0.0325443744659423,0.1466075479984283,0.8790343999862671,0.6230821013450623
1772903914127357700,10.905357666015624,-4.72005558013916,0.029932215809822,0.1400816440582275,-0.0018325943965464,0.7037162184715271,0.5925388336181641
1772903914146342700,10.9243427734375,-4.414713382720947,-0.1391536593437194,0.8033928275108337,-0.0592538826167583,0.7263182401657104,0.8075632452964783
1772903914165327600,10.94332763671875,-4.239797115325928,-1.1769825220108032,2.079217433929444,-0.2864955961704254,-0.0641408041119575,0.9657772183418274
1772903914184312600,10.9623125,-5.272698879241943,-0.897842288017273,0.8591257333755493,-0.2718348205089569,0.194254994392395,1.2229512929916382
1772903914203297500,10.981297607421874,-6.014067649841309,-0.7395428419113159,0.4329169988632202,0.0293215103447437,0.9413426518440248,1.451414704322815
1772903914222282500,11.000282470703125,-6.574509620666504,-0.6213478446006775,0.6903147101402283,0.337808221578598,1.135597586631775,1.4190388917922974
1772903914241267500,11.019267333984375,-7.624494552612305,-0.5711641311645508,0.7940139174461365,0.5351175665855408,0.7244856357574463,1.1447606086730957
1772903914260252200,11.038252197265624,-8.637687683105469,-0.6985649466514587,1.1695975065231323,0.5473348498344421,0.0372627526521682,0.7079922556877136
1772903914279237000,11.057237060546877,-9.075921058654783,-0.8904522657394409,1.819733500480652,0.3756818473339081,-0.8637627959251404,0.2376264035701751
1772903914298222000,11.07622216796875,-9.3152437210083,-0.9698413610458374,1.7883460521697998,0.2730565667152405,-1.6249003410339355,-0.1404989063739776
1772903914317207000,11.09520703125,-9.3070650100708,-1.1562304496765137,1.0859079360961914,0.3744601011276245,-2.2583670616149902,-0.5021308660507202
1772903914336192000,11.11419189453125,-9.591673851013184,-1.4408061504364014,0.6569292545318604,0.4850266277790069,-2.6957461833953857,-0.9486730098724364
1772903914355176700,11.1331767578125,-10.250746726989746,-2.1063027381896973,-0.374741792678833,0.6401863098144531,-3.0158393383026123,-1.6982040405273438
1772903914374162000,11.152161865234374,-8.479593276977539,-1.9614619016647337,0.2302606105804443,0.813671886920929,-3.280343770980835,-2.718959093093872
1772903914393146600,11.171146728515623,-3.2310848236083984,-1.7012660503387451,1.243377447128296,1.1588104963302612,-2.710407018661499,-3.671297311782837
1772903914412131600,11.190131591796876,6.907803535461426,-2.180133819580078,4.360763072967529,1.0409135818481443,-2.1557416915893555,-4.38723087310791
1772903914431116500,11.209116455078124,23.38879776000977,-2.0200676918029785,8.024492263793945,0.3023780584335327,-1.8014402389526367,-3.2058184146881104
1772903914450101500,11.2281015625,28.90544891357422,-2.3541598320007324,7.368353843688965,-0.7623592615127563,-0.3262017965316772,-0.8075632452964783
1772903914469086500,11.24708642578125,24.569068908691406,-1.361248254776001,4.13834810256958,-1.4575233459472656,0.8747583627700806,1.2437206506729126
1772903914488071200,11.2660712890625,14.239668846130373,-1.277270793914795,2.1915946006774902,-1.6426154375076294,1.6120721101760864,1.998138666152954
1772903914507056000,11.28505615234375,5.670490264892578,-1.3820853233337402,0.9446923732757568,-1.5314379930496216,1.9297218322753904,1.928500056266785
1772903914526041000,11.304041015625,1.2944612503051758,-1.0891060829162598,-0.0394794940948486,-1.29503333568573,1.7165300846099854,1.6536109447479248
1772903914545026000,11.323026123046876,-0.5586347579956055,-0.2618132829666137,-0.1102476119995117,-1.0781763792037964,1.5625921487808228,1.2925899028778076
1772903914564011000,11.342010986328123,-2.128662109375,-0.3143360614776611,0.5575706958770752,-0.9944878816604614,1.618180751800537,0.8210022449493408
1772903914582996000,11.360995849609376,-2.749269485473633,-0.991084635257721,0.37734055519104,-0.8906408548355103,1.6530001163482666,0.4178315103054046
1772903914601980700,11.379980712890625,-2.692019462585449,-0.9025030136108398,0.1272704601287841,-0.6988292932510376,1.7733404636383057,0.0928514450788497
1772903914620965600,11.398965576171875,-1.6255264282226562,-0.7643336653709412,0.0798870325088501,-0.3671297430992126,2.053727388381958,0.0818558782339096
1772903914639950600,11.41795068359375,-0.3191232681274414,-0.5618922710418701,-0.0919289588928222,-0.0604756139218807,2.0476186275482178,0.4471530318260193
1772903914658935600,11.436935546875,-0.0891456604003906,-0.6350415945053101,0.039496898651123,0.0103847011923789,1.7580687999725342,0.8906408548355103
1772903914677920500,11.45592041015625,-1.1939201354980469,-0.4843711853027344,-0.0876675844192504,0.0757472291588783,1.5143338441848757,1.1508692502975464
1772903914696905500,11.474905517578126,-2.5507640838623047,0.0648126602172851,-0.3367202281951904,0.1490510106086731,1.2315033674240112,1.1142174005508425
1772903914715890200,11.49389013671875,-3.4156742095947266,0.2957074642181396,-0.4456923604011535,0.1936441361904144,1.01708984375,0.908355951309204
1772903914734875100,11.512875244140623,-3.743963718414306,0.2492574453353881,-0.4044826030731201,0.3035998046398163,1.0677915811538696,0.6163625717163086
1772903914753860000,11.531860107421876,-2.9589672088623047,-0.0846116542816162,-0.3827871084213257,0.3726275265216827,1.2168426513671875,0.4868592321872711
1772903914772845000,11.550844970703125,-0.8702402114868164,0.908767819404602,-0.8962417840957642,0.4477638900279999,0.5021308660507202,0.4581485986709595
1772903914791830000,11.569830078125,0.7168970108032227,0.2590072154998779,0.3176993131637573,0.4324922561645508,0.1618791669607162,0.6878337264060974
1772903914810814700,11.588814697265626,0.7054929733276367,0.0449408292770385,1.0712918043136597,0.2693913578987121,0.0427605360746383,0.832608699798584
1772903914829799700,11.607799560546876,0.0721826553344726,0.1144888401031494,0.7731778621673584,0.1844811588525772,0.130114197731018,0.7751874327659607
1772903914848784600,11.62678466796875,-0.3639192581176758,0.3081343173980713,0.8691806793212891,0.1020144149661064,0.296269416809082,0.5656607747077942
1772903914867769600,11.64576953125,-1.159653663635254,0.3047847747802734,0.4969673156738281,0.0403170771896839,0.2761108875274658,0.263893574476242
1772903914886754600,11.664754638671877,-1.5877418518066406,0.523942232131958,-0.3589167594909668,0.0647516697645187,-0.0928514450788497,-0.0140498895198106
