time,seconds_elapsed,acc_z,acc_y,acc_x,gyro_z,gyro_y,gyro_x
1772903839827805700,0.1098056640625,0.0786118507385253,0.0702683329582214,-0.333108901977539,0.5900954008102417,-0.6133082509040833,-0.1985310465097427
1772903839846791400,0.12879150390625,-0.1082310676574707,0.1058325767517089,-0.5790839195251465,0.7562506198883057,-0.4899135529994964,-0.3207040131092071
1772903839865777200,0.147777099609375,-0.5332913398742676,0.1536133289337158,-0.7498917579650879,0.8594867587089539,-0.2999345958232879,-0.5626064538955688
1772903839884763000,0.166762939453125,-0.3785958290100097,0.3257641792297363,-0.8566040992736816,0.9755510687828064,-0.2052505612373352,-0.7727439403533936
1772903839903748400,0.185748291015625,0.02239990234375,0.3818635940551758,-0.5306243896484375,1.0329723358154297,-0.1820377111434936,-0.8796452879905701
1772903839922734000,0.204734130859375,0.4620223045349121,0.5184954404830933,-0.4109234809875488,1.0671807527542114,-0.0122172953560948,-0.8558215498924255
1772903839941719800,0.2237197265625,0.9513897895812988,1.0040435791015625,-0.7609715461730957,1.1753038167953491,0.2376264035701751,-0.7147117853164673
1772903839960705500,0.24270556640625,1.4204564094543457,1.2406612634658811,-0.7835273742675781,1.334128737449646,0.4459312856197357,-0.5241219997406006
1772903839979691300,0.261691162109375,1.2879505157470703,0.956527829170227,-0.695303201675415,1.3964369297027588,0.7751874327659607,-0.3090975880622864
1772903839998676700,0.2806767578125,0.6680912971496582,0.6133569478988647,-0.1694567203521728,1.3188570737838743,1.1398736238479614,-0.2467893660068512
1772903840017662500,0.299662353515625,0.4300980567932129,0.3559768199920654,-0.1722960472106933,1.3487894535064695,1.2021819353103638,-0.3927860558032989
1772903840036648200,0.318648193359375,2.4322190284729004,-0.022220492362976,0.5643289089202881,1.620624303817749,0.6194168925285339,-0.3830122053623199
1772903840055634000,0.337634033203125,5.939340114593506,-0.9646258354187012,3.620089054107666,1.7037018537521362,-0.4233292937278747,-0.0018325943965464
1772903840074619600,0.35661962890625,8.852946281433105,-1.865605592727661,7.117380619049072,1.2266165018081665,-0.7483093738555908,0.5491674542427063
1772903840093605400,0.37560546875,9.8582763671875,-2.5593907833099365,8.258647918701172,0.6322450637817383,-0.0073303775861859,0.7550288438796997
1772903840112591000,0.394591064453125,8.651759147644043,-2.9685983657836914,6.994693756103516,0.4440986812114715,0.8545998334884644,0.4392117857933044
1772903840131576600,0.41357666015625,10.259946823120115,-2.8283956050872803,6.720864772796631,0.3518581092357635,1.110552191734314,0.3952295184135437
1772903840150562300,0.432562255859375,11.034744262695312,-3.1989705562591557,6.500096321105957,0.0952949076890945,1.3536763191223145,0.8216131329536438
1772903840169548000,0.451548095703125,8.02278995513916,-3.365652322769165,4.606322765350342,0.0030543238390237,1.805105447769165,1.1679733991622925
1772903840188533800,0.47053369140625,4.1790313720703125,-3.03999662399292,2.982301712036133,0.0641408041119575,1.886350393295288,1.3029745817184448
1772903840207519500,0.48951953125,1.079360008239746,-2.553942918777466,1.7354340553283691,0.1178968995809555,1.517388105392456,1.3060288429260254
1772903840226505000,0.5085048828125,-1.3857641220092771,-2.004432678222656,0.2691760063171386,0.235793799161911,1.007315993309021,1.1795798540115356
1772903840245490700,0.52749072265625,-2.624751091003418,-1.5201144218444824,-0.5513114929199219,0.3921751976013183,0.5534434914588928,1.0439679622650146
1772903840264476400,0.546476318359375,-3.3207015991210938,-1.0014371871948242,-0.9078292846679688,0.5577195286750793,0.3390299379825592,0.9224058389663696
1772903840283462100,0.565462158203125,-3.425326347351074,-0.6269211769104004,-0.7173168659210205,0.665842592716217,0.346971184015274,0.8643736839294434
1772903840302447900,0.58444775390625,-3.477955818176269,-0.5865458250045776,-0.8354721069335938,0.7250964641571045,0.5198459029197693,0.8979712128639221
1772903840321433600,0.60343359375,-3.4994630813598637,-0.1980135440826416,-0.6651229858398438,0.6737838387489319,0.6585122346878052,1.0348049402236938
1772903840340419300,0.62241943359375,-3.8926711082458496,0.0383868217468261,-0.2638401985168457,0.5094612240791321,0.749531090259552,1.185077667236328
1772903840359404800,0.64140478515625,-4.560661315917969,-0.0186312198638916,-0.3500216007232666,0.3316995799541473,0.8374956250190735,1.250440239906311
1772903840378390500,0.660390625,-5.006477355957031,-0.0226321220397949,-0.8723504543304443,0.233961209654808,0.8118392825126648,1.229670763015747
1772903840397376300,0.679376220703125,-4.633968353271484,-0.3083652853965759,-1.1342978477478027,0.2186895906925201,0.637742817401886,1.257770538330078
1772903840416362000,0.698362060546875,-4.4568634033203125,-0.7516641020774841,-0.9901845455169678,0.2229656428098678,0.4807505905628204,1.3139700889587402
1772903840435347500,0.717347412109375,-4.632507801055908,-0.9214059710502625,-0.7445297241210938,0.1857028901576995,0.4361574649810791,1.29197895526886
1772903840454333200,0.736333251953125,-4.599552154541016,-0.9093087911605836,-0.5418951511383057,0.1185077652335167,0.4410443603992462,1.2131774425506592
1772903840473319000,0.75531884765625,-4.254700183868408,-1.251333713531494,-0.4997937679290771,0.0616973415017128,0.4373791813850403,1.1331541538238523
1772903840492304600,0.7743046875,-4.410913467407227,-1.471962809562683,-0.5593752861022949,0.0824667438864708,0.3683514595031738,0.960890293121338
1772903840511290400,0.793290283203125,-4.035937309265137,-1.3715566396713257,-0.3887238502502441,0.0965166315436363,0.0971274971961975,0.7922916412353516
1772903840530276000,0.812276123046875,-3.1182870864868164,-1.1331570148468018,-0.1923174858093261,0.0733037739992141,-0.1631008982658386,0.6499601006507874
1772903840549261800,0.83126171875,-1.850247383117676,-1.417128324508667,-0.1376664638519287,0.0739146396517753,-0.0311541035771369,0.5705476999282837
1772903840568247300,0.850247314453125,-1.4363117218017578,-1.4802933931350708,-0.432248592376709,0.1429423540830612,0.3585776388645172,0.5253437161445618
1772903840587233000,0.86923291015625,-2.7050790786743164,-1.2015595436096191,-1.010845422744751,0.2926042377948761,0.4453204274177551,0.3158170878887176
1772903840606218800,0.88821875,-1.7052116394042969,-1.0572772026062012,-0.0436015129089355,0.3323104381561279,0.2516762912273407,0.3035998046398163
1772903840625204500,0.90720458984375,-0.9180526733398438,-0.9728698134422302,0.5482144355773926,0.2803869247436523,-0.0604756139218807,0.471587598323822
1772903840644190200,0.926190185546875,-1.174107551574707,-1.01051127910614,1.0712437629699707,0.1795942485332489,-0.1514944583177566,0.5503891706466675
1772903840663175700,0.94517578125,-2.749332427978516,-1.0185441970825195,0.956775426864624,0.0794124230742454,0.0952949076890945,0.2852738499641418
1772903840682161400,0.964161376953125,-3.1052303314208984,-0.8337233066558838,0.6484634876251221,0.0109955659136176,0.1533270627260208,-0.0922405794262886
1772903840701147100,0.983147216796875,-1.7485809326171875,-0.826475203037262,0.7259612083435059,-0.1062904745340347,-0.0610864795744419,-0.2028071135282516
1772903840720132900,1.0021328125,-0.8827056884765625,-1.181525707244873,0.5215413570404053,-0.2174678593873977,-0.2419024556875229,-0.1423314958810806
1772903840739118600,1.02111865234375,-1.3839139938354492,-1.1755717992782593,-0.1468126773834228,-0.2046397030353546,-0.3500255048274994,-0.2186895906925201
1772903840758104300,1.040104248046875,-1.1880226135253906,-1.0985114574432373,-0.2936711311340332,-0.1331685185432434,-0.4050033390522003,-0.3530798554420471
1772903840777090000,1.059090087890625,-0.5578842163085938,-1.0006035566329956,-0.2533364295959472,-0.0751363709568977,-0.4056142270565033,-0.4159989058971405
1772903840796075500,1.078075439453125,-0.261383056640625,-0.7673802375793457,-0.1683132648468017,-0.0543669648468494,-0.3249800503253937,-0.4178315103054046
1772903840815061200,1.097061279296875,-0.522273063659668,-0.5527915954589844,-0.2682926654815674,-0.0439822636544704,-0.1392771750688552,-0.4331031143665313
1772903840834047000,1.116046875,-0.8766069412231445,-0.31718510389328,-0.5654394626617432,-0.0171042140573263,0.0561995580792427,-0.4447095692157745
1772903840853032700,1.13503271484375,-1.381892204284668,0.0146148800849914,-0.9811155796051024,0.0177150778472423,0.0965166315436363,-0.439822643995285
1772903840872018400,1.154018310546875,-1.8624601364135744,0.3559894263744354,-1.1633167266845703,0.0500909127295017,0.0012217295588925,-0.4031707644462585
1772903840891004000,1.17300390625,-1.991926193237305,0.6147318482398987,-1.1436026096343994,0.067805990576744,-0.1899789422750473,-0.3280344009399414
1772903840909989600,1.19198974609375,-2.113819122314453,0.9335055351257324,-0.910045862197876,0.0641408041119575,-0.3231474757194519,-0.3170388340950012
1772903840928975400,1.210975341796875,-1.2576026916503906,1.2455672025680542,-0.5978684425354004,-0.0042760535143315,-0.3390299379825592,-0.3219257295131683
1772903840947961000,1.229961181640625,0.1100635528564453,0.9893813729286194,-0.2674219608306885,-0.0897971242666244,-0.1875354945659637,-0.2657261788845062
1772903840966946800,1.24894677734375,1.457707405090332,0.3109952807426452,-0.5899984836578369,-0.0488691814243793,0.0427605360746383,-0.1582139730453491
1772903840985932500,1.2679326171875,2.657975196838379,0.0667823404073715,-0.9512560367584229,0.0959057733416557,0.0946840420365333,0.0342084281146526
1772903841004918300,1.286918212890625,3.3227243423461914,0.31578129529953,-0.7152771949768066,0.1551596522331237,-0.0061086476780474,0.2376264035701751
1772903841023903700,1.30590380859375,3.567555427551269,0.2791693806648254,0.6070327758789062,0.0647516697645187,0.1918115466833114,0.4001164436340332
1772903841042889500,1.324889404296875,3.46337890625,0.2644225060939789,0.1330010890960693,0.0207694023847579,0.3255909383296966,0.4966330528259277
1772903841061875200,1.343875244140625,3.602258682250977,0.1152008697390556,-0.3600385189056396,0.1386663019657135,0.3133736252784729,0.6029235124588013
1772903841080861000,1.36286083984375,2.778375625610352,-0.3566521406173706,-0.898853063583374,0.38850998878479,0.0061086476780474,0.4703658819198608
1772903841099846700,1.3818466796875,6.070016860961914,-0.2865263819694519,0.3460874557495117,0.5589412450790405,-0.2901607751846313,0.6829468011856079
1772903841118832000,1.40083203125,7.512042999267578,-1.0600204467773438,2.3938913345336914,0.500298261642456,-0.3231474757194519,0.9920443892478944
1772903841137818000,1.419818115234375,6.336556434631348,-1.6766992807388306,3.665609836578369,0.3573558926582336,-0.1441640853881836,0.9120211005210876
1772903841156803600,1.438803466796875,6.075401306152344,-1.875627279281616,4.36700439453125,0.2070831656455993,-0.1227838173508644,0.6579013466835022
1772903841175789300,1.457789306640625,3.776453018188477,-2.1194450855255127,3.761096239089966,0.1466075479984283,-0.1038470119237899,0.1539379209280014
1772903841194775000,1.476775146484375,1.818328857421875,-0.8331167101860046,2.76855731010437,0.1582139730453491,-0.6988292932510376,-0.6866120100021362
1772903841213760800,1.4957607421875,4.105957984924316,-0.656791627407074,3.6528923511505127,-0.0861319303512573,-1.2021819353103638,-0.953559935092926
1772903841232746500,1.51474658203125,5.363505363464356,-1.5834875106811523,3.59887170791626,-0.4538725316524505,-1.02014422416687,-0.8393282294273376
1772903841251732000,1.53373193359375,3.50954818725586,-0.6980322599411011,1.440725326538086,-0.7367029190063477,0.4172206521034241,-0.5668824911117554
1772903841270717700,1.5527177734375,1.3735532760620115,-0.0177500173449516,-0.7333111763000488,-0.8900299668312073,1.6169590950012207,-0.0238237269222736
1772903841289703400,1.571703369140625,-2.914668083190918,0.0622683763504028,-2.7636876106262207,-0.8032872080802917,1.9175045490264893,0.5210676789283752
1772903841308689200,1.590689208984375,-7.1465277671813965,0.6664936542510986,-4.173579216003418,-0.535728394985199,1.400712966918945,0.915686309337616
1772903841327675000,1.6096748046875,-10.12353801727295,0.7506421804428101,-4.301818370819092,-0.1875354945659637,0.8356630206108093,1.0677915811538696
1772903841346660600,1.62866064453125,-11.533473014831545,0.6129801869392395,-2.76227068901062,-0.0287106446921825,0.6078104376792908,0.9602794051170348
1772903841365646300,1.647646240234375,-10.96186351776123,0.7124899625778198,-0.6001590490341187,-0.233961209654808,0.3359756171703338,0.860708475112915
1772903841384631800,1.6666318359375,-10.863836288452148,0.8666926622390747,-0.6781219244003296,-0.4929678738117218,0.2296851575374603,0.6805033683776855
1772903841403617500,1.685617431640625,-10.757394790649414,0.6212978363037109,-1.0731210708618164,-0.6316341757774353,0.3769035637378692,0.3371973633766174
1772903841422603300,1.704603271484375,-9.582525253295898,0.2074768543243408,-1.5647640228271484,-0.6640099883079529,0.4899135529994964,0.1337793916463852
1772903841441589000,1.723589111328125,-7.503740787506103,-0.0044506788253784,-1.9643468856811523,-0.5974257588386536,0.3524689674377441,0.3225366175174713
1772903841460574700,1.74257470703125,-6.02708625793457,-0.7235963940620422,-1.9808176755905151,-0.4868592321872711,0.1154534444212913,0.8906408548355103
1772903841479560200,1.761560302734375,-7.217507839202881,-1.284990906715393,-1.661500096321106,-0.4196641147136688,-0.0629190728068351,1.285259485244751
1772903841498546000,1.7805458984375,-8.80618953704834,-1.3809823989868164,-1.751935601234436,-0.277332603931427,-0.1844811588525772,1.3744457960128784
1772903841517531600,1.79953173828125,-8.996094703674316,-1.636023759841919,-1.0460846424102783,-0.1893680840730667,-0.6695078015327454,1.3267983198165894
1772903841536517400,1.818517333984375,-8.06917953491211,-1.4792332649230957,-0.4867980480194092,-0.2138026654720306,-1.5503748655319214,1.230892539024353
1772903841555503000,1.837503173828125,-6.071520805358887,-1.7035322189331057,0.3520338535308838,-0.2455676347017288,-2.392146587371826,0.8735366463661194
1772903841574488800,1.85648876953125,-1.98114013671875,-2.779136180877685,1.7954871654510498,-0.1185077652335167,-2.622442483901977,0.1020144149661064
1772903841593474600,1.875474609375,3.0337610244750977,-4.023631095886231,4.7555131912231445,-0.1142317131161689,-1.9755367040634155,-1.0048725605010986
1772903841612460000,1.8944599609375,9.696147918701172,-2.690431594848633,5.158885478973389,0.0439822636544704,-1.7531819343566897,-2.191171884536743
1772903841631445800,1.91344580078125,20.76071548461914,-3.227203845977783,6.355960845947266,0.4373791813850403,-1.816711902618408,-2.083048820495605
1772903841650431500,1.932431396484375,25.569913864135746,-3.854568481445313,7.314565181732178,0.9126319885253906,-1.5198315382003784,-0.6841685771942139
1772903841669417200,1.951417236328125,15.71230125427246,-2.804532289505005,7.638395309448242,1.221118688583374,-1.2803726196289062,-0.1569922417402267
1772903841688403000,1.97040283203125,4.069977760314941,-1.4229226112365725,6.488219261169434,1.2846486568450928,-1.4477494955062866,-0.932179629802704
1772903841707388400,1.989388427734375,-0.7612094879150391,-1.0417253971099854,5.50977087020874,1.2186752557754517,-1.7959424257278442,-2.1410810947418213
1772903841726374100,2.0083740234375,1.642852783203125,-1.063236951828003,4.9061808586120605,1.0024291276931765,-2.100764036178589,-2.942535638809204
1772903841745360000,2.02735986328125,6.410706520080566,-0.9285408854484558,3.9151906967163086,0.8008437156677246,-1.6646065711975098,-2.8845036029815674
1772903841764345600,2.046345703125,7.712831497192383,0.2011866569519043,2.2855324745178223,0.5418370366096497,-0.5821541547775269,-2.1795654296875
1772903841783331300,2.065331298828125,4.219429016113281,2.113242626190185,-0.0219249725341796,0.0812450125813484,0.1404989063739776,-1.4691298007965088
1772903841802317000,2.084317138671875,-0.7405996322631836,3.543623924255371,-3.198330402374268,-0.2950477004051208,0.1514944583177566,-1.1050543785095217
1772903841821302800,2.103302734375,-3.1642937660217285,4.033543586730957,-5.701957702636719,-0.4153880476951599,-0.3005454838275909,-0.740368127822876
1772903841840288300,2.122288330078125,-4.536943435668945,4.247320175170898,-6.996048450469971,-0.3231474757194519,-0.9089667797088624,-0.2742782831192016
1772903841859274000,2.14127392578125,-6.532987117767334,3.7041015625,-6.4567389488220215,-0.1918115466833114,-1.2143992185592651,-0.1081230640411377
1772903841878259700,2.160259765625,-7.099264621734619,3.562175750732422,-6.1440749168396,-0.1056796088814735,-1.3274091482162476,-0.1710421442985534
1772903841897245400,2.179245361328125,-6.4048919677734375,3.787931442260742,-5.6009063720703125,-0.1221729591488838,-1.4117084741592407,-0.232128620147705
1772903841916231200,2.198231201171875,-5.594720363616943,3.396772623062134,-4.912846565246582,-0.277332603931427,-1.0885610580444336,-0.264504462480545
1772903841935216600,2.217216552734375,-5.468512535095215,3.0744075775146484,-4.993576049804688,-0.4379900395870209,-0.5870410799980164,-0.2950477004051208
1772903841954202400,2.236202392578125,-5.674553394317627,2.9645681381225586,-5.894883632659912,-0.462424635887146,-0.2003636509180069,-0.305432379245758
1772903841973188000,2.25518798828125,-5.313440322875977,3.514179944992065,-6.955839157104492,-0.3720166385173797,-0.3365865051746368,-0.152716189622879
1772903841992173800,2.274173828125,-5.006689071655273,3.604154586791992,-7.116615295410156,-0.258395791053772,-0.4838049113750458,0.0616973415017128
1772903842011159600,2.29315966796875,-4.844756126403809,4.246949672698975,-6.950582981109619,-0.1447749584913253,-0.3170388340950012,0.2199113219976425
1772903842030145300,2.312145263671875,-4.1174421310424805,4.968026638031006,-6.22857666015625,0.0042760535143315,0.0616973415017128,0.3622428178787231
1772903842049131000,2.331131103515625,-3.2125167846679688,5.607621669769287,-3.0651636123657227,0.0189368072897195,0.2791652083396911,0.3622428178787231
1772903842068116500,2.350116455078125,-2.063595771789551,4.188562870025635,2.1483325958251958,-0.318871408700943,-0.0788015574216842,-0.0384844802320003
1772903842087102200,2.369102294921875,1.787954330444336,-0.2866621017456054,7.424600124359131,-0.5253437161445618,-0.932179629802704,-0.9920443892478944
1772903842106088000,2.388087890625,8.12751293182373,-5.611721038818359,12.184141159057615,-0.347582072019577,-0.4648680984973907,-2.4287984371185303
1772903842125073700,2.40707373046875,22.58866500854492,-9.547674179077148,18.85650634765625,-0.6322450637817383,1.331074357032776,-2.4190244674682617
1772903842144059400,2.426059326171875,29.86115837097168,-8.986753463745117,18.42055892944336,-1.1820234060287476,2.6138904094696045,-0.6236929297447205
1772903842163044900,2.445044921875,23.296255111694336,-9.124974250793455,13.190587997436523,-1.0708459615707395,1.2803726196289062,0.6414080262184143
1772903842182030600,2.464030517578125,16.343210220336914,-10.02165699005127,11.274927139282228,-0.7128791809082031,0.4746419191360473,0.7898481488227844
1772903842201016300,2.483016357421875,13.483259201049805,-8.173722267150879,10.906780242919922,-0.6774490475654602,0.7055488228797913,0.8442151546478271
1772903842220002000,2.502001953125,8.865263938903809,-5.350775241851807,9.564489364624023,-1.0506874322891235,1.2479966878890991,1.0372483730316162
1772903842238987800,2.52098779296875,1.8931188583374023,-3.0257718563079834,5.4178972244262695,-1.5118902921676636,1.4459168910980225,1.2119556665420532
1772903842257973500,2.539973388671875,-6.093784332275391,-0.2319688647985458,-1.7075443267822266,-1.6365067958831787,0.9285144805908204,1.1129956245422363
1772903842276959200,2.558959228515625,-10.958073616027832,0.8681941032409668,-6.067543983459473,-1.5919135808944702,-0.0299323741346597,0.7006618976593018
1772903842295944700,2.57794482421875,-11.793937683105469,-0.3217935264110565,-7.8788251876831055,-1.5265511274337769,-0.6194168925285339,0.4086685478687286
1772903842314930400,2.596930419921875,-11.592181205749512,-1.2730695009231567,-9.601141929626465,-1.3249657154083252,-0.8148936033248901,0.2797760665416717
1772903842333916200,2.615916259765625,-11.246341705322266,-1.559953689575195,-10.735462188720703,-1.0097594261169434,-0.943175196647644,0.3316995799541473
1772903842352902000,2.63490185546875,-11.252543449401855,-1.3869248628616333,-12.516036987304688,-0.4410443603992462,-1.127045512199402,0.3714057803153991
1772903842371887600,2.6538876953125,-11.428796768188477,-0.9702742099761964,-12.024171829223633,0.1954767256975174,-1.6035200357437134,0.2003636509180069
1772903842390873000,2.672873046875,-10.910483360290527,-1.1274783611297607,-9.919631958007812,0.544891357421875,-2.05617094039917,-0.1154534444212913
1772903842409858800,2.69185888671875,-9.219032287597656,-0.8522191047668457,-8.087442398071289,0.6542361974716187,-2.267529964447021,-0.4630354940891266
1772903842428844500,2.710844482421875,-6.984152317047119,-0.76186203956604,-7.1497979164123535,0.6139190793037415,-2.232710838317871,-0.6126973628997803
1772903842447830300,2.729830322265625,-4.722097873687744,-0.5237683057785034,-7.234271049499512,0.618806004524231,-1.8912373781204224,-0.4923570156097412
1772903842466816000,2.74881591796875,-3.199920415878296,-0.105527251958847,-7.086949348449707,0.676227331161499,-1.6328415870666504,-0.1117882579565048
1772903842485801700,2.7678017578125,-2.3734893798828125,0.4400271773338318,-6.317926406860352,0.5302306413650513,-1.6927063465118408,0.4538725316524505
1772903842504787500,2.786787353515625,-2.624126434326172,1.13911771774292,-6.1969804763793945,0.2742782831192016,-1.8264856338500977,1.0024291276931765
1772903842523773000,2.80577294921875,-3.171936511993408,1.025285243988037,-6.909398555755615,0.1673769503831863,-2.0048582553863525,1.3927717208862305
1772903842542758700,2.824758544921875,-3.7705283164978023,1.1251544952392578,-7.068835258483887,0.2858847081661224,-1.9230023622512815,1.5387684106826782
1772903842561744400,2.843744384765625,-4.056628227233887,1.2932305335998535,-4.861882209777832,0.3048215210437774,-1.6444480419158936,1.4208714962005615
1772903842580730000,2.862730224609375,-2.9679489135742188,1.1474804878234863,-1.0781450271606443,0.2755000293254852,-1.3939933776855469,1.163697361946106
1772903842599715600,2.881715576171875,-1.5933876037597656,0.157632827758789,5.26099967956543,0.3921751976013183,-1.6377284526824951,0.7800742983818054
1772903842618701300,2.900701416015625,-1.2032899856567385,-3.2225115299224854,14.212888717651367,0.4324922561645508,-1.8576397895812988,-0.1881463527679443
1772903842637687000,2.91968701171875,1.1321709156036377,-5.259405136108398,20.50334930419922,0.6579013466835022,-1.238833785057068,-1.4758492708206177
1772903842656672800,2.9386728515625,6.015560626983643,-4.456474781036377,25.59075927734375,0.7819069027900696,-0.3518581092357635,-2.3377795219421387
1772903842675658500,2.957658447265625,10.711196899414062,-4.517751693725586,26.869953155517575,0.5821541547775269,0.057421289384365,-2.302349328994751
1772903842694644200,2.976644287109375,15.564126968383787,-2.906069755554199,23.1223258972168,0.5534434914588928,-0.5009090900421143,-1.1410953998565674
1772903842713630000,2.9956298828125,15.720270156860352,0.4908373355865478,19.55126190185547,0.5687150955200195,-1.666439175605774,0.448985606431961
1772903842732615700,3.01461572265625,8.174541473388672,1.3346935510635376,18.4008903503418,-0.0280997790396213,-2.5772385597229004,1.0219768285751345
1772903842751601200,3.03360107421875,0.578437089920044,1.063206434249878,13.610562324523926,-0.9034690260887146,-2.230267286300659,0.3011563420295715
1772903842770587000,3.0525869140625,-4.133542060852051,1.14720618724823,3.2649316787719727,-1.543655276298523,-0.9602794051170348,-1.1618647575378418
1772903842789572600,3.071572509765625,-3.52447772026062,1.9077885150909424,-8.81678581237793,-1.4373648166656494,0.0494800470769405,-2.35305118560791
1772903842808558300,3.090558349609375,1.0388617515563965,1.6631801128387451,-15.703107833862305,-0.8032872080802917,0.1649334877729416,-2.3646576404571533
1772903842827544000,3.1095439453125,3.996565341949463,1.120995283126831,-17.102588653564453,-0.0464257225394248,-0.4251618981361389,-1.4184280633926392
1772903842846529500,3.128529541015625,4.237616539001465,1.1587867736816406,-15.810779571533203,0.4557051360607147,-1.071456789970398,-0.2199113219976425
1772903842865515300,3.147515380859375,1.577580809593201,1.290421485900879,-15.054637908935549,0.8503237962722778,-1.473405838012695,0.5094612240791321
1772903842884501000,3.1665009765625,-0.9113524556159972,1.482127666473389,-14.211923599243164,1.349400281906128,-1.5008947849273682,0.5827649831771851
1772903842903486700,3.18548681640625,-1.98511004447937,1.7081972360610962,-10.645312309265137,1.5131120681762695,-1.2339468002319336,0.3176496922969818
1772903842922472400,3.204472412109375,-1.7413371801376345,2.326921224594116,-7.516385555267334,1.2999202013015747,-0.5503891706466675,-0.0464257225394248
1772903842941458200,3.223458251953125,-1.204107642173767,2.3661911487579346,-6.528776168823242,1.122769474983215,0.254730612039566,-0.3878991305828094
1772903842960444000,3.24244384765625,-0.6009771823883057,2.6272518634796143,-5.746246337890625,0.7177661061286926,0.490524411201477,-0.5241219997406006
1772903842979429400,3.261429443359375,-0.0023263692855834,3.001957893371582,-6.272333145141602,0.2730565667152405,0.1447749584913253,-0.4239401519298553
1772903842998415000,3.2804150390625,1.9402401447296145,3.074368953704834,-8.01734447479248,0.0616973415017128,0.2974911332130432,-0.0561995580792427
1772903843017400800,3.29940087890625,1.8453831672668457,3.436351776123047,-8.999457359313965,0.0311541035771369,0.638353705406189,0.4159989058971405
1772903843036386600,3.318386474609375,1.0726258754730225,2.6297826766967773,-8.94509220123291,-0.013439024798572,0.7959567904472351,0.8662062287330627
1772903843055372300,3.337372314453125,0.6304577589035034,2.569627285003662,-8.461548805236816,-0.1215620934963226,0.3817904889583587,1.3280199766159058
1772903843074357800,3.356357666015625,-0.0886827707290649,2.3949244022369385,-7.001759052276611,-0.3927860558032989,-0.4269944727420807,1.7537927627563477
1772903843093343500,3.375343505859375,-1.1517629623413086,1.8117287158966064,-5.99436092376709,-0.5876519083976746,-0.6866120100021362,1.8600832223892207
1772903843112329200,3.3943291015625,-1.8300158977508545,1.0679928064346311,-4.439336776733398,-0.4789179861545563,-0.3164279460906982,1.6187916994094849
1772903843131315000,3.41331494140625,-1.5879321098327637,-0.7181787490844727,-0.5785531997680664,0.0042760535143315,0.0109955659136176,1.238833785057068
1772903843150300700,3.43230078125,0.0893369913101196,-2.612940788269043,6.927127838134766,0.831997811794281,-0.3500255048274994,0.832608699798584
1772903843169286400,3.451286376953125,3.477030038833618,-3.8094539642333984,19.63079833984375,1.3823870420455933,0.2028071135282516,0.6939423680305481
1772903843188272000,3.470272216796875,6.092925071716309,-2.197913646697998,31.965137481689453,0.2028071135282516,1.3683371543884275,0.9126319885253906
1772903843207257600,3.489257568359375,6.276279449462891,-1.3422935009002686,29.29354858398437,-0.8533781170845032,1.3616175651550293,1.191797137260437
1772903843226243300,3.508243408203125,9.919615745544434,-1.9861406087875368,23.85125732421875,-0.6579013466835022,0.915075421333313,2.0580034255981445
1772903843245229000,3.52722900390625,10.006778717041016,-5.012295722961426,26.89661026000977,-1.0934479236602783,0.6346884965896606,3.194211959838867
1772903843264214800,3.54621484375,2.568650722503662,-6.8541789054870605,20.194976806640625,-1.8081597089767456,0.5308414697647095,3.361588954925537
1772903843283200500,3.565200439453125,-4.780501365661621,-5.722797393798828,8.5250244140625,-1.7043126821517944,0.2522871494293213,2.398865938186645
1772903843302186000,3.58418603515625,-8.951447486877441,-4.581009864807129,1.306492805480957,-1.3750566244125366,0.1576031148433685,0.6841685771942139
1772903843321171700,3.603171630859375,-7.615598201751709,-3.3666694164276123,-3.15786075592041,-1.1899645328521729,0.4935787320137024,-0.7715222239494324
1772903843340157400,3.622157470703125,-3.721339464187622,-2.6327219009399414,-7.090123176574707,-1.119104266166687,0.9016364216804504,-1.2143992185592651
1772903843359143200,3.64114306640625,-0.5299997329711914,-2.4588046073913574,-11.94540786743164,-0.9486730098724364,0.8998038172721863,-0.6010909676551819
1772903843378129000,3.66012890625,0.4929220676422119,-2.5832884311676025,-15.327526092529297,-0.7018836140632629,0.1276707351207733,0.5754346251487732
1772903843397114600,3.679114501953125,-2.050908088684082,-2.7365427017211914,-17.661792755126953,-0.3463603258132934,-0.6145299673080444,1.2980875968933103
1772903843416100400,3.698100341796875,-4.620537281036377,-2.146514654159546,-18.18439292907715,0.0946840420365333,-0.7611374855041504,1.2877029180526731
1772903843435086000,3.717086181640625,-5.470881938934326,-1.1682729721069336,-16.347640991210938,0.490524411201477,-0.4080576598644256,0.8692606091499329
1772903843454071600,3.736071533203125,-4.918970108032227,-0.6844228506088257,-13.017340660095217,0.5913171172142029,-0.1618791669607162,0.4862483739852905
1772903843473057300,3.755057373046875,-4.1371026039123535,-0.5340512990951538,-10.732132911682127,0.5051851868629456,-0.2541197538375854,0.2632827162742615
1772903843492043000,3.77404296875,-2.929756164550781,-0.2916572093963623,-9.441937446594238,0.3408625423908233,-0.471587598323822,0.2235765159130096
1772903843511028700,3.79302880859375,-1.7929331064224243,-0.0615113973617553,-9.244869232177734,0.2730565667152405,-0.5925388336181641,0.2803869247436523
1772903843530014500,3.812014404296875,-1.1688281297683716,-0.0033172369003295,-9.38818359375,0.3213148713111877,-0.5338957905769348,0.3359756171703338
1772903843549000200,3.831000244140625,-0.7667949199676514,0.5697329044342041,-8.768190383911133,0.3970620930194855,-0.277332603931427,0.3646862804889679
1772903843567986000,3.84998583984375,-0.5547009706497192,0.7346279621124268,-7.1713409423828125,0.2620609998703003,-0.215024396777153,0.4361574649810791
1772903843586971400,3.868971435546875,0.1000717878341674,0.9928467273712158,-5.7209248542785645,-0.0494800470769405,-0.2981020212173462,0.6218603253364563
1772903843605957000,3.88795703125,0.0161070823669433,0.759894609451294,-4.544351100921631,-0.2486219704151153,-0.1826485693454742,0.7177661061286926
1772903843624942800,3.90694287109375,-0.9874873161315918,-0.7982426881790161,-2.2286863327026367,-0.0757472291588783,0.0384844802320003,0.5241219997406006
1772903843643928600,3.925928466796875,-1.5275211334228516,-4.1625165939331055,3.43896484375,0.7672461867332458,-0.2223547846078872,0.0152716198936104
1772903843662914300,3.944914306640625,-0.4107162952423095,-8.740270614624023,11.58100700378418,2.309679746627808,-0.4618137776851654,-0.6536253094673157
1772903843681899800,3.963899658203125,5.936823844909668,-7.425641059875488,20.576229095458984,3.713447093963623,0.0623082071542739,-0.490524411201477
1772903843700885500,3.982885498046875,14.640935897827148,-2.157533407211304,33.800411224365234,3.146564483642578,0.5772672295570374,1.0219768285751345
1772903843719871200,4.001871337890625,15.422091484069824,-1.3049074411392212,37.65582656860352,0.9511164426803588,-0.2260199636220932,2.9743006229400635
1772903843738857000,4.02085693359375,10.402198791503906,-1.531449317932129,24.892127990722656,0.3555232882499695,-0.8032872080802917,3.937023401260376
1772903843757842700,4.0398427734375,3.878919124603272,-1.4863550662994385,17.49066162109375,0.5033525824546814,-0.5027416944503784,3.723220825195313
1772903843776828400,4.058828369140625,-1.5515155792236328,-0.5757409334182739,13.953243255615234,-0.0213802680373191,0.0800232887268066,2.776991367340088
1772903843795814100,4.077814208984375,-4.15963077545166,1.134567379951477,5.930105209350586,-0.5534434914588928,0.6609556674957275,1.5790854692459106
1772903843814799600,4.096799560546875,-4.037720680236816,1.2208292484283447,-3.127157211303711,-0.6817250847816467,0.8808670043945312,0.6273581385612488
1772903843833785300,4.115785400390625,-2.0042195320129395,0.8293745517730713,-9.8106050491333,-0.500298261642456,0.908355951309204,0.3720166385173797
1772903843852771000,4.13477099609375,-0.3167898654937744,0.9432939291000366,-14.366662979125977,-0.1918115466833114,0.583375871181488,0.7721330523490906
1772903843871756800,4.1537568359375,-0.4858345985412597,1.0722137689590454,-16.22102928161621,0.1172860413789749,-0.0702494531869888,1.3542872667312622
1772903843890742500,4.172742431640625,-2.94031834602356,0.7891920804977417,-16.085430145263672,0.3255909383296966,-0.4935787320137024,1.4721840620040894
1772903843909728300,4.191728271484375,-4.493673801422119,0.676762044429779,-15.854240417480469,0.5974257588386536,-0.2791652083396911,1.166140913963318
1772903843928713700,4.210713623046875,-4.423622131347656,1.1233839988708496,-15.26688003540039,0.9596685767173768,0.0360410213470459,0.7984002828598022
1772903843947699500,4.229699462890625,-3.491610288619995,1.3403534889221191,-13.727294921875,1.227838158607483,-0.0128281600773334,0.6340776681900024
1772903843966685200,4.248685302734375,-2.237318992614746,1.6886287927627563,-11.265356063842772,1.2498292922973633,-0.3634645342826843,0.6957749724388123
1772903843985671000,4.2676708984375,-1.0993943214416504,2.103386402130127,-8.93580150604248,0.9602794051170348,-0.7098248600959778,0.908355951309204
1772903844004656600,4.28665673828125,-0.8541646003723145,2.437355756759644,-8.329358100891113,0.6261364221572876,-0.6933315396308899,1.0213658809661863
1772903844023642400,4.305642333984375,-0.9463520050048828,2.3456687927246094,-8.618431091308594,0.3707949221134186,-0.2602283954620361,0.9547816514968872
1772903844042628000,4.324628173828125,-0.2511029243469238,2.391758441925049,-9.411983489990234,0.2510654330253601,0.0488691814243793,0.9303470849990844
1772903844061613600,4.343613525390625,1.0671199560165403,2.2050676345825195,-8.881233215332031,0.1429423540830612,-0.0580321550369262,1.2021819353103638
1772903844080599300,4.362599365234375,2.3891849517822266,2.1591691970825195,-7.526916980743408,-0.0500909127295017,-0.3207040131092071,1.7580687999725342
1772903844099585000,4.3815849609375,1.7451093196868896,1.684609293937683,-6.048036575317383,-0.2834412455558777,-0.2455676347017288,2.1532983779907227
1772903844118570800,4.40057080078125,0.522435188293457,1.0651822090148926,-4.418369293212891,-0.3695732057094574,-0.0910188555717468,2.232100009918213
1772903844137556500,4.419556396484375,0.8547084331512451,-0.2189851552248001,-0.4572296142578125,-0.0513126403093338,-0.3842339515686035,2.296851634979248
1772903844156542000,4.4385419921875,0.8578661680221558,-3.2615933418273926,5.623979568481445,1.0934479236602783,-0.9541707634925842,2.1532983779907227
1772903844175527700,4.457527587890625,4.1698102951049805,-4.033743381500244,16.15991973876953,2.466671943664551,-1.0665699243545532,2.0378448963165283
1772903844194513400,4.476513427734375,9.859082221984863,-1.6031752824783323,33.64320373535156,2.342055559158325,-0.4214966893196106,2.193615436553955
1772903844213499100,4.4954990234375,10.995306015014648,-1.2151751518249512,45.46933364868164,-0.0378736145794391,0.6823359727859497,2.388481378555298
1772903844232484900,4.51448486328125,13.022699356079102,-2.55301833152771,36.80443572998047,-1.6065744161605835,1.4569125175476074,3.1807730197906494
1772903844251470600,4.533470703125,8.871687889099121,-6.838795185089111,24.196298599243164,-2.1551308631896973,1.119104266166687,4.122115612030029
1772903844270456300,4.552456298828125,1.786235809326172,-10.798491477966309,11.289348602294922,-1.7678426504135132,0.5302306413650513,4.5558295249938965
1772903844289442000,4.571442138671875,-5.3331074714660645,-9.749479293823242,2.277196884155273,-0.7929024696350098,-0.5968148708343506,3.906480312347412
1772903844308427500,4.590427490234375,-9.999327659606934,-7.270945072174072,0.1452932357788086,-0.2174678593873977,-0.8393282294273376,1.8674136400222776
1772903844327413200,4.609413330078125,-8.254483222961426,-4.792288780212402,-0.2707643508911133,-0.3762927055358886,0.3756818473339081,-0.2999345958232879
1772903844346399000,4.62839892578125,-2.6330771446228027,-3.082252025604248,-5.223818778991699,-0.7086031436920166,1.50028395652771,-1.1685843467712402
1772903844365384400,4.647384521484375,1.950578451156616,-2.73775315284729,-11.509678840637209,-0.7055488228797913,1.461799383163452,-0.4575377106666565
1772903844384370400,4.666370361328125,2.8935134410858154,-2.408167839050293,-15.289874076843262,-0.3359756171703338,0.3426951467990875,0.9560033679008484
1772903844403356000,4.68535595703125,-0.748225212097168,-2.994380474090576,-15.783262252807615,-0.0054977829568088,-0.6579013466835022,1.6957606077194214
1772903844422341600,4.704341552734375,-4.07221794128418,-2.489957332611084,-15.321816444396973,0.4221075773239136,-0.7935133576393127,1.4025455713272097
1772903844441327400,4.723327392578125,-4.773743629455566,-1.4696520566940308,-13.273200035095217,0.7837395071983337,-0.370184063911438,0.6035344004631042
1772903844460313000,4.74231298828125,-3.49514102935791,-1.3017754554748535,-11.1764497756958,0.9553925395011902,0.2015853822231292,-0.0946840420365333
1772903844479298800,4.761298828125,-1.3670320510864258,-0.538780689239502,-10.46970272064209,1.1441497802734375,0.4654789566993713,-0.3762927055358886
1772903844498284500,4.780284423828125,0.4193449020385742,0.1649000644683838,-9.809581756591797,1.29503333568573,0.3824013471603393,-0.2315177470445633
1772903844517270300,4.799270263671875,1.6908209323883057,0.5927829742431641,-8.73292064666748,1.156977891921997,-0.0452039949595928,0.2467893660068512
1772903844536255700,4.818255859375,2.657238721847534,0.3182324767112732,-8.741043090820312,0.9547816514968872,-0.1869246214628219,0.9645555019378662
1772903844555241500,4.837241455078125,2.4847707748413086,0.3614507019519806,-9.962947845458984,0.9657772183418274,0.0806341543793678,1.6988149881362915
1772903844574227200,4.856227294921875,1.7039103507995603,0.4447357058525085,-10.75457000732422,1.1429280042648315,0.3445277214050293,2.324951410293579
1772903844593213000,4.875212890625,0.9456534385681152,0.3265131115913391,-10.358747482299805,1.3750566244125366,0.5369501113891602,2.807534456253052
1772903844612198400,4.894198486328125,0.0980749130249023,0.0598703920841217,-9.606420516967772,1.563202977180481,0.4734202027320862,3.1477861404418945
1772903844631184100,4.91318408203125,-0.9745444059371948,0.4242889285087585,-7.855072021484375,1.5595377683639526,0.2217439115047454,3.341430425643921
1772903844650169900,4.932169921875,-1.6265289783477783,0.3617291450500488,-5.794998645782471,1.2932007312774658,0.0629190728068351,3.333489179611206
1772903844669155600,4.951155517578125,-2.3952906131744385,-0.2809881567955017,-3.512680053710937,1.2705987691879272,0.7367029190063477,2.967581033706665
1772903844688141300,4.970141357421875,-0.1564357280731201,-3.5490050315856934,1.8177690505981443,1.711643099784851,1.7024801969528198,2.6059491634368896
1772903844707127000,4.989126953125,0.5522007942199707,-8.03227710723877,8.97529411315918,2.775158643722534,-0.047036588191986,2.324951410293579
1772903844726112800,5.00811279296875,4.437087059020996,-10.342308044433594,21.310619354248047,3.0250024795532227,-1.9596542119979856,2.061668634414673
1772903844745098500,5.027098388671875,10.248851776123049,-7.492097854614258,32.08937454223633,1.7556253671646118,-1.6346741914749146,2.098320484161377
1772903844764084200,5.046084228515625,12.32639503479004,-5.247156143188477,33.18309783935547,0.0946840420365333,-0.3597993552684784,2.515541076660156
1772903844783069700,5.065069580078125,8.663814544677734,-5.632959842681885,25.31891250610352,-0.7715222239494324,-0.1215620934963226,2.858236312866211
1772903844802055400,5.084055419921875,2.707047700881958,-6.318893432617188,17.860347747802734,-0.8271108865737915,-0.3005454838275909,2.307236194610596
1772903844821041200,5.103041259765625,-0.2801432609558105,-7.260065078735352,14.902789115905762,-0.7049379348754883,-0.0232128612697124,1.2620465755462646
1772903844840027000,5.12202685546875,-1.0543895959854126,-6.634144306182861,13.039167404174805,-1.0757328271865845,0.4440986812114715,0.3781253099441528
1772903844859012600,5.1410126953125,-3.3061535358428955,-4.8167572021484375,6.070644378662109,-1.6603304147720337,0.8191696405410767,-0.5033525824546814
1772903844877998000,5.159998046875,-4.392837047576904,-2.798635959625244,-4.026554107666016,-1.5039490461349487,1.056185245513916,-1.2217295169830322
1772903844896983800,5.17898388671875,-2.284584045410156,-0.8370317220687866,-10.555112838745115,-0.739757239818573,0.9297361969947816,-1.1600322723388672
1772903844915969500,5.197969482421875,-0.1774828433990478,0.7301192879676819,-12.521952629089355,-0.0977383628487587,0.2693913578987121,-0.3176496922969818
1772903844934955300,5.216955322265625,-1.1746535301208496,1.7695614099502563,-11.920835494995115,-0.0934623107314109,-0.5540543794631958,0.5229002237319946
1772903844953941000,5.23594091796875,-4.634003639221191,1.3546020984649658,-12.102453231811523,-0.5021308660507202,-0.8985821008682251,0.6096430420875549
1772903844972926700,5.2549267578125,-7.049539089202881,0.3966872096061706,-13.463869094848633,-0.6976075768470764,-0.8588758707046509,0.0641408041119575
1772903844991912400,5.273912353515625,-5.978030204772949,0.3437312841415405,-16.31985855102539,-0.3597993552684784,-0.3127627670764923,-0.4483747482299804
1772903845010898000,5.29289794921875,-4.283759117126465,0.3427956998348236,-16.22332763671875,0.2913824915885925,-0.0977383628487587,-0.6261364221572876
1772903845029883600,5.311883544921875,-2.553678274154663,0.6227924227714539,-13.697731018066406,0.729983389377594,-0.2559523284435272,-0.4770853817462921
1772903845048869400,5.330869384765625,-1.1215866804122925,1.0999977588653564,-10.486513137817385,0.8051197528839111,-0.5338957905769348,-0.1288924664258957
1772903845067855000,5.349855224609375,-0.4577846527099609,1.4226491451263428,-8.357378005981445,0.7086031436920166,-0.6035344004631042,0.1991419196128845
1772903845086840800,5.3688408203125,-0.3038341999053955,1.6534157991409302,-6.847133159637451,0.4838049113750458,-0.4257727563381195,0.4331031143665313
1772903845105826300,5.387826416015625,-0.6250176429748535,1.5995244979858398,-6.597913265228272,0.2742782831192016,-0.0543669648468494,0.5607738494873047
1772903845124812000,5.40681201171875,-1.1080262660980225,2.020438432693481,-7.311269760131836,0.2180787324905395,0.2480110973119735,0.6298015713691711
1772903845143797800,5.4257978515625,-1.4583978652954102,2.462879180908203,-7.273864269256592,0.173485592007637,0.1563813835382461,0.7116574645042419
1772903845162783500,5.444783447265625,-1.6288573741912842,2.729913711547852,-5.598824501037598,-0.0977383628487587,-0.1496618688106537,0.8173370957374573
1772903845181769200,5.463769287109375,-2.755580186843872,2.36585545539856,-4.321959495544434,-0.4166097939014435,0.0647516697645187,0.6817250847816467
1772903845200755000,5.4827548828125,-3.3472530841827397,1.5580116510391235,-2.669682025909424,-0.481361448764801,0.4856374859809875,0.3237583339214325
1772903845219740700,5.50174072265625,-1.6629709005355835,-0.9806840419769288,1.4231996536254885,0.1307250559329986,0.3683514595031738,0.0849102064967155
1772903845238726400,5.520726318359375,0.1205904483795166,-5.93256139755249,12.280052185058594,1.6352850198745728,-0.831997811794281,-0.3457494676113128
1772903845257711900,5.5397119140625,5.508718967437744,-9.926626205444336,30.2923583984375,2.6309945583343506,-1.1575887203216553,-0.6462949514389038
1772903845276697600,5.558697509765625,9.045872688293455,-7.796741485595703,44.52531051635742,0.8533781170845032,0.5962040424346924,-0.7244856357574463
1772903845295683300,5.577683349609375,8.633308410644531,-4.40619707107544,36.56259536743164,-1.1936297416687012,2.3060145378112797,-0.6432406306266785
1772903845314669000,5.5966689453125,8.497706413269043,-3.330892562866211,19.390535354614254,-1.1924080848693848,2.176511287689209,0.0659733936190605
1772903845333654800,5.61565478515625,5.571382522583008,-1.8780336380004885,10.158177375793455,-0.4294379353523254,0.924849271774292,0.90652334690094
1772903845352640300,5.63464013671875,-0.0857536792755127,-1.0087575912475586,8.211200714111328,-0.4386008977890014,-0.2492328286170959,0.9657772183418274
1772903845371626000,5.6536259765625,-5.831708908081055,0.701179027557373,3.274221420288086,-0.934012234210968,-0.3097084462642669,-0.1496618688106537
1772903845390611700,5.67261181640625,-7.76862907409668,1.642716646194458,-4.256869316101074,-1.2235621213912964,0.1985310465097427,-1.7440189123153689
1772903845409597400,5.691597412109375,-5.884296417236328,0.822060227394104,-9.584949493408203,-1.3280199766159058,0.5925388336181641,-2.8038692474365234
1772903845428583200,5.710583251953125,-1.751342535018921,0.4167267680168152,-14.173619270324709,-1.1136064529418943,0.398283839225769,-2.68475079536438
1772903845447569000,5.72956884765625,1.125194072723389,0.8530154824256897,-17.16905403137207,-0.5112938284873962,-0.3744601011276245,-1.7104213237762451
1772903845466554600,5.7485546875,1.8571360111236568,1.8079833984375,-17.441930770874023,0.0904079899191856,-1.342680811882019,-0.4893026947975158
1772903845485540000,5.7675400390625,0.2729330062866211,2.072512149810791,-15.934133529663086,0.4819723069667816,-1.9840887784957888,0.3390299379825592
1772903845504525800,5.78652587890625,-1.661172866821289,2.0855932235717773,-14.665204048156738,0.8283326625823975,-2.1917827129364014,0.5943714380264282
1772903845523511600,5.805511474609375,-2.591066598892212,2.049321413040161,-12.954530715942385,1.1704169511795044,-2.0341796875,0.4636463820934295
1772903845542497300,5.824497314453125,-2.4203338623046875,2.273876428604126,-10.88481330871582,1.36772620677948,-1.720195174217224,0.1997527778148651
1772903845561483000,5.84348291015625,-1.4242945909500122,2.82242202758789,-9.01744556427002,1.3665045499801636,-1.5589269399642944,0.002443459117785
1772903845580468700,5.86246875,-0.0741592645645141,3.628324031829834,-7.393552303314209,1.138651967048645,-1.5320488214492798,0.0164933484047651
1772903845599454500,5.881454345703125,1.263264775276184,4.206534385681152,-6.504098892211914,0.832608699798584,-1.4135410785675049,0.2797760665416717
1772903845618440000,5.90043994140625,1.785292387008667,4.648534297943115,-5.975740909576416,0.5149590373039246,-1.148425817489624,0.62857985496521
1772903845637425700,5.91942578125,1.4697716236114502,4.9656267166137695,-5.093745231628418,0.1502727419137954,-0.9877683520317078,0.8949168920516968
1772903845656411400,5.938411376953125,0.8183591365814209,4.945760250091553,-3.540738105773926,-0.3365865051746368,-0.7947350740432739,1.0262528657913208
1772903845675397000,5.957397216796875,-0.8888936042785645,3.95065188407898,-2.026102066040039,-0.9016364216804504,-0.5668824911117554,0.8503237962722778
1772903845694382800,5.9763828125,-2.6338045597076416,2.451413869857788,-1.036907196044922,-1.0891718864440918,-0.1203403621912002,0.3298669755458832
1772903845713368300,5.995368408203125,-3.8408219814300537,0.2932935357093811,2.3686676025390625,-0.4593703150749206,0.185092031955719,-0.5210676789283752
1772903845732354000,6.01435400390625,-3.6221964359283447,-4.034255504608154,13.372529983520508,0.3543015718460083,0.4392117857933044,-1.4691298007965088
1772903845751339800,6.03333984375,-2.5964221954345703,-9.198508262634276,27.83798217773437,0.1893680840730667,1.3817760944366455,-2.224769592285156
1772903845770325500,6.052325439453125,-1.244030237197876,-14.85086727142334,36.27333450317383,-1.352454662322998,2.7091853618621826,-2.6145012378692627
1772903845789311200,6.071311279296875,2.725339412689209,-13.104548454284668,29.280548095703125,-2.5216498374938965,3.210094451904297,-2.173456907272339
1772903845808297000,6.090296875,7.6128668785095215,-7.435354232788086,17.719680786132812,-2.2027783393859863,2.643211841583252,-0.7171552777290344
1772903845827282700,6.10928271484375,7.858110427856445,-4.460569858551025,12.490833282470703,-1.7043126821517944,1.3597849607467651,1.1893537044525146
1772903845846268200,6.12826806640625,1.9892680644989011,-3.139472246170044,9.671456336975098,-1.8435899019241333,-0.0287106446921825,2.232710838317871
1772903845865254000,6.14725390625,-4.100129127502441,-2.5801260471343994,5.708918571472168,-2.1245877742767334,-0.8814778923988342,2.0127995014190674
1772903845884239600,6.166239501953125,-7.214048862457275,-3.0004138946533203,0.6449213027954102,-2.193615436553955,-1.063515543937683,0.9370665550231934
1772903845903225300,6.185225341796875,-7.721791744232178,-2.328618288040161,-4.971116065979004,-1.833205223083496,-0.84177166223526,-0.4630354940891266
1772903845922211000,6.204211181640625,-6.329046726226807,-1.7929872274398804,-8.128719329833984,-1.2944225072860718,-0.3622428178787231,-1.563202977180481
1772903845941196500,6.223196533203125,-4.218940734863281,-1.4749550819396973,-9.195989608764648,-0.8881973624229431,-0.1026252806186676,-2.139859437942505
1772903845960182300,6.242182373046875,-3.431386947631836,-1.5621726512908936,-8.926488876342773,-0.7342594861984253,-0.1478292793035507,-2.4746131896972656
1772903845979168000,6.26116796875,-2.7594082355499268,-1.3769166469573977,-8.058972358703613,-0.9291253089904784,-0.3933969140052795,-2.609614372253418
1772903845998153700,6.28015380859375,-2.126835584640503,-1.3542062044143677,-8.579943656921387,-1.1606431007385254,-0.4557051360607147,-2.6242752075195312
1772903846017139500,6.299139404296875,-2.1857876777648926,-1.442952036857605,-9.952300071716309,-1.314581036567688,-0.2095266133546829,-2.6480987071990967
1772903846036125200,6.318125244140625,-2.4702587127685547,-2.0848612785339355,-11.202670097351074,-1.4495820999145508,0.2211330533027649,-2.5943427085876465
1772903846055111000,6.33711083984375,-2.2384562492370605,-3.062917232513428,-12.379191398620604,-1.5399900674819946,0.526565432548523,-2.283412456512451
1772903846074096400,6.356096435546875,-1.7086690664291382,-3.0842878818511963,-13.789346694946287,-1.431867003440857,0.1777616441249847,-1.684765100479126
1772903846093082000,6.37508203125,-1.81140398979187,-2.929796934127808,-14.333110809326172,-1.1044435501098633,-0.8032872080802917,-1.0470222234725952
1772903846112067800,6.39406787109375,-2.3905580043792725,-2.637702703475952,-13.143857955932615,-0.8252783417701721,-1.700036644935608,-0.6676751971244812
1772903846131053600,6.413053466796875,-2.7535948753356934,-2.5520145893096924,-11.137051582336426,-0.6835576891899109,-1.886961340904236,-0.6902772188186646
1772903846150039300,6.432039306640625,-3.2553353309631348,-2.524863719940185,-9.250714302062988,-0.6896663308143616,-1.349400281906128,-1.1062761545181274
1772903846169024800,6.451024658203125,-2.798736095428467,-2.694131851196289,-6.929597854614258,-0.908355951309204,-0.5626064538955688,-1.6267329454421997
1772903846188010500,6.470010498046875,-1.0490018129348757,-3.0867207050323486,-3.4251480102539062,-1.3964369297027588,-0.2797760665416717,-1.8362594842910769
1772903846206996200,6.488996337890625,0.0305490493774414,-5.128995895385742,-0.0117082595825195,-1.7324124574661257,-0.5308414697647095,-1.8930699825286863
1772903846225982000,6.50798193359375,0.4713095426559448,-7.020151138305664,2.5301647186279297,-1.1716386079788208,-0.9944878816604614,-2.199113130569458
1772903846244967700,6.5269677734375,1.2981964349746704,-6.70676326751709,5.080624580383301,0.56382817029953,-0.6811142563819885,-2.9932374954223637
1772903846263953400,6.545953369140625,4.548927307128906,-3.60333251953125,18.160314559936523,1.0757328271865845,-0.5943714380264282,-3.964512348175049
1772903846282939100,6.564939208984375,7.13432502746582,-5.844232559204102,30.54589462280273,-0.0647516697645187,0.6102539300918579,-4.8575968742370605
1772903846301924600,6.583924560546875,12.54090976715088,-7.803326606750488,24.39238739013672,-0.3066541254520416,2.056781768798828,-4.515512466430664
1772903846320910300,6.602910400390625,19.705944061279297,-1.4692115783691406,14.223950386047363,0.7965676784515381,0.5870410799980164,-2.434296131134033
1772903846339896000,6.62189599609375,17.020339965820312,0.515026330947876,16.898435592651367,0.7935133576393127,-1.0793980360031128,-0.3659079968929291
1772903846358881800,6.6408818359375,7.8704833984375,-0.1285047531127929,15.473023414611816,0.1802051067352295,-1.1062761545181274,0.0861319303512573
1772903846377867500,6.659867431640625,0.223442792892456,0.2977573871612549,6.441171646118164,0.2846629917621612,-0.7519745230674744,-0.7660244107246399
1772903846396853000,6.67885302734375,-1.2442946434020996,1.495541214942932,-0.1849575042724609,0.9450078010559082,-0.5571087002754211,-1.7079778909683228
1772903846415838700,6.697838623046875,0.741274356842041,2.774893045425415,-1.1961307525634766,1.054352641105652,-0.7446441650390625,-2.0573925971984863
1772903846434824400,6.716824462890625,0.7434923648834229,3.5621323585510254,-2.959427833557129,0.5601630210876465,-0.8869756460189819,-2.199113130569458
1772903846453810200,6.73581005859375,0.4103496074676513,3.602091789245605,-6.270312309265137,-0.0091629717499017,-0.7599157691001892,-2.252258539199829
1772903846472796000,6.7547958984375,0.4891812801361084,2.761528491973877,-9.800978660583496,-0.3298669755458832,-0.4789179861545563,-1.979812741279602
1772903846491781600,6.77378173828125,1.019169807434082,3.0022568702697754,-13.411245346069336,-0.2186895906925201,-0.439822643995285,-1.2437206506729126
1772903846510767400,6.792767333984375,0.4148130416870117,3.791800975799561,-14.144061088562012,-0.0146607551723718,-1.2095122337341309,-0.3726275265216827
1772903846529752800,6.8117529296875,-2.0711629390716557,3.938107490539551,-12.588573455810549,0.0623082071542739,-2.291353702545166,0.0372627526521682
1772903846548738600,6.830738525390625,-4.970514297485352,3.845572471618652,-10.886155128479004,0.10934479534626,-2.544862747192383,-0.398283839225769
1772903846567724300,6.849724365234375,-6.592845439910889,3.599254608154297,-8.484540939331055,0.1398880332708358,-1.7146974802017212,-1.4575233459472656
1772903846586710000,6.8687099609375,-6.375287055969238,3.201995849609375,-5.577206611633301,-0.0818558782339096,-0.1056796088814735,-2.6444337368011475
1772903846605695500,6.887695556640625,-4.402335643768311,2.968238115310669,-3.5727128982543945,-0.5919279456138611,1.340237379074097,-3.378082275390625
1772903846624681200,6.90668115234375,-2.1788601875305176,3.0698604583740234,-3.3039703369140625,-1.2370011806488037,1.7421863079071045,-3.417788505554199
1772903846643667000,6.9256669921875,-1.8512136936187744,3.5606143474578857,-3.771756172180176,-1.6743803024291992,1.4288127422332764,-3.1593925952911377
1772903846662652700,6.944652587890625,-3.307605743408203,3.508855104446411,-3.9517688751220703,-1.8307617902755735,1.7134757041931152,-3.2033748626708984
1772903846681638400,6.963638427734375,-4.3346757888793945,2.7335119247436523,-2.772563934326172,-1.9553781747817995,3.110523462295532,-3.5558438301086426
1772903846700624100,6.9826240234375,-4.533981323242188,1.9233489036560056,-1.556014060974121,-2.2473714351654053,5.026195526123047,-3.948629856109619
1772903846719609900,7.00160986328125,-3.5297584533691406,1.5297733545303345,-1.3444738388061523,-2.4575090408325195,6.32061767578125,-4.05247688293457
1772903846738595300,7.02059521484375,-1.995921611785889,1.1885905265808103,-0.3120551109313965,-2.3402230739593506,6.068941593170166,-3.8771586418151855
1772903846757581000,7.0395810546875,1.7029871940612793,-0.6880677938461304,4.596702098846436,-1.9663736820220947,4.861872673034668,-3.5387396812438965
1772903846776566800,7.05856689453125,6.753129482269287,-3.3423943519592285,10.016179084777832,-1.6316198110580444,3.624260663986206,-3.2143704891204834
1772903846795552500,7.077552490234375,14.47649097442627,-3.760313510894776,15.619023323059082,-1.944993495941162,3.120908260345459,-2.842353820800781
1772903846814538200,7.096538330078125,19.970643997192383,-5.638922691345215,16.698957443237305,-2.5546364784240723,3.719555616378784,-2.213163137435913
1772903846833523700,7.115523681640625,20.762351989746094,-7.829248428344727,9.811470985412598,-2.092211961746216,3.4794857501983643,-1.3096940517425537
1772903846852509400,7.134509521484375,20.505836486816406,-6.089262008666992,3.863755226135254,-0.7690787315368652,2.114813804626465,-0.0922405794262886
1772903846871495200,7.1534951171875,16.235424041748047,-5.5532941818237305,4.28250789642334,0.0018325943965464,1.2449424266815186,1.1099413633346558
1772903846890481000,7.17248095703125,6.480748176574707,-4.200957298278809,4.425994873046875,0.0452039949595928,1.102000117301941,1.4398082494735718
1772903846909466600,7.191466552734375,-5.00463342666626,-1.8164020776748655,-2.3289809226989746,0.3591884970664978,1.412930250167847,0.5192350745201111
1772903846928452400,7.210452392578125,-7.961000919342041,-0.1857106685638427,0.8168396949768066,0.215024396777153,1.2779290676116943,-0.4960221946239471
1772903846947438000,7.22943798828125,-7.899843692779541,-1.8731141090393064,3.1993324756622314,-1.0879502296447754,0.7819069027900696,-0.6243038177490234
1772903846966423600,7.248423583984375,-8.027836799621582,-0.5550506114959717,-1.936740517616272,-1.68354332447052,0.3304778337478637,-0.5613847374916077
1772903846985409300,7.2674091796875,-8.805014610290527,-1.1934154033660889,-5.753652572631836,-1.5479313135147097,0.3695732057094574,-0.4740310609340668
1772903847004395000,7.28639501953125,-9.5892972946167,-2.220289945602417,-7.020404815673828,-1.0286962985992432,0.6029235124588013,-0.264504462480545
1772903847023380700,7.305380615234375,-10.178436279296877,-2.5951452255249023,-7.651081562042236,-0.3878991305828094,0.4935787320137024,0.1417206227779388
1772903847042366200,7.3243662109375,-11.305357933044434,-2.2025747299194336,-7.10698127746582,0.1081230640411377,-0.0751363709568977,0.5320632457733154
1772903847061352000,7.34335205078125,-12.673595428466797,-2.0222647190093994,-5.385766506195068,0.2809978127479553,-0.7336485981941223,0.66645348072052
1772903847080337700,7.362337646484375,-14.073288917541504,-2.1434803009033203,-4.677340507507324,0.3878991305828094,-0.8979712128639221,0.3543015718460083
1772903847099323400,7.381323486328125,-14.328182220458984,-2.0485095977783203,-5.113224506378174,0.6591231226921082,-0.6334667801856995,-0.2651153206825256
1772903847118309000,7.40030908203125,-12.939167022705078,-1.3593040704727173,-4.826788902282715,0.9230166673660278,-0.6157516837120056,-0.832608699798584
1772903847137294800,7.419294921875,-10.566469192504885,-0.1001361608505249,-3.03702163696289,0.8374956250190735,-1.0458004474639893,-1.074511170387268
1772903847156280600,7.438280517578125,-8.765926361083984,0.5809416174888611,-1.924309253692627,0.5778780579566956,-1.3060288429260254,-1.2229512929916382
1772903847175266000,7.45726611328125,-6.313630104064941,0.8279002904891968,-1.5536915063858032,0.3109301626682281,-0.9407317638397216,-1.2724313735961914
1772903847194251800,7.476251708984375,-1.3317289352416992,0.94671368598938,-1.6199697256088257,0.2461785078048706,-0.1404989063739776,-0.7434224486351013
1772903847213237500,7.495237548828125,0.854578971862793,1.8582329750061035,-2.0982632637023926,0.2443459182977676,0.2748891413211822,-0.0696385875344276
1772903847232223200,7.51422314453125,0.963526725769043,2.9904744625091557,-1.541032791137695,0.2724456787109375,-0.0177150778472423,0.1001818254590034
1772903847251208700,7.533208740234375,3.4048166275024414,2.083897352218628,2.4112703800201416,0.2034179717302322,-0.8185588121414185,-0.3262017965316772
1772903847270194400,7.5521943359375,10.158123970031738,-0.3378632664680481,8.029778480529785,-0.2944368124008178,-1.2895355224609375,-0.9474512934684752
1772903847289180200,7.57118017578125,18.73255729675293,-0.1585573852062225,9.610782623291016,-0.8778126835823059,-0.3903425931930542,-1.4721840620040894
1772903847308166000,7.590165771484375,27.55071830749512,-3.0434603691101074,9.39413356781006,-1.2534945011138916,1.6249003410339355,-1.278540015220642
1772903847327151600,7.609151611328125,33.41307830810547,-4.727788925170898,5.599142551422119,-0.915686309337616,2.054338216781616,0.0164933484047651
1772903847346137300,7.628137451171875,30.750741958618164,-4.1638946533203125,3.2381062507629395,-0.1685986816883087,1.773951292037964,1.516777276992798
1772903847365123000,7.647123046875,19.45476722717285,-3.990244865417481,5.851496696472168,-0.1007926911115646,2.078772783279419,2.03723406791687
1772903847384108500,7.666108642578125,9.335566520690918,-2.553480386734009,3.8662197589874263,-0.2125809490680694,2.0127995014190674,1.646891474723816
1772903847403094300,7.68509423828125,2.824106216430664,-1.970510721206665,1.506005048751831,-0.0378736145794391,1.795331597328186,0.9120211005210876
1772903847422080000,7.704080078125,0.44512939453125,-0.9371788501739502,1.2713292837142944,0.0293215103447437,0.7641918659210205,0.7073814272880554
1772903847441065700,7.723065673828125,-1.381418228149414,-0.5293410420417786,0.2940772771835327,0.1142317131161689,0.1313359290361404,0.740368127822876
1772903847460051200,7.74205126953125,-4.887228012084961,0.2479833364486694,0.6132330894470215,-0.036651886999607,0.2577849328517914,0.5974257588386536
1772903847479037000,7.761036865234375,-8.880287170410156,0.8456029891967773,-0.0169486999511718,-0.3072649836540222,0.5436696410179138,0.1740964651107788
1772903847498022700,7.780022705078125,-10.331523895263672,0.5876013040542603,-1.39666748046875,-0.3933969140052795,0.685390293598175,-0.0904079899191856
1772903847517008400,7.79900830078125,-10.875375747680664,0.1954363584518432,-2.0762884616851807,-0.3255909383296966,0.5241219997406006,-0.0219911318272352
1772903847535994000,7.817994140625,-11.568079948425291,-0.0316051244735717,-2.3469762802124023,-0.1557705253362655,0.4856374859809875,0.1337793916463852
1772903847554979800,7.836979736328125,-12.622939109802246,-0.4415490627288818,-2.14181923866272,-0.0305432397872209,0.6133082509040833,0.2260199636220932
1772903847573965600,7.855965576171875,-13.505595207214355,-0.137682557106018,-1.498093843460083,-0.0867427960038185,0.4221075773239136,0.2449567764997482
1772903847592951000,7.874950927734375,-14.021211624145508,-0.2149727344512939,-0.7480199337005615,-0.305432379245758,0.1288924664258957,0.1227838173508644
1772903847611936800,7.893936767578125,-14.267938613891602,-0.5965052247047424,-1.4829158782958984,-0.3536907136440277,0.1423314958810806,-0.2553414702415466
1772903847630922500,7.912922607421875,-12.883081436157228,-1.0285427570343018,-1.966308355331421,-0.2290742993354797,0.2791652083396911,-0.56382817029953
1772903847649908200,7.931908203125,-10.48352336883545,-0.8456346988677979,-1.8074493408203125,-0.0842993408441543,0.1985310465097427,-0.5400044918060303
1772903847668893700,7.950893798828125,-9.34792137145996,-0.7108814716339111,-1.247006058692932,-0.0195476729422807,-0.0177150778472423,-0.3200931549072265
1772903847687879400,7.96987939453125,-9.495285987854004,-0.4636322259902954,-0.9494829177856444,-0.0085521070286631,-0.2492328286170959,-0.1142317131161689
1772903847706865200,7.988865234375,-9.613277435302734,-0.0290541648864746,-0.7210928201675415,-0.0201585385948419,-0.6524035930633545,0.0256563201546669
1772903847725851000,8.007850830078125,-8.826274871826172,-0.044426679611206,-1.2138867378234863,0.1123991161584854,-0.7428115606307983,0.1533270627260208
1772903847744836600,8.026836669921876,-8.22890853881836,0.1623821258544922,-0.9120630621910096,0.3671297430992126,-0.8381064534187317,0.205861434340477
1772903847763822300,8.045822265625,-8.41707706451416,0.2600157260894775,2.5566606521606445,0.2223547846078872,-1.461799383163452,-0.4386008977890014
1772903847782808000,8.06480810546875,-4.694149971008301,-0.7194612622261047,5.659496307373047,-0.1765399277210235,-2.04700779914856,-2.268751859664917
1772903847801793500,8.08379345703125,16.33651351928711,-0.4960165917873382,6.382192134857178,-0.2596175372600555,-2.744004487991333,-3.695121049880981
1772903847820779300,8.102779296875,44.26205825805664,-7.527379989624023,12.762174606323242,-0.4612029194831848,-1.3347395658493042,-2.786154270172119
1772903847839765000,8.121764892578126,53.60392379760742,-9.919833183288574,13.04404354095459,-0.9419534802436828,1.321911334991455,-0.1007926911115646
1772903847858750700,8.140750732421875,34.907596588134766,-4.372093200683594,5.362631797790527,-0.767857015132904,2.014021158218384,1.265711784362793
1772903847877736200,8.159736083984376,17.016801834106445,-1.9431657791137693,2.694274425506592,-0.6298015713691711,1.2400555610656738,1.6994258165359497
1772903847896722000,8.178721923828125,0.972209930419922,1.4484148025512695,-0.9569107294082642,-0.4630354940891266,0.5485565662384033,1.1710277795791626
1772903847915707600,8.197707763671875,-6.782370567321777,2.157883644104004,-1.427354097366333,-0.4996874034404754,0.1814268380403518,0.2021962404251098
1772903847934693400,8.216693359375,-7.253026485443115,2.041994094848633,-0.0790735483169555,-0.9767727851867676,-0.0549778304994106,-0.3231474757194519
1772903847953679000,8.23567919921875,-7.054766178131104,1.1997863054275513,-2.4148356914520264,-1.2632683515548706,-0.0751363709568977,-0.4783071279525757
1772903847972664800,8.254664794921876,-8.3192777633667,0.7063421010971069,-5.22602653503418,-1.0622938871383667,0.0042760535143315,-0.5760455131530762
1772903847991650600,8.273650634765625,-9.117146492004396,0.6137012243270874,-5.755548477172852,-0.685390293598175,-0.006719512399286,-0.5180133581161499
1772903848010636000,8.292635986328126,-10.160740852355955,0.7018323540687561,-4.94956636428833,-0.4153880476951599,-0.2186895906925201,-0.3384190797805786
1772903848029621800,8.311621826171875,-11.50031280517578,0.6108372211456299,-3.976839542388916,-0.2626718580722809,-0.4178315103054046,-0.2577849328517914
1772903848048607500,8.330607421875,-12.50267219543457,0.5966136455535889,-3.788926124572754,-0.1215620934963226,-0.5564978122711182,-0.4050033390522003
1772903848067593200,8.34959326171875,-11.997802734375,0.6273983716964722,-3.9982290267944336,0.1325576603412628,-0.6652317643165588,-0.6212494969367981
1772903848086579000,8.368578857421875,-10.37970733642578,0.4872843623161316,-3.691640138626098,0.42088583111763,-0.7250964641571045,-0.6499601006507874
1772903848105564700,8.387564697265624,-8.929972648620605,0.3868039846420288,-3.105342388153076,0.6517927050590515,-0.7556397318840027,-0.4557051360607147
1772903848124550100,8.406550048828125,-8.365135192871094,0.8053184747695923,-2.372157573699951,0.7373138070106506,-0.8833104968070984,-0.1710421442985534
1772903848143535900,8.425535888671876,-8.467516899108887,1.222566843032837,-2.2552084922790527,0.7385355234146118,-1.0567960739135742,0.0317649692296981
1772903848162521600,8.444521484375,-8.576106071472168,1.5167081356048584,-2.027703285217285,0.6707295179367065,-1.1490366458892822,0.0836884751915931
1772903848181507300,8.46350732421875,-8.153270721435547,1.7827744483947754,-1.9812686443328855,0.6365211009979248,-0.9315688014030457,0.0256563201546669
1772903848200492800,8.482492919921874,-6.450729846954346,2.105241537094116,-1.873992681503296,0.7073814272880554,-0.7794634699821472,0.0250454563647508
1772903848219478500,8.501478515625,-3.799692153930664,1.53773033618927,0.1816627979278564,0.7703005075454712,-1.452636480331421,-0.2229656428098678
1772903848238464300,8.52046435546875,0.5736331939697266,-2.2758336067199707,6.390756607055664,0.5992583632469177,-2.558912515640259,-1.117882490158081
1772903848257450000,8.539449951171875,11.779860496520996,-5.909059047698975,9.121868133544922,0.5406153202056885,-2.213163137435913,-2.1887285709381104
1772903848276435700,8.558435791015626,31.41508102416992,-6.577293395996094,10.247187614440918,0.5082395076751709,-0.3640754222869873,-1.4508038759231567
1772903848295421400,8.57742138671875,37.474159240722656,-9.875532150268556,10.497416496276855,0.7122683525085449,0.2895499169826507,0.45875945687294
1772903848314407200,8.5964072265625,32.06438446044922,-6.92408561706543,8.420364379882812,1.3011419773101809,-0.905912458896637,1.820376992225647
1772903848333392600,8.615392578125,23.62354850769043,-6.4545769691467285,12.793183326721191,0.9511164426803588,-0.3426951467990875,2.2620322704315186
1772903848352378400,8.63437841796875,14.766615867614746,-5.139319896697998,12.46072006225586,0.1136208474636077,1.320689678192139,2.093433618545532
1772903848371364000,8.653364013671874,6.797427177429199,-3.9717626571655273,7.561545372009277,-0.3848448097705841,1.8374812602996824,1.8466442823410036
1772903848390349800,8.672349853515625,-2.229442596435547,-2.1771059036254883,1.828532695770264,-0.2700022459030151,1.6004657745361328,1.2565488815307615
1772903848409335300,8.691335205078126,-5.949315547943115,-0.7811908721923828,0.5127363204956055,-0.3995055556297302,0.934012234210968,1.0012073516845703
1772903848428321000,8.710321044921875,-8.682727813720703,-0.3240417540073395,-1.2998194694519043,-0.7086031436920166,0.4068359434604645,1.0079269409179688
1772903848447306800,8.729306640625,-12.851511001586914,-0.8347107172012329,-3.370330333709717,-0.8576541543006897,0.5283980369567871,0.7348703145980835
1772903848466292500,8.74829248046875,-16.136451721191406,-1.3902575969696045,-5.2196197509765625,-0.740368127822876,0.7867938280105591,0.2015853822231292
1772903848485278200,8.7672783203125,-16.23809814453125,-1.168027400970459,-6.7989702224731445,-0.3536907136440277,0.6902772188186646,-0.2199113219976425
1772903848504264000,8.786263916015624,-14.314417839050291,-0.3395408987998962,-7.230251312255859,0.1368337124586105,0.2559523284435272,-0.3365865051746368
1772903848523249400,8.80524951171875,-12.86612606048584,0.400333046913147,-6.563246726989746,0.5467239618301392,-0.1496618688106537,-0.3207040131092071
1772903848542235100,8.824235107421876,-11.726236343383787,0.7783424854278564,-5.089534759521484,0.7434224486351013,-0.4062250852584839,-0.3231474757194519
1772903848561220900,8.843220947265625,-10.804343223571776,0.9916917681694032,-3.923333644866944,0.7800742983818054,-0.4667007029056549,-0.3762927055358886
1772903848580206600,8.86220654296875,-10.383798599243164,1.2932674884796145,-3.1559016704559326,0.6933315396308899,-0.4251618981361389,-0.5155698657035828
1772903848599192000,8.881192138671874,-9.741888046264648,1.8194711208343504,-2.9696948528289795,0.5619956254959106,-0.3958403766155243,-0.6359102129936218
1772903848618177800,8.900177734375,-8.731940269470215,2.292607069015503,-2.9184064865112305,0.4373791813850403,-0.3512472510337829,-0.6371319890022278
1772903848637163500,8.91916357421875,-7.690406799316406,2.4794633388519287,-2.9434115886688232,0.3494146466255188,-0.3072649836540222,-0.5418370366096497
1772903848656149200,8.938149169921875,-7.185422420501709,2.939604520797729,-3.3054001331329346,0.3384190797805786,-0.4172206521034241,-0.3952295184135437
1772903848675135000,8.957135009765626,-6.840079307556152,3.347109317779541,-3.269554853439331,0.430659681558609,-0.5057960152626038,-0.2211330533027649
1772903848694120700,8.97612060546875,-6.00113582611084,4.025872230529785,-2.323108196258545,0.4734202027320862,-0.5577195286750793,-0.0109955659136176
1772903848713106200,8.995106201171875,-4.761741638183594,4.790288925170898,-0.4111115932464599,0.305432379245758,-0.5149590373039246,0.0183259434998035
1772903848732092000,9.014091796875,-2.963076591491699,3.6484882831573486,3.320624828338623,-0.1698204129934311,-0.4386008977890014,-0.4532616734504699
1772903848751077600,9.03307763671875,1.083730697631836,-1.743839144706726,6.986385345458984,-0.5601630210876465,-0.8582650423049927,-1.627343773841858
1772903848770063400,9.0520634765625,12.951455116271973,-4.217199802398682,6.762272834777832,-0.2180787324905395,-1.2907572984695437,-2.6279401779174805
1772903848789048800,9.071048828125,32.26902389526367,-5.48037576675415,12.063393592834473,-0.4349357187747955,-0.0775798261165618,-2.073275089263916
1772903848808034600,9.09003466796875,39.93109893798828,-10.41114616394043,12.383462905883787,-0.6969966888427734,2.056781768798828,-0.2241873741149902
1772903848827020300,9.109020263671876,32.65105438232422,-7.437551498413086,5.355759143829346,0.205861434340477,1.5289945602416992,1.2479966878890991
1772903848846006000,9.128006103515624,23.364931106567383,-5.717307567596436,6.466895580291748,0.7269290685653687,0.411722868680954,1.9761475324630735
1772903848864991700,9.14699169921875,15.751051902770996,-5.406003952026367,9.08190631866455,0.4612029194831848,0.5937605500221252,2.3041820526123047
1772903848883977500,9.1659775390625,5.780247688293457,-3.01177191734314,8.106651306152344,-0.0409279391169548,1.0415244102478027,1.9645410776138303
1772903848902963000,9.184962890625,-3.493262767791748,-0.0210986174643039,5.041987419128418,-0.4324922561645508,1.5515965223312378,0.8643736839294434
1772903848921948700,9.20394873046875,-6.045218467712402,0.2354041486978531,3.352759599685669,-0.9230166673660278,1.9724823236465452,0.0335975624620914
1772903848940934400,9.222934326171876,-6.836865425109863,0.7559198141098022,0.0204918384552001,-1.2272273302078247,1.875354886054993,-0.1404989063739776
1772903848959920000,9.241920166015625,-8.832974433898926,0.8781968951225281,-2.9799253940582275,-1.1856884956359863,1.412930250167847,-0.0616973415017128
1772903848978905900,9.26090576171875,-10.95725440979004,0.2972204089164734,-4.555158615112305,-0.8448259830474854,1.1801908016204834,-0.0519235059618949
1772903848997891300,9.279891357421874,-11.464553833007812,-0.0826438516378402,-4.930373191833496,-0.3836230933666229,0.9938769936561584,0.0513126403093338
1772903849016877000,9.298876953125,-11.83872413635254,0.2792446613311767,-4.631786346435547,0.0097738364711403,0.5516108870506287,0.233961209654808
1772903849035862800,9.31786279296875,-12.721389770507812,0.4149421155452728,-4.039297580718994,0.3017672002315521,0.1007926911115646,0.3017672002315521
1772903849054848500,9.3368486328125,-13.479827880859377,0.3591636717319488,-3.2512006759643555,0.4630354940891266,-0.1857028901576995,0.2046397030353546
1772903849073834200,9.355834228515626,-13.520352363586426,0.256457656621933,-2.6368072032928467,0.5485565662384033,-0.2956585586071014,-0.0048869182355701
1772903849092820000,9.374820068359377,-12.747035026550291,0.6912599205970764,-1.876355528831482,0.5161807537078857,-0.4563159942626953,-0.1930332630872726
1772903849111805400,9.393805419921875,-11.715668678283691,0.9946879148483276,-1.445014238357544,0.4031707644462585,-0.6524035930633545,-0.3097084462642669
1772903849130791200,9.412791259765624,-10.6449613571167,1.3511295318603516,-1.2218375205993652,0.2614501118659973,-0.6682860851287842,-0.3848448097705841
1772903849149777000,9.43177685546875,-9.747523307800291,1.4849026203155518,-1.2307065725326538,0.1453858166933059,-0.5051851868629456,-0.3976729810237884
1772903849168762600,9.4507626953125,-9.017913818359377,1.844093918800354,-1.5913922786712646,0.1203403621912002,-0.4758636653423309,-0.3573558926582336
1772903849187748000,9.469748046875,-8.402491569519043,2.4510281085968018,-1.2714117765426636,0.0959057733416557,-0.5699368119239807,-0.2767217457294464
1772903849206733800,9.48873388671875,-7.464959144592285,3.2769720554351807,-0.7676258087158203,-0.057421289384365,-0.6701186895370483,-0.1753181964159011
1772903849225719600,9.507719482421876,-5.827204704284668,3.863027572631836,-0.9968957901000975,-0.1240055486559867,-0.7904590368270874,-0.150883600115776
1772903849244705300,9.526705322265624,-2.5018672943115234,2.8251149654388428,0.7938213348388672,-0.1704312711954116,-1.0592395067214966,-0.3420842885971069
1772903849263691000,9.54569091796875,2.2890939712524414,-1.21064031124115,5.60002326965332,-0.5308414697647095,-1.6499457359313965,-1.050076603889465
1772903849282676700,9.5646767578125,10.583377838134766,-4.703150272369385,8.289122581481934,-0.9450078010559082,-1.8637484312057493,-2.332892656326294
1772903849301662200,9.583662109375,27.757736206054688,-8.092591285705566,9.649065017700195,-1.22234046459198,-0.0268780495971441,-2.7348415851593018
1772903849320648000,9.60264794921875,42.98427581787109,-11.217236518859863,7.03803300857544,-0.962722897529602,2.564410448074341,-1.1026109457015991
1772903849339633700,9.621633544921876,41.01617813110352,-9.2611665725708,1.2382349967956543,0.2981020212173462,2.375653028488159,0.998153030872345
1772903849358619400,9.640619384765625,30.016063690185547,-6.075798034667969,2.531946420669556,1.2290599346160889,1.204014539718628,2.279747247695923
1772903849377604900,9.65960498046875,18.28742218017578,-4.188969135284424,7.458211898803711,1.007315993309021,0.6316341757774353,2.844797372817993
1772903849396590600,9.678590576171874,6.306154251098633,-0.1170622855424881,6.900038719177246,0.4648680984973907,0.6206386089324951,2.450789451599121
1772903849415576300,9.697576416015623,-2.623661994934082,1.9463292360305784,6.733608722686768,-0.3133736252784729,1.5033382177352903,1.340237379074097
1772903849434562000,9.71656201171875,-4.117024421691895,1.9724109172821045,5.444459915161133,-1.2999202013015747,2.164294004440308,0.988990068435669
1772903849453547800,9.7355478515625,-8.91943073272705,1.492694616317749,0.8953953981399536,-1.8698570728302,2.21133041381836,0.907134175300598
1772903849472533500,9.754533447265626,-13.389713287353516,0.1537302732467651,-3.658844470977783,-1.64872407913208,1.95843243598938,0.6976075768470764
1772903849491519000,9.77351904296875,-14.469856262207031,-0.934614598751068,-6.32996129989624,-0.8142827749252319,1.2705987691879272,0.6737838387489319
1772903849510504700,9.792504638671875,-13.89979362487793,-0.8033221364021301,-5.093817710876465,-0.0891862586140632,0.258395791053772,0.8674280047416687
1772903849529490400,9.811490478515625,-14.093748092651367,-0.8424452543258667,-2.7798359394073486,0.205861434340477,-0.3775144219398498,0.9040798544883728
1772903849548476200,9.83047607421875,-15.313878059387209,-1.1617850065231323,-0.7552589178085327,0.2144135385751724,-0.4068359434604645,0.6133082509040833
1772903849567461600,9.849461669921874,-15.902562141418455,-1.4460560083389282,0.2163882553577423,0.1142317131161689,-0.1887572109699249,0.1075121983885765
1772903849586447400,9.868447265625,-15.463444709777832,-1.3265175819396973,0.3510964214801788,-0.0164933484047651,-0.1710421442985534,-0.4153880476951599
1772903849605433000,9.88743310546875,-13.757692337036133,-0.6294344067573547,-0.0552004277706146,-0.1075121983885765,-0.4086685478687286,-0.7519745230674744
1772903849624418800,9.906418701171877,-11.250234603881836,-0.6057291626930237,-0.5440361499786377,-0.0855210721492767,-0.4392117857933044,-0.7965676784515381
1772903849643404500,9.925404541015626,-9.615437507629396,-0.5446659326553345,-0.6373676061630249,-0.0568104237318038,-0.439822643995285,-0.618806004524231
1772903849662390300,9.944390380859376,-9.391403198242188,0.2101848125457763,-1.34916090965271,0.0855210721492767,-0.6585122346878052,-0.430659681558609
1772903849681375700,9.963375732421875,-9.077522277832031,0.9135046005249025,-1.6657793521881104,0.2803869247436523,-0.905912458896637,-0.2724456787109375
1772903849700361500,9.982361572265624,-8.090705871582031,1.6923983097076416,-1.731876015663147,0.4251618981361389,-1.0512982606887815,-0.078190691769123
1772903849719347200,10.00134716796875,-6.89627742767334,2.554863452911377,-1.317956805229187,0.4917461574077606,-1.1710277795791626,0.0360410213470459
1772903849738333000,10.0203330078125,-4.5426177978515625,2.7206053733825684,-1.3461451530456543,0.6884446144104004,-1.08978271484375,0.0745255053043365
1772903849757318400,10.039318359375,-0.5274419784545898,2.673560619354248,1.009128451347351,0.6878337264060974,-1.1826342344284058,-0.0653625279664993
1772903849776304000,10.05830419921875,5.701667785644531,0.347499132156372,5.124326229095459,0.1912006735801696,-1.4691298007965088,-0.6340776681900024
1772903849795289900,10.077289794921874,14.741724014282228,-2.853684663772583,6.372779846191406,-0.5387827157974243,-1.5711442232131958,-1.820376992225647
1772903849814275600,10.096275634765624,33.94235610961914,-3.7259271144866943,2.390947103500366,-0.618806004524231,0.015882484614849,-2.151465654373169
1772903849833261300,10.11526123046875,52.843505859375,-7.863337993621826,0.5915951728820801,-0.1453858166933059,2.302960157394409,0.0488691814243793
1772903849852247000,10.1342470703125,47.21979522705078,-7.155152797698975,-2.266293525695801,1.0586286783218384,2.394589900970459,2.384816169738769
1772903849871232500,10.153232421875,29.96731185913086,-4.768972873687744,3.1032440662384038,1.432477951049805,1.9871431589126587,3.4330601692199707
1772903849890218200,10.17221826171875,14.490421295166016,-3.1135034561157227,7.186672210693359,0.7886264324188232,2.0635011196136475,3.395186424255371
1772903849909204000,10.191203857421876,0.1733541488647461,-2.088547468185425,5.9800238609313965,0.2290742993354797,2.7116286754608154,2.319453477859497
1772903849928189700,10.210189697265625,-5.514801025390625,-2.961684226989746,5.166522979736328,-0.2309068888425827,3.135568857192993,1.442862629890442
1772903849947175200,10.229175048828123,-8.11312484741211,-3.2246623039245605,2.9145054817199707,-0.2852738499641418,2.4709479808807373,1.3842196464538574
1772903849966161000,10.248160888671874,-13.284339904785156,-2.976832628250122,2.443375825881958,-0.2296851575374603,1.2993093729019165,1.4483604431152344
1772903849985146600,10.267146728515623,-18.63683319091797,-2.948721408843994,1.8930577039718628,-0.1374445706605911,0.448985606431961,1.0299180746078491
1772903850004132400,10.28613232421875,-20.605609893798828,-3.1568872928619385,1.3997706174850464,0.1362228393554687,0.1441640853881836,0.2742782831192016
1772903850023118000,10.3051181640625,-19.476905822753903,-3.2050249576568604,2.230893135070801,0.2981020212173462,-0.1704312711954116,-0.2803869247436523
1772903850042103800,10.324103759765626,-17.87466812133789,-3.267439365386963,2.866110324859619,0.3158170878887176,-0.5247328281402588,-0.5375609993934631
1772903850061089300,10.34308935546875,-17.016761779785156,-3.0450339317321777,2.739217758178711,0.2950477004051208,-0.7629700899124146,-0.7342594861984253
1772903850080075000,10.362074951171875,-16.444313049316406,-2.9469354152679443,2.4258017539978027,0.2687804996967315,-0.842382550239563,-0.9706641435623168
1772903850099060700,10.381060791015624,-15.864934921264648,-2.4893925189971924,1.7275559902191162,0.2968802750110626,-0.9358448386192322,-1.2186752557754517
1772903850118046500,10.40004638671875,-14.80817699432373,-2.0505521297454834,1.0629072189331057,0.4141663312911987,-1.1056652069091797,-1.3799434900283811
1772903850137032000,10.419031982421876,-13.979379653930664,-1.7371737957000732,1.5338466167449951,0.4477638900279999,-1.2009601593017578,-1.489288330078125
1772903850156017700,10.438017578125,-13.04871940612793,-1.312713623046875,1.4892830848693848,0.4575377106666565,-1.2834268808364868,-1.546098709106445
1772903850175003400,10.45700341796875,-11.824263572692873,-0.8000261187553406,1.240534782409668,0.4844157695770263,-1.536935806274414,-1.470962405204773
1772903850193989000,10.475989013671876,-11.104164123535156,0.0152156352996826,0.7169342637062073,0.5039634704589844,-1.9541563987731931,-1.4080432653427124
1772903850212974800,10.494974853515624,-9.27769660949707,0.8384568095207214,-0.1625232696533203,0.6823359727859497,-2.248593330383301,-1.3842196464538574
1772903850231960600,10.513960693359374,-6.044535636901856,1.39959979057312,1.4820835590362549,0.6505709886550903,-2.400698661804199,-1.466075420379639
1772903850250946000,10.532946044921877,-3.627457618713379,-1.2186603546142578,6.406998634338379,0.0116064306348562,-2.431241750717163,-2.478278398513794
1772903850269931800,10.551931884765626,6.644100189208984,-5.114253044128418,2.5948259830474854,0.2467893660068512,-3.2620179653167725,-4.032929420471191
1772903850288917500,10.57091748046875,35.60810852050781,-4.45352029800415,1.4658048152923584,1.3158026933670044,-4.6981611251831055,-3.536296129226685
1772903850307903200,10.5899033203125,59.503379821777344,-12.869695663452148,17.08599281311035,-0.0128281600773334,-1.1814124584197998,-0.8399390578269958
1772903850326888700,10.608888671875,56.03205108642578,-4.864210605621338,3.977786064147949,0.5907062292098999,2.2278237342834477,1.4966187477111816
1772903850345874400,10.62787451171875,39.48735046386719,-2.9751014709472656,7.35945987701416,0.7849612236022949,2.9834635257720947,3.2931721210479736
1772903850364860200,10.646860107421874,19.87768173217773,-3.755218982696533,10.70303440093994,0.0983492285013198,2.651153087615967,4.205193042755127
1772903850383846000,10.665845947265623,1.648916244506836,-2.1620218753814697,5.447751045227051,-0.1337793916463852,2.142913579940796,3.327380418777466
1772903850402831600,10.68483154296875,-3.6860780715942383,-1.8037585020065308,3.9032139778137207,-0.2425133138895034,2.290742874145508,1.8741331100463867
1772903850421817300,10.7038173828125,-0.2818460464477539,-2.47251033782959,2.7983593940734863,-0.4618137776851654,1.860694169998169,1.5687007904052734
1772903850440802800,10.722802734375,-1.7255830764770508,-2.9039323329925537,0.4849581718444824,-0.4001164436340332,1.2437206506729126,1.6242893934249878
1772903850459788500,10.74178857421875,-5.286389350891113,-2.570760488510132,-0.5581179857254028,-0.185092031955719,0.9401208758354188,1.426369309425354
1772903850478774300,10.760774169921875,-7.177115440368652,-2.405156373977661,-0.3984554708003998,-0.0042760535143315,1.0250310897827148,1.1441497802734375
1772903850497760000,10.779760009765624,-7.160318851470947,-2.492592096328736,-0.3887733221054077,0.1655443608760833,1.1924080848693848,1.0763437747955322
1772903850516745500,10.798745361328123,-8.124228477478027,-2.7164998054504395,-0.1027729511260986,0.2803869247436523,1.2070688009262085,1.1881320476531982
1772903850535731200,10.817731201171876,-10.379796981811523,-3.0088555812835693,0.7915869355201721,0.2565632164478302,1.18446683883667,1.2547162771224976
1772903850554717000,10.836717041015625,-13.08157730102539,-3.043041706085205,0.5621041059494019,0.2907716333866119,1.0409135818481443,1.100778341293335
1772903850573702700,10.85570263671875,-14.573945999145508,-2.7330989837646484,-0.1498364061117172,0.4569268524646759,0.5161807537078857,0.7788525819778442
1772903850592688400,10.8746884765625,-15.031386375427246,-2.362926483154297,-0.0586180090904235,0.6035344004631042,-0.0287106446921825,0.2755000293254852
1772903850611674000,10.893674072265624,-14.07717514038086,-1.801525354385376,-0.2189431190490722,0.7257073521614075,-0.3255909383296966,-0.3762927055358886
1772903850630659600,10.91265966796875,-10.841205596923828,-1.5082330703735352,-0.9238603115081788,0.9034690260887146,-0.5143481492996216,-0.8637627959251404
1772903850649645300,10.931645263671877,-7.251474857330322,-0.8022024631500244,-1.2778112888336182,1.0177006721496582,-1.0830632448196411,-1.112384796142578
1772903850668631000,10.950631103515626,-4.014410018920898,-0.0046970844268798,-0.5711930990219116,0.924849271774292,-1.915671944618225,-1.3292417526245115
1772903850687616800,10.96961669921875,-0.9926471710205078,0.5964579582214355,-0.1064658761024475,0.8032872080802917,-2.36893367767334,-1.7629557847976685
1772903850706602200,10.988602294921876,2.436244010925293,-0.8643355369567871,0.0613324642181396,0.9114102721214294,-1.5711442232131958,-2.363435745239258
1772903850725588000,11.007587890625,4.972551345825195,-1.8709003925323489,0.6488885879516602,0.9883792400360109,-0.8649845123291016,-2.8179192543029785
1772903850744573700,11.02657373046875,6.5839128494262695,-0.5518097877502441,-0.3945239782333374,1.0781763792037964,-0.9266818761825562,-2.836245059967041
1772903850763559400,11.045559326171874,6.520438194274902,0.0534735172986984,-0.8875133991241455,1.0946696996688845,-1.4679080247879028,-2.486830472946167
1772903850782545200,11.064545166015623,5.0548505783081055,-0.0788004100322723,0.7990126609802246,0.8155044913291931,-1.1698060035705566,-2.0775511264801025
1772903850801531000,11.08353076171875,6.416940689086914,-0.7387914657592773,1.961146354675293,0.3610210716724396,-0.2211330533027649,-1.350011110305786
1772903850820516400,11.102516357421877,7.345560073852539,0.5694513320922852,1.2398438453674316,0.0702494531869888,0.9847140312194824,-0.0592538826167583
1772903850839502000,11.121502197265626,6.746058464050293,-0.5979596376419067,1.342627763748169,-0.0152716198936104,0.870482325553894,1.1698060035705566
1772903850858487800,11.14048779296875,4.378890037536621,-1.3825362920761108,1.4522528648376465,-0.0079412423074245,0.4941896200180053,2.092822790145874
1772903850877473500,11.1594736328125,0.6088294982910156,-1.3795651197433472,1.6738895177841189,-0.1117882579565048,0.7336485981941223,2.0152428150177
1772903850896459000,11.178458984375,-1.68145751953125,-0.3777014017105102,0.5350441932678223,-0.1148425787687301,0.7715222239494324,1.5625921487808228
1772903850915444700,11.19744482421875,-2.4692769050598145,0.7555655241012573,-0.3263474702835083,0.1185077652335167,0.8747583627700806,0.8924734592437744
1772903850934430500,11.216430419921876,-2.47908878326416,1.2272453308105469,-0.0034239292144775,0.3933969140052795,0.9327905178070068,0.2864955961704254
1772903850953416200,11.235416259765625,-2.1491518020629883,1.155609965324402,0.8236532211303711,0.4495964646339416,0.9663881063461304,-0.1227838173508644
1772903850972402000,11.25440185546875,-1.533651351928711,0.944183886051178,0.796722412109375,0.4080576598644256,0.8649845123291016,-0.2858847081661224
1772903850991387400,11.273387451171876,-0.7339487075805664,0.7070314884185791,0.7737479209899902,0.3365865051746368,0.7122683525085449,-0.2009745091199875
1772903851010373000,11.292373046875,-0.2967510223388672,0.4409741759300232,1.0559539794921875,0.2076940238475799,0.6108647584915161,-0.0128281600773334
1772903851029358800,11.31135888671875,-0.0661735534667968,0.3499354124069214,0.9028990268707277,0.1020144149661064,0.5400044918060303,0.1893680840730667
1772903851048344600,11.330344482421877,-0.1691427230834961,0.2177964448928833,0.4488325119018554,0.0873536616563797,0.5247328281402588,0.3359756171703338
1772903851067330000,11.349330078125,-0.4357948303222656,0.2772164940834045,0.542675256729126,0.0971274971961975,0.5100721120834351,0.3665188550949096
1772903851086315800,11.368315673828125,-0.7799510955810547,0.3597893118858337,0.7420247793197632,0.0934623107314109,0.5772672295570374,0.258395791053772
1772903851105301500,11.387301513671876,-0.9053516387939452,0.4842749238014221,0.7952544689178467,0.088575392961502,0.6334667801856995,0.0867427960038185
1772903851124287200,11.406287353515625,-0.883732795715332,0.5207107067108154,0.6375966668128967,0.0934623107314109,0.627968966960907,-0.0604756139218807
1772903851143273000,11.42527294921875,-0.6936759948730469,0.5664265155792236,0.7876708507537842,0.0690277218818664,0.5943714380264282,-0.164322629570961
1772903851162258700,11.4442587890625,-0.8252344131469727,0.5861555933952332,0.7035903334617615,-0.0519235059618949,0.4880809485912323,-0.1429423540830612
1772903851181244200,11.463244140625,-0.3392677307128906,0.4618206024169922,0.7425032258033752,-0.2510654330253601,0.2412915825843811,-0.0635299384593963
1772903851200230000,11.48222998046875,-0.6066074371337891,0.5286031365394592,0.9910826086997986,-0.3671297430992126,0.2370155304670334,-0.1417206227779388
1772903851219215600,11.501215576171877,-0.8910799026489258,0.5156517028808594,0.4094859659671783,-0.3811796307563782,0.3219257295131683,-0.3408625423908233
1772903851238201300,11.520201416015626,-0.931549072265625,0.3903380036354065,-0.1494002342224121,-0.2541197538375854,0.3249800503253937,-0.5790998339653015
1772903851257186800,11.539186767578125,-0.7250947952270508,0.2615123391151428,-0.4175153970718384,-0.0855210721492767,0.1795942485332489,-0.7483093738555908
1772903851276172800,11.5581728515625,-0.0605964660644531,0.0449735820293426,-0.4697510302066803,0.0525343716144561,0.0464257225394248,-0.6774490475654602
