time,seconds_elapsed,acc_z,acc_y,acc_x,gyro_z,gyro_y,gyro_x
1772650569534991600,0.06699169921875,-0.0446796842038631,-0.1852934390306472,-0.1797716068692505,0.2532165050506592,-0.207833781838417,-0.1977988332509994
1772650569544964400,0.07696435546875,-0.0668225424289703,0.04516103798002,-0.5600285228125751,0.2670150399208069,-0.1106996536254882,-0.3370608389377594
1772650569554937300,0.086937255859375,-0.2439180619567632,0.2468053078308701,-0.747677146667242,0.3014507889747619,0.1152618378400802,-0.3986525535583496
1772650569564909600,0.09690966796875,-0.4388952751338482,0.3963654624402523,-0.5587215318672358,0.3501839637756347,0.3373880386352539,-0.40123051404953
1772650569574881300,0.10688134765625,-0.2811410004138946,0.707070410990715,-0.5195642643466591,0.3966965973377228,0.4707136154174804,-0.3611454367637634
1772650569584854300,0.116854248046875,-0.0290384629577398,0.9542845918834209,-0.2842692154370248,0.4373087584972381,0.5083209276199341,-0.2913394570350647
1772650569594826500,0.126826416015625,0.1065460655301809,1.1910574582606552,-0.038284722469747,0.4777360558509826,0.4240217506885528,-0.1819024384021759
1772650569604799500,0.136799560546875,0.1371808577686548,1.342530460754037,0.3233662772029638,0.5343075394630432,0.3299806118011474,0.0034218523651361
1772650569614772200,0.146772216796875,0.2427776597499847,1.5245537920728325,0.5592891026221215,0.6181105375289917,0.2016074657440185,0.2020217627286911
1772650569624744400,0.156744384765625,0.362402402561903,1.723288019695878,0.6135951316967606,0.7466541528701782,0.0819607526063919,0.3927177190780639
1772650569634717400,0.166717529296875,0.6494160944014787,1.9272826520651576,0.6680629272043704,0.9094678163528442,0.094045914709568,0.5301339030265808
1772650569644689400,0.176689453125,1.1758026059836149,2.14526021707952,0.699332510215044,1.058532953262329,0.2304809391498565,0.58721923828125
1772650569654661400,0.186661376953125,1.532298414850235,1.63113405213356,0.331570041924715,1.0835789442062378,0.4249215126037597,0.5646601319313049
1772650569664634400,0.19663427734375,1.7403987289726732,1.4923767388284206,0.1777142359480261,1.0987485647201538,0.4574998021125793,0.502692461013794
1772650569674606300,0.2066064453125,2.316762446644902,2.0253952357709406,0.2654606162011623,1.118071436882019,0.2593028545379638,0.3348152935504913
1772650569684579300,0.216579345703125,2.693402048873901,2.1332184816300868,0.2573759478144347,1.121811032295227,-0.0375421531498432,0.0802330821752548
1772650569694551600,0.226551513671875,2.2737281915605068,1.7154051574915647,0.4495091697372496,1.1566805839538574,-0.2477385401725769,-0.138491004705429
1772650569704524300,0.236524169921875,1.3709481614649297,1.3445733647584914,0.4527852687984705,1.219487190246582,-0.2713072299957275,-0.2776662111282348
1772650569714496300,0.246496337890625,0.2480816113770008,1.4939122778326273,-0.5200733829125762,1.211103916168213,-0.1187672317028045,-0.3293099701404571
1772650569724469500,0.256469482421875,-0.6294517492592334,1.874482789769769,-1.361361125691235,1.1086368560791016,-0.0075273141264915,-0.3399043381214142
1772650569734441200,0.266441162109375,-0.9310977775633336,1.9793600453048945,-1.3640379436850547,0.9640255570411682,0.2320469319820404,-0.3000480234622955
1772650569744414200,0.276414306640625,-1.181186637109518,1.841622722697258,-1.1052634541843085,0.831037700176239,0.3910223245620727,-0.2259196639060974
1772650569754386400,0.286386474609375,-1.2370464714974163,1.7744383612185717,-0.8264039157710968,0.7120063900947571,0.3823545277118683,-0.1852478682994842
1772650569764359400,0.296359375,-0.9820628256469964,1.568651000213623,-0.3381204864814877,0.6272739171981812,0.4937898516654968,-0.2199337184429168
1772650569774331400,0.306331298828125,-0.4680576567322015,1.258418345350027,0.081336513210833,0.6008961200714111,0.7276073694229126,-0.3215154707431793
1772650569784304400,0.316304443359375,0.1563748030602932,1.2432710451006888,-0.0707947339955717,0.564683198928833,0.8720006346702576,-0.523328423500061
1772650569794276400,0.3262763671875,0.7030354563862085,1.2522124764472244,-0.2666820477548987,0.4781001210212707,0.868604838848114,-0.8312841057777405
1772650569804249300,0.336249267578125,0.7022656410574912,0.7071241870045661,0.0752767747804522,0.3948511481285095,0.8856110572814941,-1.1057146787643433
1772650569814221300,0.34622119140625,0.2091056917726993,0.2022632785320282,0.8111497941464185,0.364398717880249,0.8070152997970581,-1.2883062362670898
1772650569824194300,0.3561943359375,-0.1277607029944658,0.1364028591334819,1.151651476676017,0.3439176678657532,0.7146771550178528,-1.428971529006958
1772650569834166300,0.366166259765625,-0.3807306709349155,0.2722144743755459,1.1542851861804724,0.3582438826560974,0.5275242924690247,-1.5467431545257568
1772650569844139300,0.37613916015625,-0.7315408353805541,0.5900096734479069,0.8154130045488476,0.4037417769432068,0.3319537937641144,-1.6341811418533323
1772650569854111700,0.38611181640625,-1.3122148174673318,0.6532917667910456,0.5063428175933659,0.478295624256134,0.3331229388713836,-1.6797301769256592
1772650569864084700,0.396084716796875,-1.9180343467265368,0.744998867368698,-0.0533721092253923,0.5365636944770813,0.4048920571804046,-1.6959989070892334
1772650569874056700,0.406056640625,-2.1792022341698405,0.902664587022364,-0.6660805212154984,0.5091107487678528,0.5244565606117249,-1.7735304832458496
1772650569884029700,0.41602978515625,-2.322441661325097,0.6663473554581404,-0.7516514571256935,0.4479372501373291,0.7146786451339722,-1.8582522869110107
1772650569894001700,0.426001708984375,-2.626174432775378,0.4198100509136915,-0.5098413272336125,0.392238050699234,0.8188319206237793,-1.9181203842163088
1772650569903974700,0.435974609375,-2.756760130062699,0.3771148185253143,-0.3270283068418502,0.3856674134731293,0.9032223224639891,-1.9668666124343872
1772650569913946600,0.445946533203125,-2.6019921776771544,0.5915326452314853,-0.0438292048543691,0.4470681846141815,0.93373441696167,-2.0219411849975586
1772650569923919600,0.455919677734375,-2.2143507044404744,0.906305281612277,0.1555026964008808,0.5794345140457153,0.96257883310318,-2.091806173324585
1772650569933891600,0.4658916015625,-1.601376042729616,1.0256725425317883,0.5217328405573963,0.7610564827919006,1.0844930410385132,-2.1720528602600098
1772650569943864600,0.475864501953125,-1.0419500158548354,1.0149275688946249,0.9793686181269584,0.9387279748916626,1.1593087911605835,-2.220843315124512
1772650569953836800,0.4858369140625,-1.1071131006389856,0.3578875554859638,1.2568706775166094,1.0479549169540403,1.1721460819244385,-2.078618288040161
1772650569963809800,0.495809814453125,-1.479983121201396,-0.28582155944556,1.2567799304932354,1.0106579065322876,1.012898325920105,-1.7587504386901855
1772650569973781500,0.505781494140625,-1.0490741686463356,0.3013914690211415,0.0470215711548924,0.7771521210670471,0.6229329109191895,-1.3776835203170776
1772650569983754800,0.515754638671875,-1.0750725332558155,0.1976474552996456,-0.0436290061071515,0.5030465126037598,0.2299777716398239,-0.9040960073471068
1772650569993726700,0.525726806640625,-1.0986790342926978,-0.1870925974071025,-0.0935300782211124,0.1669982224702835,-0.1410767436027526,-0.3794833719730377
1772650570003699500,0.535699462890625,-0.797780609485507,-0.5207822618342935,-0.1003261681020259,-0.2083508968353271,-0.5679413080215454,0.1460418999195099
1772650570013671700,0.545671630859375,-0.1466430981189012,-0.8167156115800142,0.1953326024860143,-0.5535948872566223,-1.1137276887893677,0.5567269325256348
1772650570023644700,0.555644775390625,0.7521545843422413,-0.7828314621567726,0.5973841477386653,-0.804737389087677,-1.6655683517456057,0.7669299840927124
1772650570033616600,0.56561669921875,1.5778075356155632,-0.2893333669587969,1.1638549785584211,-0.8288542032241821,-2.156592607498169,0.8622114658355713
1772650570043589600,0.575589599609375,1.9740712912470104,0.4164982960171997,1.7118721610598264,-0.586032509803772,-2.4934682846069336,0.9031524658203124
1772650570053561600,0.5855615234375,2.047873025038838,0.9122367174878716,1.766477026950568,-0.1835465729236602,-2.6974294185638428,0.8899974822998047
1772650570063534800,0.595534912109375,1.96978206962049,1.1112082609981295,1.4724500953480602,0.253294438123703,-2.8872108459472656,0.8270195722579956
1772650570073506600,0.605506591796875,1.8298516208827496,1.069265600542724,1.0925918233335017,0.590300440788269,-2.9551243782043457,0.7533930540084839
1772650570083479600,0.6154794921875,1.7230302455425262,0.731960814358294,0.8221632825266569,0.7067173719406128,-2.8009307384490967,0.648919403553009
1772650570093451800,0.62545166015625,1.7570371445626018,-0.0629012773320078,0.4983015499569475,0.5589396357536316,-2.575871229171753,0.4929146468639374
1772650570103424500,0.635424560546875,1.9531173505455253,-1.2280918884083627,0.1582735858863219,0.2253964245319366,-2.262030839920044,0.2578977942466736
1772650570113396700,0.645396728515625,1.9226093995571136,-1.5416376133427023,0.4991562305575236,-0.0828189402818679,-1.741412878036499,-0.0560180470347404
1772650570123369700,0.65536962890625,2.9413135643810038,-0.6330737391486764,0.9014838528051972,-0.1533417850732803,-1.6181598901748655,-0.364767849445343
1772650570133341400,0.665341552734375,3.6577135292530056,0.1947846132144332,1.289016751100868,-0.0753638967871666,-1.5365047454833984,-0.6104886531829834
1772650570143314700,0.675314697265625,2.913853895047307,-0.183169578744471,2.191047424133867,0.0887665972113609,-1.2343719005584717,-0.6931790709495544
1772650570153286700,0.68528662109375,2.437285599601269,-0.7675827473595738,2.3993197338223458,0.2778307795524597,-0.89243483543396,-0.623429536819458
1772650570163259600,0.695259765625,2.640957575887441,-0.6912690307468176,2.008801828366518,0.3858866393566131,-0.7193020582199097,-0.5307490825653076
1772650570173231600,0.705231689453125,3.236138222232461,-0.8888628561630845,1.4431383684068917,0.3586105406284332,-0.7955454587936401,-0.4964246451854706
1772650570183204600,0.71520458984375,3.4925434253185985,-0.5439119391396642,1.3980807908013462,0.4533644020557403,-1.164204239845276,-0.4620924890041351
1772650570193176800,0.7251767578125,3.2989158731848,0.4484308729812503,0.9896908363074064,0.6959456205368042,-1.4609501361846924,-0.3569905757904053
1772650570203149600,0.735149658203125,2.6162287928223606,0.4970085875369608,1.111822885765135,0.881862461566925,-1.462715744972229,-0.2335807979106903
1772650570213121500,0.74512158203125,3.1556285152345893,-0.3421248998172581,0.7569453257501125,0.8102801442146301,-1.4668889045715332,-0.2225161492824554
1772650570223094800,0.7550947265625,3.7794098176419735,-1.3973029382966458,0.4487690188944339,0.5302384495735168,-1.388938069343567,-0.259155124425888
1772650570233066500,0.76506640625,3.873959740430117,-2.514601771254837,0.0776052177280187,0.1537335216999054,-1.1583898067474363,-0.2788984477519989
1772650570243039500,0.77503955078125,3.479851117005944,-4.400005768011511,-0.0940415348745882,-0.3112615048885345,-0.8484148383140564,-0.3294215500354767
1772650570253011700,0.78501171875,1.9010171609520912,-6.501311400291323,0.5957856265008449,-0.7073091864585876,-0.3606092035770416,-0.3210674822330475
1772650570262984700,0.794984619140625,-0.1983645175278186,-7.476029123872518,2.0478917297393084,-0.7957375049591064,0.3105154931545257,-0.1844111084938049
1772650570272956700,0.804956787109375,-1.9433803849071265,-7.081267589497566,3.627262861409783,-0.5092437267303467,0.938229203224182,0.0764761418104171
1772650570282929700,0.8149296875,-2.8890163909107445,-5.088049114710092,3.6012808634132143,-0.2168456017971038,1.117180109024048,0.275654673576355
1772650570292901600,0.824901611328125,-3.5969840430021285,-2.2500334277182814,2.1364519105933604,0.1142953112721443,1.624277114868164,0.3580571413040161
1772650570302874600,0.83487451171875,-5.4639697550147766,-2.6576722715839742,2.037849643674493,0.4220132529735565,1.952651143074036,0.6586993336677551
1772650570312846600,0.8448466796875,-7.203371289643645,-4.061217465271056,1.8225944893613455,0.8691681027412415,1.976930856704712,0.878740131855011
1772650570322819600,0.854819580078125,-9.384445162904262,-5.620259217879176,1.0358598822861909,1.1381239891052246,1.7728228569030762,1.185881733894348
1772650570332791600,0.86479150390625,-11.875700837624072,-6.9338359713494775,0.3705310562208295,1.192503571510315,1.2553246021270752,1.6374744176864624
1772650570342764500,0.8747646484375,-14.45795488013029,-7.917899615424871,-0.4781715659242123,1.0672378540039062,0.7080255746841431,2.062551736831665
1772650570352736800,0.88473681640625,-16.58574198436141,-8.485803547787667,-1.0418875450778753,0.9549797773361206,0.0036357212811708,2.38773512840271
1772650570362709800,0.894709716796875,-18.568249680042264,-8.610368085089325,-1.6815901277817784,0.8868483901023865,-0.7240058779716492,2.5854811668396
1772650570372681700,0.904681640625,-21.15857480080128,-8.575624688488244,-2.8992180514514443,0.7944921255111694,-1.2907342910766602,2.695892572402954
1772650570382654700,0.91465478515625,-23.715035061359405,-8.15542826860547,-4.653406528584659,0.6489366292953491,-1.4041814804077148,2.6666996479034424
1772650570392626400,0.92462646484375,-25.66971600795984,-6.619055736184119,-6.152811850875616,0.5673312544822693,-0.8928159475326538,2.5523054599761963
1772650570402599700,0.934599609375,-26.58651754914522,-4.307626174999773,-7.061951479130983,0.4673198759555816,-0.0031875120475888,2.5573456287384038
1772650570412571600,0.944571533203125,-26.05526664639711,-2.0342954583242534,-7.046964337879419,0.3234753608703613,0.850213885307312,2.863589286804199
1772650570422544600,0.954544677734375,-23.99479659011364,-0.2233233099564909,-6.249626211464404,0.1678763329982757,1.232774257659912,3.390610933303833
1772650570432516600,0.9645166015625,-20.241221470952038,0.8091144889265298,-4.680603455328941,0.0590710341930389,1.1809080839157104,3.894500255584717
1772650570442489600,0.974489501953125,-15.330940660464762,1.26790572014153,-2.641737328088283,0.0560955442488193,0.7600299119949341,4.16666316986084
1772650570452461800,0.9844619140625,-10.371564687418935,1.274035601198673,-1.062601247282699,0.0929363816976547,0.1049799174070358,4.188085556030273
1772650570462434600,0.9944345703125,-6.515084489578008,0.9843734406769276,-0.5840842289216817,0.107978731393814,-0.6025614738464355,3.990467548370361
1772650570472406500,1.004406494140625,-3.7256314657032488,0.9015992958784104,-0.8825282463140786,0.0657071694731712,-1.135642409324646,3.598256826400757
1772650570482379800,1.0143798828125,-1.5672738666415214,1.115540152722597,-1.3605027552962303,0.0204137917608022,-1.3386784791946411,3.047505617141724
1772650570492351500,1.0243515625,-0.2882528782457113,1.682312450706959,-2.071620395851135,-0.0576916597783565,-1.1683800220489502,2.417232036590576
1772650570502324500,1.034324462890625,0.1950923639893531,2.614175367423892,-2.61813258061707,-0.1343994289636612,-0.6381109356880188,1.8386204242706297
1772650570512296700,1.044296630859375,0.4499024068385362,3.808239021763205,-2.532672849996388,-0.1864836663007736,-0.0089867897331714,1.4010518789291382
1772650570522269700,1.054269775390625,1.1266735411554574,4.814710312479734,-1.705878035211563,-0.1793924868106842,0.4739341735839844,1.1565368175506592
1772650570532241700,1.06424169921875,2.0856617806851863,5.755570190122723,-0.7986740511938929,-0.1507856100797653,0.7094926238059998,1.0927828550338743
1772650570542214700,1.074214599609375,3.115672352421284,6.712644120463729,-0.9053156860530376,-0.21362966299057,0.6411451101303101,1.2066987752914429
1772650570552186600,1.0841865234375,3.918279359149933,7.724192568314075,0.3595027355976402,-0.1693847179412841,0.4103502631187439,1.4644166231155396
1772650570562159600,1.09415966796875,5.522191642358899,8.31315214818716,1.348421564619243,-0.0969210118055343,0.0644808262586593,1.6753485202789309
1772650570572131600,1.104131591796875,6.78226243109107,9.378128819364308,0.987490695914626,-0.0980821475386619,-0.2131513208150863,1.8717111349105835
1772650570582104600,1.1141044921875,7.77140498586595,9.82130747090578,1.0890331079386173,-0.1471450179815292,-0.4681145548820495,2.0307157039642334
1772650570592076500,1.12407666015625,8.660235401064156,9.989911640942095,1.3752289075240491,-0.2087513953447342,-0.6330422759056091,2.11500096321106
1772650570602049500,1.134049560546875,9.238615134733914,10.481943462979793,1.2677080056123435,-0.2992194592952728,-0.6261804699897766,2.11360502243042
1772650570612021800,1.144021728515625,9.870318462312222,10.636624321603774,1.3098448734655976,-0.4018172025680542,-0.5309357047080994,2.000310182571411
1772650570621994800,1.153994873046875,10.558746132153273,10.820042614412309,1.711895249674469,-0.4723338484764099,-0.3792415261268616,1.7482317686080933
1772650570631966500,1.163966552734375,10.91183242483735,10.949575003254411,1.9264666595071556,-0.5059764981269836,-0.1666565686464309,1.4201291799545288
1772650570641939700,1.173939697265625,11.024887141609192,10.955823542255162,2.067698692362756,-0.5150266289710999,0.0105131361633539,1.045139193534851
1772650570651911700,1.18391162109375,10.950928755950928,10.928847857046126,2.1074244074210524,-0.5188621282577515,0.1112392172217369,0.6718057990074158
1772650570661884700,1.193884765625,10.621537811630963,10.828029521512985,2.114135010975599,-0.507367730140686,0.166287213563919,0.3100604116916656
1772650570671856600,1.203856689453125,10.055270540559292,10.790540625596046,2.0008181361362336,-0.4976826310157776,0.1973465979099273,0.0045452415943145
1772650570681829600,1.21382958984375,9.311056101566551,10.652221703708172,1.7529516288146376,-0.5162126421928406,0.1769568473100662,-0.2293447852134704
1772650570691801600,1.223801513671875,8.576840494018793,10.646436106044051,1.5552370996281504,-0.5363975167274475,0.1535836160182953,-0.3948565125465393
1772650570701774600,1.233774658203125,7.928696319249272,10.59009988631606,1.4415429159089923,-0.5509605407714844,0.1408335864543914,-0.5110192894935608
1772650570711746800,1.243746826171875,7.401458743795752,10.468328779125214,1.2916019452884793,-0.5670308470726013,0.1259294599294662,-0.5814580321311951
1772650570721719800,1.2537197265625,7.015627534851432,10.385368756365777,1.1838499380346388,-0.5704652070999146,0.1160169914364814,-0.619545042514801
1772650570731691500,1.26369140625,6.777299840247631,10.19818614258766,1.1450083123344927,-0.5746897459030151,0.0812741890549659,-0.6310624480247498
1772650570741664800,1.273664794921875,6.697815969166159,9.943237568050622,1.1275558769479392,-0.5724063515663147,-9.15089622139e-05,-0.631064772605896
1772650570751636700,1.28363671875,6.7386202732414,9.703658996602892,1.1257855793397873,-0.5615659356117249,-0.1199422776699066,-0.6467310786247253
1772650570761609500,1.293609375,6.75568597433269,9.455662725421783,1.0600730439793318,-0.5514476895332336,-0.2057775110006332,-0.686371922492981
1772650570771581700,1.303581787109375,6.727210405954718,9.153124716714023,0.8004606423497199,-0.5550737977027893,-0.2231093496084213,-0.7528662085533142
1772650570781554700,1.3135546875,6.654951225429773,8.829438706037402,0.3947821753041818,-0.5842982530593872,-0.1787159740924835,-0.849452018737793
1772650570791526700,1.323526611328125,6.559626811137795,8.551728264594077,-0.1244726212345063,-0.6569061875343323,-0.0695229172706604,-0.9807291030883788
1772650570801499600,1.333499755859375,6.328596287804841,8.245848544242978,-0.3622874709453433,-0.7414284944534302,0.0707204788923263,-1.1077232360839844
1772650570811471600,1.3434716796875,6.010982290518284,7.89850517912507,-0.3116156701872125,-0.8131524324417114,0.1671948134899139,-1.2138643264770508
1772650570821444900,1.35344482421875,5.223892001873255,7.679358570331335,-0.024420118974708,-0.8314419388771057,0.1972783505916595,-1.2647082805633545
1772650570831416600,1.36341650390625,4.437331290060282,7.231639352750777,0.3860103283708915,-0.7666261792182922,0.1623992025852203,-1.2922773361206057
1772650570841389600,1.3733896484375,3.6266099504590033,6.57959174080193,0.904777925914526,-0.6328042149543762,0.1934386044740677,-1.3124699592590332
1772650570851361500,1.383361572265625,2.7679718444287778,4.8415170708626505,1.7527013073153792,-0.5087083578109741,0.1318841725587844,-1.3359781503677368
1772650570861334500,1.39333447265625,2.38496913690865,3.017159955742955,2.011127494835109,-0.4439106285572052,-0.1529029458761215,-1.44877290725708
1772650570871306800,1.403306640625,1.412823894163966,2.2165981911063195,2.241884900315106,-0.3745725750923157,-0.3126550614833832,-1.6456273794174194
1772650570881279700,1.41327978515625,-0.2154530149728059,1.1207757152885198,2.530201199185848,-0.2580567300319671,-0.3190356194972992,-1.9056438207626345
1772650570891251500,1.42325146484375,-2.065778684085608,0.2334124500334262,2.623867324876785,-0.1024130582809448,-0.2295669615268707,-2.1627838611602783
1772650570901224700,1.433224609375,-4.198007570156455,-0.3873106338471174,2.441484804856777,0.0665439739823341,-0.0967476144433021,-2.3192169666290283
1772650570911196700,1.44319677734375,-6.305221841958165,-1.133151212736964,1.6908872406981883,0.1713020801544189,0.0416416898369789,-2.3108396530151367
1772650570921169400,1.45316943359375,-7.989670720171928,-2.269237309882045,0.9698345546495168,0.1634007394313812,0.1864784955978393,-2.114335298538208
1772650570931141600,1.4631416015625,-8.564836167970299,-4.368864487555623,1.1086560922972857,0.0559877306222915,0.0393284671008586,-1.838222980499268
1772650570941114600,1.473114501953125,-7.167821252834797,-6.142312668693065,1.4090747707635165,-0.07845289260149,-0.5978695154190063,-1.8521167039871216
1772650570951086600,1.483086669921875,-4.53088401850462,-5.914409921991825,0.4679916788239032,-0.2239272743463516,-1.3225911855697632,-2.4517319202423096
1772650570961059600,1.4930595703125,-3.17496800647676,-5.111314839485288,-1.6973787946745753,-0.428133100271225,-1.5690622329711914,-3.533339262008667
1772650570971031600,1.503031494140625,-4.492953808560968,-4.255082625553012,-3.6638217830002304,-0.6750446557998657,-1.1751443147659302,-4.768184185028076
1772650570981004800,1.5130048828125,-7.943180187153816,-3.2039550315082077,-4.133085600651801,-0.9088801145553588,-0.2077471762895584,-5.763971328735352
1772650570990976500,1.5229765625,-12.55458794118166,-1.896298900258541,-3.0060674838423727,-1.0393859148025513,0.8458800315856934,-6.152375221252441
1772650571000949500,1.532949462890625,-16.50571275435686,-0.5298170705527067,-0.6743064977690577,-0.9430335164070128,1.540839433670044,-5.825901985168457
1772650571010921700,1.542921630859375,-18.6492772734344,0.2070300545424223,1.6309928900972008,-0.665378749370575,1.7836358547210691,-4.836083889007568
1772650571020894500,1.55289453125,-18.63306497430205,-0.3055582333117723,2.7013997696295378,-0.3882970213890075,1.318264365196228,-3.511791944503784
1772650571030866700,1.56286669921875,-16.927584413975477,-1.20358200879097,2.757881535308063,-0.1733530163764953,0.4578273892402649,-2.199282169342041
1772650571040839700,1.572839599609375,-14.25552793546915,-1.5131845490574836,2.222200541158021,0.001651557162404,-0.3010725975036621,-1.18807053565979
1772650571050811600,1.582811767578125,-11.52041908072233,-1.559106050015986,1.5306960942201315,0.1899136006832122,-0.6837278008460999,-0.5046139359474182
1772650571060784600,1.59278466796875,-9.20380334907174,-1.74311880158633,1.0195458032798022,0.3722029626369476,-0.7541865110397339,-0.062722273170948
1772650571070756600,1.602756591796875,-7.049222930461168,-2.044939894196391,0.5630243070950731,0.5298151969909668,-0.6124504208564758,0.2166643589735031
1772650571080729600,1.6127294921875,-4.858208677944541,-2.3292051641106606,-0.1395730227353517,0.6272052526473999,-0.3061632812023163,0.3461850881576538
1772650571090701600,1.62270166015625,-2.471023034030199,-2.4620506230235097,-0.806720433396846,0.6728368997573853,0.0093454029411077,0.32610884308815
1772650571100674600,1.632674560546875,-0.2606424022644758,-2.6046611046254635,-1.249641749176383,0.6554332971572876,0.2387649267911911,0.2057965844869613
1772650571110646500,1.642646484375,1.322086223140359,-2.7313541783884165,-1.4318001050516962,0.5924423336982727,0.3516912162303924,0.073205791413784
1772650571120619500,1.65261962890625,2.285927747920155,-2.689054667319357,-1.3082581887960434,0.5162146687507629,0.3180221915245056,-0.0108116148039698
1772650571130591700,1.662591796875,2.9338457127183672,-2.4839789617151022,-0.9693734399437904,0.4520969688892364,0.1859192997217178,-0.052433893084526
1772650571140564700,1.672564697265625,3.21232363140285,-2.071085558322072,-0.4439470420980825,0.4317132830619812,0.0311208851635456,-0.0575815998017787
1772650571150536400,1.682536376953125,3.2875077594637867,-1.538244171512127,0.0111867032224079,0.4544681310653686,-0.1075775995850563,-0.0470285564661026
1772650571160509700,1.692509765625,3.3412761745303867,-0.9696718383684754,0.3498545076886192,0.5031892657279968,-0.2529669106006622,-0.0488104447722435
1772650571170481700,1.702481689453125,3.292418912380933,-0.5211038950040936,0.4005578726287931,0.5259177684783936,-0.3924808502197265,-0.0854129269719123
1772650571180454400,1.712454345703125,2.716221198925376,-0.1465285318285226,0.2310613020637072,0.5187338590621948,-0.4257066547870636,-0.1126485094428062
1772650571190426600,1.722426513671875,1.872009093132615,0.3532017357572913,0.059799530190695,0.484119713306427,-0.4059127271175384,-0.0956847071647644
1772650571200399600,1.732399658203125,0.9161270029246806,0.8293415766581892,0.1334160253424197,0.4694323241710663,-0.3804150819778442,0.0044634467922151
1772650571210371600,1.74237158203125,0.1421025320798158,1.1999626492500304,0.6354670640259981,0.4943603277206421,-0.3219160735607147,0.1471348404884338
1772650571220344600,1.752344482421875,-0.2215904948145151,1.6154969225406646,1.1742769307862966,0.5728921294212341,-0.2370248883962631,0.3075511455535888
1772650571230316500,1.762316650390625,-0.1867296093136072,1.9576494410172105,1.5456753444261848,0.6712498664855957,-0.1844833791255951,0.450319230556488
1772650571240289800,1.772289794921875,0.2502168698400259,2.049840525719523,1.8095362703457476,0.7711915969848633,-0.2032315880060196,0.5426507592201233
1772650571250261500,1.782261474609375,0.916467779186368,2.102250804175436,1.8696283354759216,0.8510472774505615,-0.3095566928386688,0.5858363509178162
1772650571260234500,1.792234375,1.6452479176819323,2.06655668272078,1.6883691203974187,0.8850502371788025,-0.5218709111213684,0.5816991329193115
1772650571270206700,1.802206787109375,2.222591294041276,1.948866122841835,1.4996359161764383,0.8843450546264648,-0.849095344543457,0.5647310614585876
1772650571280179500,1.812179443359375,2.518088736587763,1.8234969911590215,1.27005515326038,0.846226155757904,-1.2086454629898071,0.5425519347190857
1772650571290151700,1.822151611328125,2.635872235447168,1.6897388013154266,1.109447023479268,0.7930417656898499,-1.5396411418914795,0.522809624671936
1772650571300124700,1.832124755859375,2.6341747838795184,1.6706509467467665,1.1087489582125096,0.7483018636703491,-1.7720364332199097,0.492577463388443
1772650571310096400,1.842096435546875,2.5570079575687648,1.7284461331114171,1.133702270748466,0.7350145578384399,-1.867616415023804,0.4708055853843689
1772650571320069600,1.852069580078125,2.437808746692538,1.8842288154974576,1.11133802485764,0.7589725852012634,-1.83697509765625,0.4722607433795929
1772650571330041600,1.86204150390625,2.3288158725321293,1.7348878565967083,0.887586260356009,0.7524648904800415,-1.726467251777649,0.4982715547084808
1772650571340014600,1.8720146484375,2.34112298091948,1.207624854440987,0.4909181617073714,0.6884030699729919,-1.573060154914856,0.5465749502182007
1772650571349986600,1.881986572265625,2.4524574497699736,0.3867869022339582,0.2037595084391534,0.5452866554260254,-1.344892978668213,0.597511351108551
1772650571359959600,1.89195947265625,2.775579396823048,0.080577511537075,-0.3084592154502868,0.2916480600833893,-1.035744547843933,0.5956580638885498
1772650571369931800,1.901931884765625,3.1669027734428643,-0.3847857915446162,-0.2878019196078181,0.013392187654972,-0.617960512638092,0.5708059668540955
1772650571379904500,1.911904541015625,3.654117550587654,-1.0164408960670233,0.5296091268904507,-0.224155306816101,-0.2031381130218505,0.5069838762283325
1772650571389876500,1.92187646484375,4.15663277271688,-1.2997963576599956,1.61367306811437,-0.3775177299976349,0.1547891348600387,0.4218348860740661
1772650571399849700,1.931849609375,4.392724086570739,-1.2672066319614648,2.76720261362195,-0.3993620276451111,0.5012739896774292,0.3552379608154297
1772650571409821400,1.941821533203125,4.40460449397862,-1.1018424667596816,3.631796997708082,-0.3220509886741638,0.785274863243103,0.3379271328449249
1772650571419794400,1.95179443359375,4.137062395328283,-0.7596332496598363,4.0200922586783765,-0.1854287832975387,0.9351571202278136,0.4147140979766845
1772650571429766700,1.9617666015625,3.614523206824064,-0.5103787951111793,4.046149952259659,-0.0134958941489458,0.9962227940559388,0.5461184978485107
1772650571439739600,1.97173974609375,3.1568834837317463,-0.4105281355664134,3.6897362687185407,0.1891539692878723,1.0399588346481323,0.7043305039405823
1772650571449711600,1.981711669921875,2.9456752667218447,-0.313457169868052,2.836141417552531,0.3739648163318634,1.0162218809127808,0.8246665000915527
1772650571459684600,1.9916845703125,2.606481305789947,-0.801029382148385,1.3252517014339569,0.4469241499900818,0.9746511578559875,0.8246400952339172
1772650571469656800,2.00165673828125,2.015299373692274,-1.506108619321883,-0.5084107099086046,0.3794836103916168,0.9204318523406982,0.6921209692955017
1772650571479629600,2.011629638671875,0.5780050551384687,-2.068667099003494,-1.7229758850067851,0.2613972723484039,0.8157899975776672,0.5445999503135681
1772650571489601500,2.0216015625,-1.822379093044996,-2.726149887743592,-1.9627169535398483,0.2164551019668579,0.7254166603088379,0.5056648254394531
1772650571499574800,2.03157470703125,-4.728151972967386,-3.489553303591906,-2.0431493575178084,0.2379700541496276,0.691892147064209,0.5611861348152161
1772650571509546500,2.04154638671875,-7.925022599172592,-4.260977528810501,-2.725001886752248,0.2406249642372131,0.7450381517410278,0.6789937019348145
1772650571519519500,2.05151953125,-11.374697773623463,-4.90416437343359,-3.4941362474679947,0.2393206655979156,0.9086872339248656,0.8520669341087341
1772650571529491700,2.06149169921875,-14.368600187897682,-5.174964597097039,-3.963255688212812,0.2393424957990646,1.1054284572601318,1.0277053117752075
1772650571539464700,2.071464599609375,-16.846884152841568,-5.341072274142504,-4.164171643789112,0.2495805323123932,1.270177960395813,1.2117325067520142
1772650571549436700,2.081436767578125,-18.792613731223344,-5.316923921313881,-4.471457431545853,0.2693688571453094,1.3739619255065918,1.3614833354949951
1772650571559409700,2.09140966796875,-20.34827548600435,-5.115366160702705,-4.771880055534839,0.2726284563541412,1.4396419525146484,1.5172923803329468
1772650571569381600,2.101381591796875,-21.69539269002676,-4.517107129825652,-5.087614814946055,0.2673447430133819,1.4583468437194824,1.8022154569625852
1772650571579354600,2.111354736328125,-22.62860059161186,-3.4993192030638456,-5.210147554159164,0.2802522778511047,1.4426121711730957,2.3003122806549072
1772650571589326600,2.12132666015625,-22.43208433229923,-2.643796598705649,-4.733385781967639,0.3145404756069183,1.323180079460144,2.964510917663574
1772650571599299600,2.131299560546875,-20.586973182964325,-1.9994296043872832,-4.075301520203054,0.3430107533931732,1.0559574365615845,3.632718801498413
1772650571609271600,2.141271484375,-17.20702796282172,-1.6299083097308873,-3.3542946460574865,0.3536157310009002,0.7050743103027344,4.116177082061768
1772650571619244500,2.15124462890625,-12.909204512172936,-1.7550386642217637,-2.6896736760005355,0.3073371052742004,0.3718700706958771,4.277505874633789
1772650571629216800,2.161216796875,-8.35983557342887,-2.2605863859146837,-1.7710232920780775,0.2282436341047287,0.039387971162796,4.07127571105957
1772650571639189500,2.171189453125,-4.116321220594644,-3.032702392789721,-0.5864659729590639,0.1680761724710464,-0.2572021186351776,3.524821758270264
1772650571649161500,2.181161376953125,-0.6479746634215117,-3.620602818998694,0.2988451455391943,0.1246746331453323,-0.4914159476757049,2.7242133617401123
1772650571659134700,2.191134765625,1.8603087184667584,-3.68211907171309,0.4969879466077312,0.0897997245192527,-0.632717490196228,1.76602041721344
1772650571669106400,2.2011064453125,3.376136475509405,-2.9138515569597483,-0.5763167367253452,-0.0113990660756826,-0.6831785440444946,0.7800651788711548
1772650571679079400,2.211079345703125,3.4663831481456757,-1.8411369850069284,-0.1644661203835159,-0.0202766451984643,-0.5305595993995667,-0.0714643374085426
1772650571689051600,2.2210517578125,3.765377785158157,-0.3044365358054637,-0.547132947012782,-0.0571230761706829,-0.2752612233161926,-0.8252286911010742
1772650571699024600,2.231024658203125,3.951153454747796,1.7496096249103543,-1.8457196366220712,-0.1890609413385391,0.0422731861472129,-1.4076007604599
1772650571708996600,2.24099658203125,3.724458330270648,3.3795763868302107,-2.0958019202969966,-0.3556182086467743,0.3119049072265625,-1.7673336267471311
1772650571718969600,2.250969482421875,3.359386416238546,4.2539866470098495,-1.9153680501267316,-0.5201709270477295,0.4179981350898742,-1.889060854911804
1772650571728941600,2.260941650390625,3.0316905853986738,5.521639853695035,-1.256368427082896,-0.5863129496574402,0.4591330587863922,-1.7990752458572388
1772650571738914600,2.27091455078125,3.201647923609614,6.505862487724423,-0.2621021726187318,-0.5378992557525635,0.4215157926082611,-1.578871250152588
1772650571748886500,2.280886474609375,3.496450954151153,7.112098781090975,0.0925798648241907,-0.4417418539524078,0.3639792501926422,-1.277754545211792
1772650571758859500,2.290859619140625,3.605086100915074,7.622243767446279,0.1033241991405375,-0.341570496559143,0.3581089377403259,-0.8830611109733582
1772650571768831500,2.30083154296875,3.871335237145424,7.7656614737778895,0.0744745550194755,-0.2796296179294586,0.3088716268539428,-0.39766326546669
1772650571778804500,2.310804443359375,4.322320178523659,7.785763766086101,0.0850351302667521,-0.2457659393548965,0.1627273708581924,0.153011679649353
1772650571788776700,2.320776611328125,4.943294606816768,7.820185091125965,0.3168867789905518,-0.2063080221414566,-0.0677750930190086,0.7090741395950317
1772650571798749700,2.330749755859375,5.840317096298933,7.825214901986718,0.7358742614749818,-0.151884913444519,-0.3442384004592895,1.1811561584472656
1772650571808721700,2.3407216796875,6.844784645977616,7.770424158135056,1.1632871155425906,-0.0768194571137428,-0.6002864241600037,1.5247907638549805
1772650571818694700,2.350694580078125,7.629322327530383,7.565984704607724,1.4712632236510514,0.0048498245887458,-0.7972227931022644,1.727169394493103
1772650571828666600,2.36066650390625,8.211667457699775,7.584518724685907,1.4909009671874345,0.0734781548380851,-0.8986654877662659,1.7979589700698853
1772650571838639600,2.3706396484375,8.731562853696941,7.694969396439194,1.4899427896797657,0.1406085342168808,-0.8382570743560791,1.7154490947723389
1772650571848611600,2.380611572265625,9.095657447129488,7.570309582069516,1.6869290045917034,0.226211592555046,-0.6649603843688965,1.5167003870010376
1772650571858584800,2.390584716796875,9.378534477555752,7.363249132388829,1.8385491604708133,0.3011287748813629,-0.4288418292999267,1.2296041250228882
1772650571868557000,2.40055712890625,9.588612229231,7.194964111304283,1.6362974262461063,0.3285849094390869,-0.1429203152656555,0.8900402188301086
1772650571878530000,2.410530029296875,9.746847565466163,6.94582276174128,1.247688130890578,0.291965126991272,0.1368979662656784,0.5094102621078491
1772650571888501800,2.420501708984375,9.742392339622974,6.666869626760483,0.9279175400920212,0.2038317918777465,0.3262526988983154,0.1504009962081909
1772650571898475000,2.43047509765625,9.551457095313072,6.5119783402562135,0.651545872971788,0.0759292840957641,0.3703762888908386,-0.1571206748485565
1772650571908447000,2.440447021484375,9.055379212754964,6.486199755877256,0.4833273047195747,-0.0578679293394088,0.3452086150646209,-0.378318578004837
1772650571918419000,2.4504189453125,8.296839895811676,6.462274105888604,0.5568896402649581,-0.1688644289970398,0.3040239810943603,-0.5136744976043701
1772650571928392000,2.460391845703125,7.51278561386168,6.351774918818474,0.7240664809118956,-0.2583298683166504,0.2865219116210937,-0.560975968837738
1772650571938364000,2.470364013671875,6.860618759447336,6.292244286963343,0.8654765737481415,-0.3053120374679565,0.3031483590602875,-0.5610153675079346
1772650571948337200,2.480337158203125,6.481410183513164,6.239236334875225,0.9901408450972288,-0.3126178979873657,0.3409258425235748,-0.5446709990501404
1772650571958310000,2.490309814453125,6.271197407281399,5.969599309772253,1.197178790685162,-0.2923293113708496,0.3663951158523559,-0.5300760865211487
1772650571968282000,2.5002822265625,6.200497146636248,5.521279203689098,1.3548067356117068,-0.2448552548885345,0.3797002732753753,-0.5651320815086365
1772650571978255000,2.510255126953125,6.07182634305954,5.19797780841589,1.4002091811321675,-0.1610493808984756,0.4052148759365082,-0.6368488073348999
1772650571988226800,2.520226806640625,5.69684736751914,4.942588504374027,1.4230499584935603,-0.0337012745440006,0.3928727209568023,-0.70700603723526
1772650571998199000,2.530198974609375,5.1434728957682845,4.467894770628214,1.0048298801850526,0.0668455883860588,0.3387105166912079,-0.7408801913261414
1772650572008172000,2.540172119140625,4.453122733432054,3.748670980507135,0.2567658530920744,0.1141667664051055,0.2740673422813415,-0.7477367520332336
1772650572018144000,2.55014404296875,3.566848432457447,2.5676883415371177,-0.3698774146176874,0.0818633064627647,0.2362201660871505,-0.7480010390281677
1772650572028117000,2.560116943359375,2.4951491750270125,1.226135201382637,-0.6732870915934444,0.0158270299434661,0.1754510998725891,-0.7515667080879211
1772650572038089000,2.5700888671875,1.413303202113509,0.3568880230545997,-0.4685521257182582,-0.0255424212664365,0.1483012735843658,-0.7669745683670044
1772650572048062200,2.580062255859375,0.5562298611819744,-0.4368593853920698,0.3285038958197459,0.0184972081333398,0.0775354951620101,-0.8397476077079773
1772650572058034000,2.590033935546875,-0.1208557459115982,-1.1414859103620052,1.4402894087165594,0.2005583792924881,-0.0390291139483451,-1.0028213262557983
1772650572068007000,2.6000068359375,-0.9495476264894008,-1.6029758791416882,2.075918239175528,0.4677288234233856,-0.1034286096692085,-1.2069275379180908
1772650572077979100,2.609979248046875,-2.568649880045652,-2.159544178497791,1.628623822878301,0.6935938596725464,-0.0802240371704101,-1.3243672847747805
1772650572087952000,2.619951904296875,-4.150576541417837,-2.711133520397544,0.0193083106526173,0.7719190120697021,0.0238328501582145,-1.3191531896591189
1772650572097924000,2.629924072265625,-5.629938900372386,-2.8393250160247088,-1.8329291286319491,0.7024204730987549,0.1583369374275207,-1.1651041507720947
1772650572107897000,2.63989697265625,-6.464188415077328,-2.987223082640767,-3.0363074315443632,0.529294490814209,0.2928934395313263,-0.9358859062194824
1772650572117868800,2.649868896484375,-6.539218229359388,-3.623284020906687,-3.2089164533078667,0.2676355838775635,0.3623689711093902,-0.7128478288650513
1772650572127842000,2.659842041015625,-6.050735624235868,-5.098756971207261,-2.2953157539904114,-0.0548668131232261,0.3276003301143646,-0.5441019535064697
1772650572137814000,2.66981396484375,-4.77892880500257,-6.310512349581718,-0.7750402237586677,-0.3579753935337066,-0.0020186454057693,-0.5859928727149963
1772650572147787000,2.679787109375,-2.6812451626122,-6.372363533338904,0.4879346889171749,-0.5721254944801331,-0.4827623665332794,-1.05612313747406
1772650572157759000,2.689759033203125,-0.9412754727065564,-6.047783788692951,1.1685427710484713,-0.6973298192024231,-0.7764486074447632,-1.991855502128601
1772650572167732000,2.69973193359375,-0.8493570674657821,-5.462643474847078,1.5003537090569734,-0.6913453936576843,-0.7045935392379761,-3.1920554637908936
1772650572177704000,2.709703857421875,-2.516439800336957,-3.811387256661057,1.0662889228194952,-0.6153919696807861,-0.3538084328174591,-4.327584266662598
1772650572187677000,2.719677001953125,-5.853100005504489,-1.8241694835931064,0.4674681664064526,-0.5062755942344666,0.1859916746616363,-5.020325660705566
1772650572197649000,2.72964892578125,-9.48648456466496,-0.5846379172816872,0.4428308610171079,-0.3463543057441711,0.7033160328865051,-5.124245643615723
1772650572207622100,2.7396220703125,-11.884428918480872,-0.021277765828371,0.3675978523131459,-0.2057841420173645,0.9847288131713868,-4.718710899353027
1772650572217593900,2.74959375,-12.673261082357168,0.173396957270801,0.1486629317750223,-0.0980768054723739,0.9452447891235352,-4.0314788818359375
1772650572227566800,2.75956689453125,-12.651501670491694,0.0320212781608104,0.1770546943270601,-0.0502142123878002,0.8532178997993469,-3.161932945251465
1772650572237539000,2.7695390625,-12.430363011097906,-0.185521402567625,0.2426710575703531,0.0165651887655258,0.5998892784118652,-2.139643669128418
1772650572247511800,2.77951171875,-11.52107608332634,-0.1024617188259959,0.1824707097601145,0.132418543100357,0.2844112515449524,-1.061001539230347
1772650572257484000,2.789484130859375,-9.92028105535507,-0.1839911242604255,0.1218292214530985,0.2561987042427063,-0.0425249300897121,-0.07498100399971
1772650572267457000,2.79945703125,-7.692233833995461,-0.3050479457020759,-0.0270867261017672,0.3752071261405945,-0.3425345420837402,0.6867091655731201
1772650572277429000,2.809428955078125,-5.192144864478707,-0.4255032941192388,-0.2251606631851755,0.4695137739181518,-0.4400947391986847,1.1660171747207642
1772650572287402000,2.819402099609375,-2.805739557287097,-0.6228662333890795,-0.553152170769684,0.5097970366477966,-0.3403835892677307,1.3755311965942385
1772650572297374000,2.8293740234375,-0.744803052535653,-0.8257450134709476,-0.91090875681974,0.4956088066101074,-0.1406389027833938,1.4027931690216064
1772650572307347000,2.839346923828125,0.9493220010399818,-0.8926303920030594,-1.0993620481207966,0.4501651525497436,0.0821952298283577,1.3251335620880127
1772650572317319000,2.84931884765625,2.406182605329156,-0.9049091510787606,-1.0532668710958213,0.3830815255641937,0.2540774941444397,1.1957944631576538
1772650572327292000,2.8592919921875,3.5391385877549646,-0.7872615535587072,-0.7866315850920975,0.3145578503608703,0.3114638328552246,1.0522575378417969
1772650572337264000,2.86926416015625,4.362276341336965,-0.664309419889748,-0.4034927935695275,0.2597496509552002,0.2751277387142181,0.9414490461349488
1772650572347236900,2.87923681640625,4.920017776125669,-0.412889896261692,0.0142657818741863,0.2418806403875351,0.1403201222419738,0.8828778862953186
1772650572357209000,2.889208984375,5.407720629048347,-0.0685559420928359,0.3429897730182856,0.2524363696575165,-0.0671828091144561,0.8419144749641418
1772650572367182000,2.89918212890625,5.909336856511235,0.218843534193933,0.4741659104794263,0.2706659734249115,-0.3249823749065399,0.7737023830413818
1772650572377153800,2.90915380859375,6.2230801498442885,0.4733522560089826,0.367914297851175,0.2571529448032379,-0.5270549058914185,0.6468203067779541
1772650572387127000,2.919126953125,6.247617209729552,0.7064800438821315,0.223290412333887,0.2213366329669952,-0.6331725716590881,0.4779005348682403
1772650572397099000,2.92909912109375,6.028241468355059,0.8818398256585002,0.1525450156390667,0.1877055019140243,-0.6839237213134766,0.300695925951004
1772650572407072000,2.939072021484375,5.5253030523777005,1.0733011396691203,0.2250924385208636,0.1548298448324203,-0.6918652653694153,0.1477982699871063
1772650572417044000,2.9490439453125,4.597859121146798,1.3560522056281563,0.59800129325632,0.1760225743055343,-0.5955703854560852,0.0811060965061187
1772650572427017000,2.959016845703125,3.580554301726818,1.4349322655975818,1.1410223845034837,0.2594037353992462,-0.4372929036617279,0.0737632289528846
1772650572436989200,2.9689892578125,3.496742630574107,1.692410943134129,0.9557477963037788,0.352759838104248,-0.3440099060535431,0.0222411658614873
1772650572446962000,2.9789619140625,3.21002938298583,1.934305682569742,0.9902065307445824,0.4331215322017669,-0.2655076384544372,-0.0541595965623855
1772650572456934000,2.988933837890625,2.727278599512577,1.6775383681729434,0.8241936923757195,0.4957246780395508,-0.2339065372943878,-0.1440460979938507
1772650572466907100,2.9989072265625,1.7975199615985151,1.4359125088065865,0.4636208067959174,0.5109419822692871,-0.2679571807384491,-0.2238684892654419
1772650572476878800,3.00887890625,0.6614455548912286,1.3154299801215528,0.1469502643719315,0.4813516438007355,-0.3251110315322876,-0.2808971405029297
1772650572486851800,3.018851806640625,-0.4577408453792333,1.0811971536159517,0.0158003573305904,0.4446434378623962,-0.413055807352066,-0.3465248644351959
1772650572496824000,3.028823974609375,-1.483427124175429,0.7304711603224278,0.1468155320763587,0.41014564037323,-0.4759890139102936,-0.4327332973480224
1772650572506797000,3.038797119140625,-2.359350127005577,0.4266691230282187,0.451777991452068,0.4075639545917511,-0.5212012529373169,-0.526470422744751
1772650572516769000,3.04876904296875,-3.028756870034337,0.2644146142795682,0.5339313009385019,0.4457705020904541,-0.5270154476165771,-0.606938898563385
1772650572526742000,3.058741943359375,-3.452764372637868,0.1700195897921919,0.1483128579620271,0.4690883457660675,-0.4897516965866089,-0.6810815930366516
1772650572536714000,3.0687138671875,-3.617600714573264,0.078773969246447,-0.5601441120162606,0.4260792136192322,-0.3872248232364654,-0.7511104345321655
1772650572546687000,3.07868701171875,-3.693846334385872,0.0374485639065504,-1.2340396908968687,0.3328195810317993,-0.2497971653938293,-0.7925904989242554
1772650572556659000,3.088658935546875,-3.6459827594488856,0.1070733042746782,-1.6171157559141516,0.2241552919149398,-0.1111678481101989,-0.7653607130050659
1772650572566632000,3.0986318359375,-3.266543297368288,0.1603276323392987,-1.692050877650082,0.1062955036759376,-0.0336123332381248,-0.651625394821167
1772650572576604000,3.10860400390625,-2.696723302251101,0.1322869482472539,-1.4555407538622618,-0.0053201280534267,-0.0017136561218649,-0.4591827094554901
1772650572586577000,3.118576904296875,-1.9161048399686813,0.1508835121676325,-0.9902780616108328,-0.0748938843607902,-0.0025128705892711,-0.2328771352767944
1772650572596549000,3.128549072265625,-0.8720353477418422,0.0835398684740066,-0.5585048934418708,-0.1089351698756218,-0.0403524562716484,0.0041974475607275
1772650572606522000,3.138522216796875,0.4264987348973751,-0.0713020259305834,-0.2408059212855994,-0.1301837265491485,-0.1173556298017501,0.2145285755395889
1772650572616493800,3.148493896484375,1.7922680324196814,-0.226739840401709,0.0435032608356326,-0.1411164999008178,-0.2284198403358459,0.3709810376167297
1772650572626467000,3.158467041015625,3.0097306825250385,-0.4447147750675678,0.3043635436344891,-0.1492995917797088,-0.3626972436904907,0.4805403053760528
1772650572636439000,3.16843896484375,4.022486752599478,-0.6401406087949871,0.543458569348976,-0.1583541929721832,-0.4845737218856811,0.5394102931022644
1772650572646411800,3.178411865234375,4.909378893211484,-0.7997671071276068,0.7736302108302712,-0.1677847057580948,-0.5976331830024719,0.5544552803039551
1772650572656384000,3.188384033203125,5.704750103467703,-0.9398407637283206,0.916027634203434,-0.1802011877298355,-0.6918045282363892,0.5243973135948181
1772650572666357000,3.19835693359375,6.576913461503386,-0.6874845437720417,0.4351566731274128,-0.2662311494350433,-0.8070975542068481,0.4241593778133392
1772650572676329000,3.208328857421875,6.851623552086949,-0.9089864835202692,0.8086145765803754,-0.3082481920719147,-0.7600001096725464,0.3615279197692871
1772650572686302000,3.218302001953125,6.996391503983736,-1.1905597378715873,1.2317927887529134,-0.2989409565925598,-0.6993916034698486,0.2734555900096893
1772650572696274000,3.22827392578125,7.190683072984219,-0.8759650884062051,0.8911628036685287,-0.2950794696807861,-0.5844948887825012,0.1573936492204666
1772650572706247200,3.2382470703125,7.326931618338823,-0.4860647303268313,0.2411335458047687,-0.315969318151474,-0.392272412776947,-0.00443572178483
1772650572716219000,3.248218994140625,7.307170686814189,-0.4361114896342158,-0.4197285101100802,-0.3731878399848938,-0.1712694615125656,-0.252700924873352
1772650572726191900,3.25819189453125,6.925501858246326,-0.6942389864683151,-0.9408458491176366,-0.481515884399414,0.0391295813024044,-0.5251781940460205
1772650572736164000,3.2681640625,5.970550326886773,-1.0885843412578105,-1.3741362899817526,-0.6286918520927429,0.1591562628746032,-0.7744410037994385
1772650572746136800,3.27813671875,4.122738101899624,-1.3590189464792608,-1.4594263631239532,-0.7551576495170593,0.1469557881355285,-0.9286715984344482
1772650572756109000,3.288109130859375,0.5179162048786878,-1.4568500828951596,-0.9905135508671402,-0.8065584301948547,0.2221520245075225,-0.7250046133995056
1772650572766082000,3.29808203125,-2.919672810459137,-1.6126228284090756,-0.6721063573762774,-0.8291130065917969,0.5232449769973755,-0.1601334810256958
1772650572776054000,3.308053955078125,-4.273168901863694,-0.8012664057746529,-0.901019011772424,-0.851302981376648,0.5532375574111938,0.4253451824188232
1772650572786027000,3.318027099609375,-5.685894596350193,-0.306493176074326,0.1285026804681867,-0.8299348950386047,0.5354718565940857,0.9960707426071168
1772650572795999000,3.3279990234375,-6.865420022249221,-0.6111728729858994,1.7992115679472684,-0.6737660765647888,0.3881906270980835,1.48917818069458
1772650572805972000,3.337971923828125,-8.084050547090172,-1.0775710720732807,3.764283267919719,-0.3989302814006805,0.0868004411458969,1.8674825429916384
1772650572815944000,3.34794384765625,-9.20426979753971,-1.724101089644432,5.317959109580516,-0.0263371504843235,-0.3193061351776123,2.029847383499145
1772650572825917000,3.3579169921875,-10.435074159777164,-3.083621848165989,5.845111344838142,0.3721345961093902,-0.6670709848403931,1.8872922658920288
1772650572835889000,3.367888916015625,-11.848125432956218,-4.693113977333903,5.058953953129053,0.7221702933311462,-0.8331809043884277,1.4356437921524048
1772650572845862000,3.37786181640625,-14.028100989586116,-5.729203576722741,2.7702622934535146,0.9358360171318054,-0.753500759601593,0.8160111904144287
1772650572855832800,3.387832763671875,-17.375786446636916,-5.764480641809105,-0.521585394910723,0.978826344013214,-0.3253931105136871,0.3460684716701507
1772650572865805600,3.3978056640625,-21.018780545663837,-5.14898201457858,-2.831263582383096,0.9778902530670166,0.2809911072254181,0.2555790543556213
1772650572875777800,3.40777783203125,-23.06772149219513,-4.365487704598904,-3.4372944163054227,1.0230329036712646,0.734451949596405,0.4652537703514099
1772650572885750800,3.417750732421875,-23.126751188790795,-3.695751583485305,-3.339470001891255,1.0845032930374146,0.93829745054245,0.8972121477127075
1772650572895722800,3.42772265625,-21.52315279383659,-3.1684558481037617,-3.0428423862710594,1.1474931240081787,0.9068912267684937,1.456845760345459
1772650572905695700,3.43769580078125,-18.430237047624587,-3.0049568922519683,-2.342202154458314,1.19019877910614,0.6582896709442139,1.993611216545105
1772650572915667700,3.447667724609375,-14.129815981698036,-3.434722519990802,-1.5544906651750203,1.1707135438919067,0.1356880813837051,2.33453369140625
1772650572925640700,3.457640625,-9.151242556229231,-3.617076982960105,-1.4064429609552025,1.078577160835266,-0.5369899272918701,2.3216958045959477
1772650572935612700,3.46761279296875,-5.090669526341557,-3.4845085874229667,-1.3351537945061922,1.0114850997924805,-0.8544242978096008,2.0342013835906982
1772650572945585700,3.477585693359375,-1.9046645775437356,-3.6886481812208887,-1.1057939808644357,1.0122177600860596,-0.8656734824180603,1.43053936958313
1772650572955558000,3.487557861328125,0.9687257896900175,-2.795809699425101,-2.3879192188858984,0.8970338702201843,-0.5946203470230103,0.6095789670944214
1772650572965530600,3.497530517578125,2.7761703484535216,-1.549846346500516,-3.780278417170048,0.6829079985618591,-0.0298576075583696,-0.2649472057819366
1772650572975502800,3.5075029296875,3.4369717602223155,-0.6466904688298701,-3.7015731292456384,0.5336511731147766,0.7263070344924927,-1.074665904045105
1772650572985475800,3.517475830078125,3.564859888988733,0.9221955091834068,-3.792614167129993,0.3893794417381286,1.4495501518249512,-1.6796878576278689
1772650572995447600,3.527447509765625,2.8723966800212857,2.5572657317221164,-3.836640940383076,0.2112021893262863,1.999752640724182,-1.8909101486206052
1772650573005420800,3.5374208984375,2.1662655957072974,3.472738070130348,-3.2897061462908983,0.0510021410882473,2.247824192047119,-1.6977195739746094
1772650573015392800,3.547392822265625,2.268578553712368,4.172999677889049,-2.621142283827066,-0.0950381457805633,2.2289605140686035,-1.2208905220031738
1772650573025365800,3.55736572265625,3.082366295146942,4.681164304082095,-2.020111157888174,-0.2243521958589553,1.9467335939407349,-0.578759491443634
1772650573035337700,3.567337646484375,4.375974027299881,4.887393563635647,-1.8016382105723023,-0.393213152885437,1.4057925939559937,0.1147684380412101
1772650573045310700,3.577310791015625,5.484824326995015,5.001731598216295,-1.3616393581107258,-0.5472882390022278,0.8219683766365051,0.8445941209793091
1772650573055283000,3.587282958984375,6.665629271310568,4.8115953953295945,-0.1986936764169484,-0.631538450717926,0.2245955169200897,1.471632957458496
1772650573065255700,3.597255615234375,8.026398568588494,5.044761177125573,0.5711574542660266,-0.6685563921928406,-0.3090622723102569,1.9302434921264648
1772650573075227600,3.6072275390625,9.026113370782136,5.507483902570605,1.1860337118145077,-0.6463083028793335,-0.6749897599220276,2.218923807144165
1772650573085200000,3.617199951171875,9.861915375626086,5.782809494704008,1.7302359391376376,-0.6074151992797852,-0.8954262733459473,2.302417755126953
1772650573095172600,3.627172607421875,10.299972446370123,5.874536176764964,2.3683403659299014,-0.5244519114494324,-1.0103580951690674,2.2499237060546875
1772650573105144800,3.637144775390625,10.239338821709156,6.067056644439697,2.961213612115383,-0.3780584335327148,-0.9885214567184448,2.099582433700561
1772650573115117800,3.647117919921875,9.955912340706586,6.3431310091137885,3.226617237432301,-0.2040455937385559,-0.8553406000137329,1.894386649131775
1772650573125089500,3.657089599609375,9.542622631472348,6.485983482778072,3.218015705564618,-0.0479276292026042,-0.6782276034355164,1.673974633216858
1772650573135062800,3.667062744140625,9.041563453370332,6.642176499530673,2.9838220420256256,0.0770853459835052,-0.5373201370239258,1.486137628555298
1772650573145034800,3.67703466796875,8.490344113826751,6.85579937646687,2.5694530131220814,0.1455301791429519,-0.4958702027797699,1.375388264656067
1772650573155007700,3.6870078125,7.938598704582453,6.979592929396033,2.067187381839752,0.1396836191415786,-0.5886642932891846,1.3532509803771973
1772650573164979700,3.696979736328125,7.408071439933776,6.96378336584568,1.6869377724200487,0.0813561230897903,-0.7588083148002625,1.412822961807251
1772650573174952700,3.70695263671875,6.959796926558018,6.940850818547606,1.4195014722317456,-0.0111247058957815,-0.8415966033935547,1.5012538433074951
1772650573184925000,3.716925048828125,6.836315508317947,6.933007703831792,1.3068383851259946,-0.1036035045981407,-0.7591896057128906,1.517242431640625
1772650573194897700,3.726897705078125,7.135677809599041,6.963262556841969,1.4949576952323316,-0.1625503301620483,-0.5424787402153015,1.39479398727417
1772650573204869600,3.73686962890625,7.59219758875072,6.895866013917327,1.814607582260668,-0.1748552024364471,-0.2815488278865814,1.1649363040924072
1772650573214843000,3.7468427734375,8.012610281732679,6.793873373907804,1.948479315481335,-0.1619113087654113,-0.0300040021538734,0.854314386844635
1772650573224814600,3.756814697265625,8.2518492459625,6.647034460955858,1.9103563594445585,-0.146697461605072,0.1908074617385864,0.4968989789485931
1772650573234787600,3.76678759765625,8.064672477403283,6.355374404615163,1.8293869259804487,-0.1382056623697281,0.349711924791336,0.1370945274829864
1772650573244759800,3.776759765625,7.270928576087951,6.053500412774086,1.907739601074904,-0.0967016294598579,0.4149612486362457,-0.1356520503759384
1772650573254732500,3.786732666015625,6.134260879662633,5.848838840928673,1.8469642298556863,-0.0060647730715572,0.3910592794418335,-0.3118567764759063
1772650573264704800,3.796704833984375,5.001410695698857,5.538876819700002,1.5482567392215132,0.0894939675927162,0.3516024351119995,-0.4148300290107727
1772650573274677800,3.806677734375,3.8187043016761537,4.659776355877519,1.1915377891235053,0.1752576678991317,0.3514280319213867,-0.4655698239803314
1772650573284649700,3.816649658203125,2.575325120025873,3.125457833376527,0.6587449176304042,0.2084670215845108,0.3098094761371612,-0.4837152659893036
1772650573294622700,3.826622802734375,1.1024398481309414,1.6157342384278772,0.1370903299409896,0.1914846748113632,0.3126011490821838,-0.4520691931247711
1772650573304594700,3.8365947265625,-0.8463555475622415,0.2714280001729726,-0.0918603183779865,0.157778650522232,0.376544713973999,-0.3065495491027832
1772650573314567700,3.846567626953125,-1.731152761721611,-0.4476543356508016,-0.2225083403117954,0.1463907063007354,0.4609125554561615,-0.1883466243743896
1772650573324539600,3.85653955078125,-2.1138450881183144,-1.0850964991420506,-0.2875608043283224,0.1403815448284149,0.4877292811870575,-0.0967796966433525
1772650573334512600,3.8665126953125,-2.4167712193608284,-2.420421558561921,-0.2872842524092644,0.0899442136287689,0.3974204361438751,-0.0294519029557704
1772650573344484900,3.87648486328125,-2.163980115118622,-3.6754859173089263,-0.3993308150518685,-0.0014448231086134,0.1849443912506103,-0.056918416172266
1772650573354457600,3.88645751953125,-1.650440810149908,-4.303300420755147,-0.3907403160348534,-0.0753524452447891,-0.0716957375407219,-0.2183650583028793
1772650573364429800,3.896429931640625,-0.8932295269399881,-4.408777980270981,-0.600555178990215,-0.1033489257097244,-0.319684237241745,-0.5852093696594238
1772650573374402800,3.90640283203125,-0.4610615142345428,-4.602561599749326,-0.9551935964871198,-0.1374346017837524,-0.3971226811408996,-1.1404824256896973
1772650573384374500,3.91637451171875,-0.8127168973326683,-5.402720628803968,-1.2407191686607897,-0.2465847879648208,-0.2606133222579956,-1.7772748470306396
1772650573394347800,3.92634765625,-1.6793951019555329,-6.193209912237525,-1.232608781310916,-0.4146316051483154,-0.0866545736789703,-2.392141103744507
1772650573404319700,3.93631982421875,-2.6222137124508618,-5.9997787594586605,-1.0558022347923368,-0.5685192346572876,0.0032313801348209,-2.9887170791625977
1772650573414292700,3.946292724609375,-4.068050233900546,-4.858219199338555,-0.7037580715723335,-0.6246100664138794,0.1302040219306945,-3.4844329357147217
1772650573424264700,3.9562646484375,-5.902061312550306,-3.7110441374242304,-0.5510889911621809,-0.5938135385513306,0.2940957546234131,-3.8158926963806152
1772650573434237700,3.96623779296875,-7.638234532782435,-2.8890181444764136,-0.822563972282037,-0.5350992679595947,0.3901155889034271,-3.930634260177612
1772650573444210000,3.9762099609375,-9.172785110473631,-2.146511678445339,-1.4637129544019698,-0.4830432534217834,0.4144203960895538,-3.82935094833374
1772650573454182700,3.9861826171875,-10.387664758348464,-1.5410498765826224,-2.277548626631498,-0.4523220658302307,0.4478431046009063,-3.530823230743408
1772650573464154600,3.996154541015625,-10.9084176479578,-1.0716881515145302,-3.149803170081973,-0.4786588549613952,0.4910435676574707,-3.100160598754883
1772650573474128000,4.0061279296875,-10.48894135904312,-0.8456175886765122,-3.6241570043489335,-0.559963047504425,0.5110234022140503,-2.6284475326538086
1772650573484099600,4.016099609375,-9.321834685212371,-0.7687935844540595,-3.3345284538358446,-0.6184964179992676,0.5153350830078125,-2.167872190475464
1772650573494072600,4.026072509765625,-8.004909205836057,-0.6823302297487854,-2.340930088695884,-0.5966829657554626,0.5367258191108704,-1.7101973295211792
1772650573504044800,4.036044921875,-6.638685734805464,-0.6679840167492628,-1.247373804244399,-0.5028278231620789,0.5509630441665649,-1.2370156049728394
1772650573514017800,4.046017822265625,-5.087433613160252,-0.6450517617121339,-0.4808452055802568,-0.3686286807060241,0.4935563206672668,-0.7807517051696777
1772650573523989800,4.05598974609375,-3.336909211492538,-0.7033277173310518,-0.2200643812257796,-0.2598204314708709,0.3989794850349426,-0.4086290299892425
1772650573533962800,4.065962646484375,-1.666577121436596,-0.9083955318897962,-0.3051358066486194,-0.2088205218315124,0.3176832497119903,-0.1464053690433502
1772650573543934700,4.075934814453125,-0.0856207664012908,-1.009924938301742,-0.4361206958539784,-0.2004813551902771,0.2486788928508758,-0.0030817564111202
1772650573553907700,4.08590771484375,1.4705489379018544,-1.1781459542393684,-0.4731833291828632,-0.237555056810379,0.1480643451213836,0.0169326234608888
1772650573563879700,4.095879638671875,2.904636569368839,-1.3984902483850716,-0.4043810111135244,-0.3083969950675964,0.0317768827080726,-0.075211152434349
1772650573573852700,4.105852783203125,3.979977982693911,-1.521287191492319,-0.2176279478590935,-0.384744793176651,-0.0957058072090148,-0.2534790933132171
1772650573583824600,4.11582470703125,4.629109414935112,-1.49232179377079,0.2297826421637088,-0.4345232546329498,-0.1894416213035583,-0.4776184558868408
1772650573593797600,4.125797607421875,4.7344104488402605,-1.2372715124249458,0.7737931463070213,-0.4297605752944946,-0.2302553355693817,-0.7186699509620667
1772650573603769900,4.135769775390625,4.582036698114872,-0.912597659754753,1.1709947673104704,-0.3854932188987732,-0.2686783671379089,-0.9272047877311708
1772650573613742800,4.145742919921875,4.295138157087564,-0.7562938761040567,1.5534377951212226,-0.3100135922431946,-0.3011066615581512,-1.0889300107955933
1772650573623714600,4.155714599609375,4.16280532387197,-0.3393628877580165,1.633132386343926,-0.2291406095027923,-0.3667338788509369,-1.2434027194976809
1772650573633687800,4.165687744140625,3.9683565184831617,0.0687356825739145,1.7950678922712802,-0.1242662593722343,-0.4335856437683105,-1.3658043146133425
1772650573643659800,4.17565966796875,3.749232706043124,0.3751370887115597,2.1788379309020933,0.02457195520401,-0.5786190032958984,-1.4518808126449585
1772650573653632800,4.1856328125,3.495159160774946,0.7512649420261382,2.5532962435692546,0.2065024524927139,-0.7987051606178284,-1.472166657447815
1772650573663604700,4.195604736328125,3.215315214434266,1.1163745577201247,2.728497912174463,0.4257623553276062,-1.042656660079956,-1.428962469100952
1772650573673577700,4.20557763671875,2.871993944439292,1.408017955186963,2.536448276881873,0.6339421272277832,-1.2241960763931274,-1.3533985614776611
1772650573683549700,4.2155498046875,2.40160579893291,1.5137632257282734,1.8399483597442507,0.7646875977516174,-1.2858909368515017,-1.2689579725265503
1772650573693522700,4.225522705078125,1.6687708320885897,1.5936594770029189,0.9071955084502696,0.8255802392959595,-1.168368935585022,-1.1603083610534668
1772650573703495000,4.235494873046875,0.7907090636640787,1.6831895258024334,-0.0851020762894302,0.8185239434242249,-0.9313488602638244,-1.004422307014465
1772650573713468000,4.245468017578125,-0.0056067339658737,1.865318217191845,-0.9813412333741784,0.7597129344940186,-0.6586021184921265,-0.7976976037025452
1772650573723439600,4.255439697265625,-0.5405003771305084,2.004580265148729,-1.611724272134155,0.647749662399292,-0.4219563007354736,-0.5436149835586548
1772650573733412900,4.265412841796875,-0.7958370742022991,2.0245470945090056,-1.748711799287796,0.5196840167045593,-0.2495528161525726,-0.2840295732021332
1772650573743384800,4.275384765625,-1.0238234075337649,1.974387955980748,-1.569581851322949,0.4103540480136871,-0.0886547341942787,-0.0573591403663158
1772650573753357600,4.285357666015625,-0.8351695521593093,1.972949009218812,-1.0823537763051687,0.3461311459541321,0.0303121842443943,0.0949324443936348
1772650573763329800,4.295329833984375,-0.8280687802433967,2.046096224624664,-0.2419717501945793,0.3461127877235412,0.1152355968952179,0.2339875251054763
1772650573773302800,4.305302734375,-0.850205793249607,2.129177827937156,0.7135705866649746,0.4203029572963714,0.1721887588500976,0.3797646760940552
1772650573783274800,4.315274658203125,-0.6548807895481586,2.259145539456606,1.44717463818565,0.5523542165756226,0.1866886019706726,0.5079548954963684
1772650573793247700,4.325247802734375,-0.3190805627077818,2.219502972637117,1.7632998582191763,0.6896944046020508,0.1710393577814102,0.6250125169754028
1772650573803219700,4.3352197265625,0.0608545739352703,1.9122652618058025,1.8094861475937067,0.7892841100692749,0.092752531170845,0.6949894428253174
1772650573813193000,4.34519287109375,0.6145721600353717,1.384173115349561,1.7544535578101872,0.8216670155525208,-0.0636630430817604,0.6863241195678711
1772650573823164700,4.35516455078125,1.2505892591595649,0.7988822871170937,1.5251557034887373,0.7836179137229919,-0.3178907930850982,0.5881850123405457
1772650573833137700,4.3651376953125,1.8143682205468412,0.3111642366252839,1.2040922964006662,0.693769633769989,-0.6583284735679626,0.4006052315235138
1772650573843109600,4.375109619140625,2.059552941438556,-0.0437184379562735,1.2316954658582806,0.6247490048408508,-0.9353570938110352,0.1607865244150161
1772650573853082400,4.385082275390625,2.0616046132713555,-0.2456779112361371,1.1067078808389603,0.5942835807800293,-1.1154506206512451,-0.1126287952065467
1772650573863055400,4.395055419921875,1.6951608263641595,-0.1723351732581853,0.6244453192740679,0.5600598454475403,-1.188920259475708,-0.3186256289482116
1772650573873027300,4.40502734375,1.094935756111145,-0.0842671598352491,0.2451921735458075,0.547588586807251,-1.1782177686691284,-0.3994138836860657
1772650573883000300,4.415000244140625,0.5832178213506937,-0.0881596372291445,0.0408802919209003,0.5691167712211609,-1.1219030618667605,-0.3710922300815582
1772650573892972500,4.42497265625,0.2416676526814699,-0.0552587997548282,-0.2290356962539255,0.6110773086547852,-1.0313258171081543,-0.2380918860435485
1772650573902945300,4.4349453125,0.0468646270275115,-0.1480418590009212,-0.7616239850856363,0.6306600570678711,-0.9540172815322876,0.0066661974415183
1772650573912917200,4.444917236328125,-0.1136509290993213,-0.4184498684763908,-1.3165230360552669,0.6434577703475952,-0.896891176700592,0.3185996115207672
1772650573922890500,4.454890380859375,-0.3644920683175325,-0.9153370215907692,-1.7724210300467906,0.6436710357666016,-0.8540944457054138,0.6461895108222961
1772650573932862200,4.4648623046875,-0.8498100719302892,-1.7825656997032462,-2.4280299877390266,0.5722010135650635,-0.8186156749725342,0.953588604927063
1772650573942835500,4.47483544921875,-1.6292875474840405,-2.649621943858265,-3.104273591050505,0.4389446675777435,-0.6773941516876221,1.26713764667511
1772650573952807400,4.484807373046875,-2.2057897968441247,-3.096271194119751,-3.5183725708410143,0.2894376814365387,-0.4824582040309906,1.5715728998184204
1772650573962780400,4.494780517578125,-2.5536943029761314,-3.024277386532724,-3.2180314876556397,0.2201116234064102,-0.2266208529472351,1.8779888153076167
1772650573972752400,4.50475244140625,-2.855928944823145,-2.838380428650975,-2.7383883148089048,0.2368732094764709,0.0396058931946754,2.2235357761383057
1772650573982725400,4.514725341796875,-3.055976300871372,-2.750434141911566,-2.743112420721352,0.2615929543972015,0.2188552767038345,2.6061432361602783
1772650573992697600,4.524697509765625,-3.025212913817167,-2.707966580799222,-3.1005899341017007,0.2545144259929657,0.2326903790235519,2.948843717575073
1772650574002670300,4.53467041015625,-2.873515454918146,-2.602386145430803,-3.239660843400657,0.2512358129024505,0.2076798379421234,3.16169810295105
1772650574012642300,4.544642333984375,-3.20887378320992,-2.8421698840618133,-3.3112843563705683,0.2742500305175781,0.2462478876113891,3.2083933353424072
1772650574022615600,4.554615478515625,-3.980232249715924,-3.400673827655613,-3.581117196306586,0.2648461461067199,0.4095427989959717,3.0818026065826416
1772650574032587300,4.564587158203125,-5.227962612313032,-4.051795849192143,-4.160148671883344,0.2140829712152481,0.6535028219223022,2.7927489280700684
1772650574042560300,4.574560302734375,-7.011346496531367,-4.616020508520305,-4.578284944365918,0.0994591936469078,0.8949868083000183,2.465648651123047
1772650574052532500,4.584532470703125,-9.457713812732695,-4.911960726398229,-4.487402019652724,-0.0258303843438625,1.0258187055587769,2.260209083557129
1772650574062505500,4.59450537109375,-11.983937924981117,-4.684926579225063,-4.064363654342293,-0.115856148302555,1.011288285255432,2.239032745361328
1772650574072477400,4.6044775390625,-14.037102626687288,-4.050767090666294,-3.501151386927068,-0.1447021961212158,0.818701982498169,2.388174295425415
1772650574082450400,4.614450439453125,-15.557276888501644,-3.3078555509656664,-2.917749733442068,-0.1325041204690933,0.5057429671287537,2.7512013912200928
1772650574092422400,4.62442236328125,-16.13750137325525,-2.877860790646076,-2.6049831761866806,-0.1577045768499374,0.1235964819788932,3.192915439605713
1772650574102395400,4.6343955078125,-15.113546448296308,-2.785118794062733,-2.343560437199473,-0.2524100542068481,-0.2384245991706848,3.536210060119629
1772650574112367400,4.644367431640625,-12.79679510756731,-3.005730799233913,-1.9343641347587108,-0.3945532441139221,-0.4845547974109649,3.6436944007873535
1772650574122340400,4.65434033203125,-9.9062805870533,-3.2927515053361653,-1.0659816104359925,-0.5439552664756775,-0.6275364756584167,3.487601518630981
1772650574132312300,4.664312255859375,-6.908712636008858,-3.540851236891746,-0.1023044824376702,-0.6848132610321045,-0.7059020400047302,3.1070027351379395
1772650574142285300,4.674285400390625,-3.993320279347896,-3.4797961719483137,0.3091160719238221,-0.8454817533493042,-0.7484511137008667,2.549842834472656
1772650574152257500,4.684257568359375,-1.9068448441922663,-3.270035231137276,1.59082220775038,-0.8960416316986084,-0.6730080842971802,1.899585962295532
1772650574162230500,4.69423046875,-0.1027332292437553,-2.541096687209606,2.5503219039335847,-0.8453859090805054,-0.5951590538024902,1.2239774465560913
1772650574172202200,4.7042021484375,1.090816045832634,-1.4117062883108853,3.0417455309450623,-0.7244528532028198,-0.5376315116882324,0.6104589104652405
1772650574182175500,4.714175537109375,1.8945301370203491,-0.1413666190207004,3.233588537749648,-0.5375402569770813,-0.547153115272522,0.0828392952680587
1772650574192147500,4.7241474609375,2.471293667665124,1.154147823536396,3.0061849727422,-0.3228799402713775,-0.5840400457382202,-0.3552387952804565
1772650574202120200,4.7341201171875,2.7326012558400627,2.3345950404554605,2.295188912740349,-0.1466844230890274,-0.5931118130683899,-0.6862227916717529
1772650574212092400,4.744092529296875,2.7077900551885365,3.4192326899141072,1.103801053481549,-0.0629286915063858,-0.5033525228500366,-0.8979177474975586
1772650574222065400,4.7540654296875,2.5904256585240364,4.383314453190565,0.084293463320285,-0.0735586956143379,-0.2997642457485199,-0.9983447790145874
1772650574232037400,4.764037353515625,2.5566613360881805,5.009733702886105,-0.3698157475583255,-0.1516698896884918,0.0012099044397473,-1.0346907377243042
1772650574242010400,4.77401025390625,2.579102884998917,5.40307134193778,-0.6315332317084074,-0.2837368249893188,0.3218206763267517,-1.0090386867523191
1772650574251982300,4.783982421875,2.61281752307415,6.090872988834977,-0.7647771884195506,-0.4384138882160187,0.622473955154419,-0.9083735346794128
1772650574261955600,4.79395556640625,2.736278483048081,6.846607769751548,-0.476674970690906,-0.5771733522415161,0.8686927556991577,-0.7198161482810974
1772650574271927300,4.80392724609375,2.9526053582459686,7.261503745138644,0.1552060515418648,-0.6679145693778992,1.0266648530960083,-0.4352134764194488
1772650574281900300,4.813900390625,3.28983298754096,7.514700507572293,0.9279321531392634,-0.7062587738037109,1.054823875427246,-0.0751551687717437
1772650574291872500,4.82387255859375,3.8155852928727865,7.778331570258736,1.7141677246510982,-0.6894426941871643,0.9181116223335266,0.3376270532608032
1772650574301845200,4.83384521484375,4.419422708404064,8.063415170818567,2.485403149299324,-0.6109399199485779,0.6438291668891907,0.7597468495368958
1772650574311817500,4.8438173828125,4.976112588313222,8.309705222603679,3.164005006174743,-0.4623009264469147,0.3183971047401428,1.1638389825820925
1772650574321790500,4.85379052734375,5.574597536900639,8.530679046824574,3.61173328384459,-0.268456369638443,-0.008324546739459,1.5073121786117554
1772650574331762400,4.863762451171875,6.1747548026144505,8.57352508586049,3.7728225482061504,-0.0536287799477577,-0.2793637812137604,1.7665573358535769
1772650574341735400,4.8737353515625,6.763683987349271,8.46213099577725,3.5942464347317813,0.1307751536369323,-0.464280366897583,1.912929654121399
1772650574351707400,4.883707275390625,7.37667676923871,8.316262389162182,3.061660191726685,0.269057422876358,-0.5578665137290955,1.9485822916030884
1772650574361680400,4.893680419921875,7.992799081325531,8.113532662162184,2.398065642108023,0.3244130909442901,-0.6028899550437927,1.865087389945984
1772650574371652400,4.90365234375,8.516870886224508,7.786566899162531,1.690977549330145,0.2899780869483948,-0.6131694316864014,1.6753315925598145
1772650574381625300,4.913625244140625,8.86687090333104,7.549293097525835,1.0370582982905208,0.1865384876728058,-0.5728670358657837,1.397992730140686
1772650574391597600,4.92359765625,8.960264057299494,7.441918764477967,0.5056977976880968,0.0337198711931705,-0.4632876217365265,1.0653566122055054
1772650574401570300,4.9335703125,8.921490966790914,7.393417476159334,0.1694289304226637,-0.1477926671504974,-0.310002714395523,0.6968573927879333
1772650574411542500,4.94354248046875,8.779314200431108,7.314462012866139,0.0021425649866461,-0.3351628482341766,-0.1403502374887466,0.313791275024414
1772650574421515500,4.953515625,8.539252813902497,7.184542086011171,0.1496678527675569,-0.5037492513656616,0.0281674079596996,-0.0622020587325096
1772650574431487200,4.9634873046875,8.118003670096398,7.046485029929876,0.5353846415519714,-0.6328831315040588,0.1607199907302856,-0.4033706188201904
1772650574441460500,4.97346044921875,7.505853768771886,6.983788042998314,0.9766017837621273,-0.7202540040016174,0.2416412085294723,-0.6806509494781494
1772650574451432400,4.983432373046875,6.666871380326152,7.085085101959109,1.48304820786044,-0.7438262701034546,0.286035418510437,-0.8695688843727112
1772650574461405200,4.9934052734375,5.708004136827587,7.107334343168139,1.9307396606512368,-0.7050056457519531,0.3015510141849518,-0.972027599811554
1772650574471377400,5.00337744140625,4.6905894272923465,6.794269095227122,2.2085054855436086,-0.6323800086975098,0.288419097661972,-1.0028694868087769
1772650574481350400,5.013350341796875,3.803201612117886,6.075728611195087,2.4082997436136004,-0.5534583330154419,0.2083256095647812,-0.9566848874092102
1772650574491322400,5.023322265625,2.987181581586599,5.135270884612202,2.600709736651182,-0.4561895132064819,0.049360055476427,-0.8539084792137146
1772650574501295400,5.03329541015625,2.233207965123653,4.118186429944634,2.8186516458302733,-0.3492452204227447,-0.1689488440752029,-0.7462581992149353
1772650574511267300,5.043267333984375,1.4883429532676935,2.768711264619231,2.799886739605665,-0.2778453230857849,-0.3798112273216247,-0.6793819069862366
1772650574521239300,5.0532392578125,0.7390244691342115,1.175894960442185,2.677285026809573,-0.260018914937973,-0.5523638129234314,-0.6118417382240295
1772650574531212300,5.06321240234375,0.1690624351978301,-0.3227753255724906,2.854498035237193,-0.2346934378147125,-0.749445915222168,-0.61517333984375
1772650574541184500,5.0731845703125,0.4574316332995891,-1.4921569585978984,2.731415553186834,-0.1837482303380966,-1.0760796070098877,-0.8741455078125
1772650574551157500,5.083157470703125,1.4467898766517635,-2.045429139018059,1.583906437012553,-0.1408353298902511,-1.3330305814743042,-1.5525686740875244
1772650574561129200,5.093129150390625,1.5941349855601787,-2.414911270707845,-0.0347613706491887,-0.0989025309681892,-1.3253140449523926,-2.5825436115264893
1772650574571102500,5.1031025390625,-0.2397007365226745,-2.5196488255113363,-1.887744130142033,-0.1309000253677368,-0.8915011286735535,-3.714889526367188
1772650574581074400,5.113074462890625,-2.3806512737095358,-1.8725714031904932,-3.735893916520476,-0.246136873960495,-0.1625643968582153,-4.704158782958984
1772650574591047200,5.123047119140625,-6.420304265165329,-1.0144704727768898,-4.265611326090991,-0.4066221415996551,0.6487619280815125,-5.193965911865234
1772650574601019400,5.133019287109375,-10.227819064307212,-0.419482718655467,-3.8168832237288353,-0.5737248659133911,1.281147837638855,-5.039734840393066
1772650574610992400,5.142992431640625,-13.231673548275232,-0.174596103927493,-2.0808358218334613,-0.6308693885803223,1.5771950483322144,-4.237540721893311
1772650574620964400,5.15296435546875,-14.264174183261394,-0.588325373622775,0.5735160731561482,-0.4906488955020904,1.3293063640594482,-3.0447280406951904
1772650574630937300,5.162937255859375,-12.955308091700076,-1.484753988865018,3.208648157760501,-0.1676967740058899,0.5418870449066162,-1.8567335605621336
1772650574640909300,5.172909423828125,-10.03000282831192,-2.3381278907567262,4.535428091675043,0.220878392457962,-0.5374988317489624,-1.0373119115829468
1772650574650882600,5.182882568359375,-6.746138393786549,-3.143292765274644,4.298407972538471,0.6042529344558716,-1.5257800817489624,-0.7785332798957825
1772650574660854300,5.192854248046875,-4.392978938114643,-3.565249765089154,2.886387795972824,0.9716663956642152,-2.0192198753356934,-1.0817816257476809
1772650574670827300,5.2028271484375,-3.8105028750419616,-3.516010225623846,0.3037709115035831,1.2163071632385254,-1.8903852701187132,-1.7441039085388184
1772650574680799500,5.212799560546875,-5.123033334329724,-3.338530967475473,-3.101138800156116,1.210882544517517,-1.128351092338562,-2.4307355880737305
1772650574690772200,5.222772216796875,-7.589221787810325,-2.837332380902767,-5.950100244054198,0.984965980052948,0.0235857218503952,-2.82348895072937
1772650574700744400,5.232744384765625,-9.698822077965737,-2.0979814562931653,-6.932384018975496,0.700444757938385,1.1988517045974731,-2.744185209274292
1772650574710717400,5.242717529296875,-10.534292074376344,-1.626288950189948,-6.114246265637874,0.4703504741191864,1.9398436546325684,-2.188506603240967
1772650574720689400,5.252689453125,-9.709847329849003,-1.6867507254153489,-4.237381256906688,0.3705328106880188,2.117323875427246,-1.3040876388549805
1772650574730662400,5.262662353515625,-7.5641738557934755,-1.6762272855743765,-2.3374223728358743,0.4118514060974121,1.8001238107681274,-0.3112728595733642
1772650574740634400,5.27263427734375,-4.512171134728193,-1.493455766236782,-1.162568884270638,0.4926085472106933,1.1766623258590698,0.6258205771446228
1772650574750607600,5.282607666015625,-1.2824924638986588,-1.626716235691309,-0.5168845968086272,0.5606416463851929,0.4369587004184723,1.3825907707214355
1772650574760579300,5.292579345703125,1.862589522880316,-1.981706900691986,-0.1439326701164245,0.5799828767776489,-0.2287258356809616,1.850906014442444
1772650574770552300,5.30255224609375,4.715364972108603,-2.26971252617836,0.2095299085341394,0.590092122554779,-0.6741281747817993,1.981204628944397
1772650574780524500,5.312524658203125,7.033094802480935,-2.5098662671655414,0.5685800780586898,0.5908210277557373,-0.8114676475524902,1.7798243761062622
1772650574790495500,5.32249560546875,6.956244202512503,-2.382867488454282,0.6590345482267439,0.5677205324172974,-0.6735454201698303,1.3046925067901611
1772650574800468500,5.332468505859375,8.508038760471344,-2.644030407461524,0.759019355545193,0.5546683669090271,-0.3531303405761719,0.6620533466339111
1772650574810440200,5.342440185546875,9.299173356071114,-2.804713136848807,0.9083088765196502,0.4979621767997741,-0.0267247334122657,-0.0405915789306163
1772650574820413400,5.352413330078125,9.59681774751842,-2.7646877081915733,0.6573109393045306,0.5112593770027161,0.2534094452857971,-0.6153128743171692
1772650574830385400,5.362385498046875,8.940233076661825,-2.8960584183767435,1.229326106378436,0.5702336430549622,0.243437647819519,-1.104583740234375
1772650574840358400,5.3723583984375,7.920708827626704,-3.1371967864871024,1.6856806119658052,0.5596015453338623,0.0601447746157646,-1.493335485458374
1772650574850330400,5.382330322265625,6.969199545675516,-2.8747727615028618,1.0433853093549608,0.5303428173065186,-0.1682130098342895,-1.8246512413024905
1772650574860302800,5.392302734375,5.359240968039631,-2.67646055868417,0.6540023992784321,0.4943150579929352,-0.3886780142784118,-2.1430022716522217
1772650574870274800,5.40227490234375,3.3815105697631838,-2.7164181828022,0.0535753767125308,0.3968441188335418,-0.5164130330085754,-2.3558003902435303
1772650574880247800,5.412247802734375,0.6419254463851451,-2.601951845666766,-0.816077167546004,0.2632085680961609,-0.5396341681480408,-2.3863933086395264
1772650574890220000,5.422219970703125,-2.534093530449271,-2.187371804361045,-1.5700468384861943,0.1435218900442123,-0.4668811857700348,-2.1882901191711426
1772650574900192800,5.43219287109375,-5.537496178996562,-1.4421043491840362,-1.851611325009167,0.0519504211843013,-0.2853260636329651,-1.7613548040390017
1772650574910164700,5.442164794921875,-8.047509161156416,-0.6170069859668612,-1.8555287907138465,0.0050365203060209,-0.0400559119880199,-1.1802260875701904
1772650574920138000,5.452137939453125,-9.62057622424662,0.2822650360077619,-1.672969014430791,0.0114544723182916,0.1996141970157623,-0.5573021173477173
1772650574930109700,5.462109619140625,-10.048659597986935,1.0346282946646213,-1.30477253863737,0.0554840676486492,0.3757373094558716,0.0286413002759218
1772650574940082000,5.47208203125,-9.355359938195347,1.431916132646799,-0.7388803844884038,0.1253411769866943,0.4245620965957641,0.4994924664497375
1772650574950055000,5.482054931640625,-7.648561865529418,1.5443284598618745,0.0313211670674383,0.2072220742702484,0.3780668973922729,0.8490017056465149
1772650574960028000,5.49202783203125,-5.533478760048747,1.5807400819361208,0.6085229429990053,0.2739819586277008,0.2839393317699432,1.0643041133880615
1772650574970000000,5.501999755859375,-3.333383375453949,1.6024661760538816,0.8983721505254506,0.2958511114120483,0.1950579434633255,1.1351196765899658
1772650574979971800,5.511971923828125,-1.2139186938881874,1.4950921352669595,0.9360967548944056,0.2901141345500946,0.1488169431686401,1.0840482711791992
1772650574989944800,5.52194482421875,0.5867448264330625,1.333854110084474,0.894052972152084,0.2309772372245788,0.0726842209696769,0.97409325838089
1772650574999916800,5.531916748046875,2.027196147713065,0.9290911139160394,0.8608686415612697,0.1841985583305359,0.0463341027498245,0.7624952793121338
1772650575009889800,5.541889892578125,3.41324075602293,1.0531044470757245,0.8995115298189222,0.1161552369594574,0.0525174997746944,0.5066408514976501
1772650575019862000,5.551862060546875,4.4147973866909735,0.8926274693936109,1.0202192455619572,0.0287851803004741,0.0419796369969844,0.2392581403255462
1772650575029834800,5.561834716796875,5.113389892193675,0.5270934908077121,1.1355053746476769,-0.0602890290319919,0.0048512346111238,-0.0313946157693862
1772650575039806700,5.571806640625,5.655722745448351,0.3347282136946916,1.3556373412169516,-0.1620827615261078,-0.0392304733395576,-0.2953759431838989
1772650575049780000,5.581780029296875,6.019022973632812,0.1181333352103829,1.527385508367419,-0.2509058713912964,-0.0769179239869117,-0.5400893092155457
1772650575059751700,5.591751708984375,6.109922557219862,-0.0351899713248014,1.692011714683473,-0.3258019685745239,-0.0745354667305946,-0.7318198680877686
1772650575069724700,5.601724609375,6.098721948769688,0.0632780016899108,1.9852499801263213,-0.3808667957782745,-0.1107372343540191,-0.8255882859230042
1772650575079697000,5.61169677734375,5.584356129848957,-0.5818213985562324,2.311587966616452,-0.5066782832145691,-0.218754231929779,-0.8637535572052002
1772650575089670000,5.621669921875,5.38572623938322,-0.7843298840209841,1.9553886564783751,-0.6462593674659729,-0.3043682873249054,-0.8808870315551758
1772650575099641900,5.631641845703125,5.23772003621757,-0.6693064975246786,1.848032589739561,-0.7251869440078735,-0.3764576613903045,-0.92643004655838
1772650575109614800,5.64161474609375,5.109552505987883,-0.9581950433254242,2.217769865234196,-0.7771700024604797,-0.4145416915416717,-1.0050675868988037
1772650575119587000,5.651587158203125,4.815127076587081,-1.4444295772612097,2.516635322909057,-0.806591272354126,-0.3983451724052429,-1.0269489288330078
1772650575129559800,5.661559814453125,4.194887392309308,-1.5876868323341011,2.5640038078054785,-0.8301981091499329,-0.3445819020271301,-0.9567911028862
1772650575139531800,5.67153173828125,3.4010347699224948,-1.5490245087236163,2.5318986507534977,-0.8481664657592773,-0.3309419751167297,-0.7952844500541687
1772650575149505000,5.681505126953125,2.759988444459438,-1.5373685577213765,2.3545849584303795,-0.8726362586021423,-0.4309343099594116,-0.5894933342933655
1772650575159478800,5.691478759765625,1.802588350903988,-2.012284409785271,2.142539559943974,-0.8854681849479675,-0.5287256240844727,-0.3672557175159454
1772650575169452000,5.7014521484375,1.307559100615978,-2.3011934138521557,1.9761698709614572,-0.8943611979484558,-0.6008340120315552,-0.145576074719429
1772650575179423700,5.711423828125,0.724338356655836,-2.4680513247430325,1.6552904421381651,-0.9033759832382202,-0.6120413541793823,0.0807819589972496
1772650575189396700,5.721396728515625,0.084755089482665,-2.66626737371087,0.930890710683912,-0.933352828025818,-0.5846637487411499,0.3123968243598938
1772650575199369000,5.731368896484375,-0.5881038398265839,-3.077448420228064,0.1088102110698819,-0.986554741859436,-0.5739336609840393,0.4800662696361542
1772650575209341000,5.7413408203125,-1.2956991514742373,-3.8322108489811417,-0.7535954308003187,-1.0642848014831543,-0.6247230172157288,0.5273269414901733
1772650575219314000,5.75131396484375,-2.6612416545033453,-4.621749115300179,-1.346070033057034,-1.105632185935974,-0.6021838784217834,0.479034274816513
1772650575229286000,5.761285888671875,-5.051094471800327,-5.104585238969325,-1.7707663947075605,-1.0480570793151855,-0.4525986909866333,0.4308321475982666
1772650575239259000,5.7712587890625,-8.182187096193433,-5.229013582670689,-2.425553953014314,-0.9282022714614868,-0.1373722851276397,0.5114356279373169
1772650575249230800,5.78123095703125,-11.88786356910467,-5.023590378803014,-3.5467496472805737,-0.8276943564414978,0.3831865787506103,0.9298384189605712
1772650575259203800,5.791203857421875,-15.227375072050094,-4.269991440871357,-4.942179923573136,-0.8008148074150085,0.9866902828216552,1.788879156112671
1772650575269175800,5.80117578125,-16.797489715075493,-3.351772141842544,-6.071587858128547,-0.816352128982544,1.4759618043899536,2.883955478668213
1772650575279148800,5.811148681640625,-15.843613119471073,-3.177921303324401,-6.447938706544042,-0.8585110306739807,1.7088781595230105,3.75761604309082
1772650575289121000,5.82112109375,-13.645850561738014,-4.00548330308944,-5.788554760357737,-0.8897121548652649,1.6895298957824707,4.183967113494873
1772650575299094000,5.831093994140625,-12.0520066680789,-5.568723676431179,-4.301956020408869,-0.8451622724533081,1.5202513933181765,4.145042896270752
1772650575309065700,5.841065673828125,-11.89719020037651,-7.434782921248674,-3.090504593417048,-0.7209106683731079,1.3390121459960938,3.782705068588257
1772650575319039000,5.8510390625,-13.502073374444246,-8.267499819558859,-3.6645828305006014,-0.6870900988578796,1.2812739610671997,3.4106268882751465
1772650575329011000,5.861010986328125,-16.227274583160877,-7.452876796343922,-5.169848276996612,-0.7834051251411438,1.2867016792297363,3.295414686203003
1772650575338983700,5.870983642578125,-18.98928664240241,-5.364972205168009,-5.8318660788178445,-0.848905622959137,1.3239129781723022,3.5821635723114014
1772650575348956000,5.880955810546875,-20.756374640858173,-3.195980399367213,-5.732364086580276,-0.8725066184997559,1.4083518981933594,4.253250598907471
1772650575358929000,5.890928955078125,-20.13719995546341,-1.4808487981200218,-5.248363595306873,-0.8903852105140686,1.4698759317398071,5.067208766937256
1772650575368900900,5.90090087890625,-16.72136158416271,-0.5411924510478973,-4.536176571954787,-0.9635049700737,1.3815315961837769,5.665551662445068
1772650575378873900,5.910873779296875,-11.74166763023138,-0.4439245014727115,-3.5880358896538613,-1.1385225057601929,1.1773873567581177,5.839746952056885
1772650575388845800,5.920845703125,-6.699124713677167,-0.6516624120235442,-1.9819288728795943,-1.3194414377212524,0.980096995830536,5.571312427520752
1772650575398819000,5.930819091796875,-1.8427391595065592,-0.2748801864534616,-0.4354890468869358,-1.4883822202682495,0.8085070848464966,4.881805896759033
1772650575408790800,5.940790771484375,0.7225169864475727,-0.998787165954709,2.018396316794306,-1.4730759859085083,0.864021360874176,4.052293300628662
1772650575418763800,5.950763671875,2.8864719671249386,-0.435975003772974,3.186624249739945,-1.385758399963379,0.8408904671669006,3.100125789642334
1772650575428735700,5.96073583984375,3.775321087023616,0.4619523255944252,3.973051982823014,-1.1827235221862793,0.8104581832885742,2.2073004245758057
1772650575438708700,5.970708740234375,3.395226960426569,0.9242413357973098,4.315080290398002,-0.9155139923095704,0.7842755913734436,1.4365026950836182
1772650575448681000,5.980680908203125,2.491500004869699,1.9491841027498245,3.482699492174387,-0.67509925365448,0.8184658885002136,0.8956714868545532
1772650575458654000,5.990654052734375,1.8008800856813787,3.322081644716859,1.8927352164275943,-0.5273260474205017,0.8603361248970032,0.5848528742790222
1772650575468625700,6.000625732421875,1.5630395900726315,4.489761734521389,0.7523151817314326,-0.446390688419342,0.8533262014389038,0.4451378583908081
1772650575478599000,6.010598876953125,1.542412397107482,5.472807725986838,0.0235134159259498,-0.4121893048286438,0.8043661117553711,0.4265178442001343
1772650575488571000,6.02057080078125,1.643107690782845,6.512126808816194,-0.4852817632555961,-0.3966804444789886,0.7604563236236572,0.503362774848938
1772650575498543600,6.030543701171875,1.923264648595452,7.3891007820039984,-0.843381792448461,-0.393104076385498,0.7068096399307251,0.6339260935783386
1772650575508515800,6.040515869140625,2.4915911902844905,8.091802476391196,-1.2876890096284448,-0.428020715713501,0.6354663372039795,0.7860060930252075
1772650575518488800,6.05048876953125,3.275403187911212,8.732717868950962,-1.6861911918364465,-0.4973689019680023,0.5661410689353943,0.8903013467788696
1772650575528460800,6.060460693359375,4.118989563021064,9.391183531248569,-1.9337188225924968,-0.5823740363121033,0.5419300198554993,0.9112988710403442
1772650575538433800,6.070433837890625,4.893443072932958,10.061918892532589,-1.9713411356307564,-0.6542381048202515,0.5623871088027954,0.8370973467826843
1772650575548405800,6.08040576171875,5.459938892063498,10.62292312850952,-1.8467535097144545,-0.6995058059692383,0.617824375629425,0.7032878994941711
1772650575558379000,6.09037890625,5.717278161129356,11.061094765543936,-1.5759243522174655,-0.7033335566520691,0.6818209886550903,0.548474907875061
1772650575568350700,6.100350830078125,5.646853794816136,11.436201166856288,-1.1655731806531549,-0.6473541855812073,0.7350846529006958,0.4112621545791626
1772650575578324000,6.110323974609375,5.327233718404173,11.779109764397145,-0.8216836092509329,-0.5353479981422424,0.7682055830955505,0.3412055671215057
1772650575588296000,6.1202958984375,4.983918293628096,11.924384496772287,-0.7881532417014241,-0.4065539240837097,0.7655356526374817,0.3420247733592987
1772650575598268700,6.1302685546875,4.741643030442297,11.835353629666566,-0.8470311087362468,-0.2773621082305908,0.7252146005630493,0.4123378098011017
1772650575608241000,6.140240966796875,4.723866842994093,11.681104148197171,-1.0321526983313265,-0.1600620001554489,0.6064658164978027,0.5171859860420227
1772650575618214000,6.1502138671875,4.939048639810085,11.471480570030211,-1.2306938876003026,-0.0568485185503959,0.4000900089740753,0.6270498633384705
1772650575628185900,6.160185791015625,5.256653284746408,11.200699635589125,-1.694858482416719,0.0168312899768352,0.1936664879322052,0.6715326309204102
1772650575638158800,6.170158935546875,5.520588298815489,10.966936472421883,-2.3008178585380312,0.0460751950740814,0.0708532184362411,0.6485067009925842
1772650575648130800,6.180130859375,5.676002147889137,10.756136836212873,-2.813971379059553,0.0409956648945808,0.0359580926597118,0.5578830242156982
1772650575658104000,6.19010400390625,5.842722988396883,10.571592754244804,-3.257559780445695,0.0047830641269683,0.0695482790470123,0.4204497635364532
1772650575668075800,6.20007568359375,5.997336042481661,10.374516522961857,-3.485310551455617,-0.0584578439593315,0.1268311440944671,0.2449210882186889
1772650575678048800,6.210048828125,6.148273622924089,10.151552986228465,-3.5122067416876552,-0.123519666492939,0.1686574220657348,0.0433243289589881
1772650575688021000,6.22002099609375,6.253783331143856,9.897840090966223,-3.4616832998916505,-0.190365195274353,0.1872944235801696,-0.1662736237049102
1772650575697993700,6.22999365234375,6.233710849452018,9.665463998243212,-3.36797713445127,-0.2606276273727417,0.1798309087753296,-0.3662016689777374
1772650575707966000,6.239966064453125,6.177634741964936,9.43758346337378,-3.0842449485003947,-0.2987201511859894,0.1416883766651153,-0.5711321234703064
1772650575717939000,6.24993896484375,5.942287524476647,9.186468767911196,-2.6783509024754166,-0.3154583871364593,0.1090191155672073,-0.7975870966911316
1772650575727910700,6.25991064453125,5.491579646474123,8.875887153479457,-2.1392959018476305,-0.2866589725017547,0.1369720250368118,-1.0297502279281616
1772650575737884000,6.2698837890625,4.864620298552513,8.274161031013726,-1.3435402223184705,-0.2200070023536682,0.2048911452293396,-1.2295438051223757
1772650575747856000,6.27985595703125,4.249464201149344,7.264840780606866,-0.5939961127355694,-0.1380298882722854,0.2112083435058593,-1.3707876205444336
1772650575757828900,6.289828857421875,3.74088514893651,6.271555134677887,0.0230599730700254,-0.0704953372478485,0.1175297871232032,-1.458875060081482
1772650575767800800,6.29980078125,3.295776990637183,5.247030300876498,0.8759051749125123,0.0179787669330835,-0.0271872598677873,-1.5193182229995728
1772650575777773800,6.30977392578125,2.8720447978436945,4.114167841953039,1.9885069360956549,0.1611774712800979,-0.2274969220161438,-1.548901081085205
1772650575787746000,6.31974609375,2.6932038959532973,2.9379987407445904,3.031116000381112,0.3355858027935028,-0.4947339594364166,-1.5402060747146606
1772650575797718800,6.32971875,3.054143240225315,1.5550526829719542,3.797501354649663,0.5168112516403198,-0.8510262966156006,-1.617582082748413
1772650575807690800,6.339690673828125,4.196683628076315,0.1559440104275941,3.897200330764055,0.6842429637908936,-1.3220036029815674,-1.9575501680374143
1772650575817664000,6.3496640625,5.519080816861987,-0.6615542759627103,3.1613340333998203,0.8160262703895569,-1.8193860054016116,-2.67195463180542
1772650575827635700,6.3596357421875,5.983507423615455,-0.7930717011421918,1.6275379273377355,0.9198912382125854,-2.170472383499145,-3.716630220413208
1772650575837608700,6.369608642578125,4.695573645445704,-0.5332949757963419,-0.4731085103809833,0.941454291343689,-2.18928337097168,-4.851528167724609
1772650575847581000,6.379580810546875,0.5650432822346687,-0.4678840537309646,-2.6498256497368216,0.7843692302703857,-1.7997220754623413,-5.635171890258789
1772650575857554700,6.3895546875,-4.976795309880376,-0.8244242862612009,-3.774050336435437,0.5133193135261536,-1.262352705001831,-5.75946044921875
1772650575867526700,6.399526611328125,-8.043066794794797,-0.6319885742604732,-3.4955066590383645,0.2960151135921478,-1.0301578044891355,-5.333817005157471
1772650575877500000,6.4095,-9.681275899881124,-0.3039098815828561,-2.7672745098143814,0.1727973073720932,-1.1282366514205933,-4.58905029296875
1772650575887471600,6.4194716796875,-8.874298422983289,-0.2767915730327367,-2.2274372727677223,0.1478728055953979,-1.638100504875183,-3.925689220428467
1772650575897444600,6.429444580078125,-6.652633011615276,-0.4740945988088846,-2.1587029053680595,0.210200086236,-2.381218433380127,-3.739077091217041
1772650575907416800,6.439416748046875,-5.03967525216341,-0.7025970649689436,-3.215056855759024,0.2435946017503738,-2.885792016983032,-4.056171417236328
1772650575917388800,6.449388916015625,-5.651511849755049,-0.7296452308923006,-4.450776754827797,0.220085009932518,-2.946536064147949,-4.560389041900635
1772650575927361800,6.45936181640625,-8.118805049607158,-0.4404430890977382,-5.100537424883246,0.1732715666294098,-2.5762767791748047,-4.956926345825195
1772650575937333800,6.469333740234375,-11.42553130428195,0.066379182575643,-4.874508655360341,0.2074369937181472,-1.8387516736984253,-5.017534255981445
1772650575947306800,6.479306640625,-14.182951359558103,0.571786619015038,-4.007246221108734,0.3690826594829559,-1.0463004112243652,-4.694680690765381
1772650575957278700,6.48927880859375,-16.260906803649664,0.131354051311314,-3.094363606932759,0.5820358991622925,-0.4663419127464294,-3.956333637237549
1772650575967251700,6.499251708984375,-17.42051523067951,-0.9840399709388612,-2.384809562432766,0.7877658605575562,-0.1560815125703811,-2.847796678543091
1772650575977223700,6.5092236328125,-16.826386139214037,-1.7708114028930664,-1.8845666691496967,0.9610081911087036,-0.08602786809206,-1.5574616193771362
1772650575987196700,6.51919677734375,-14.25334649977684,-2.1282941769704222,-1.7618321237541734,1.0447068214416504,-0.1721802502870559,-0.3589815497398376
1772650575997169000,6.5291689453125,-10.52926401708126,-2.491734398147464,-1.269683251208067,1.094109296798706,-0.3091058731079101,0.5693886280059814
1772650576007142000,6.539141845703125,-6.434959982505441,-3.24916750741452,-0.1550041357615962,1.1858245134353638,-0.4738277792930603,1.1336454153060913
1772650576017113600,6.549113525390625,-2.643000479891896,-3.924459509089589,0.7153706218242645,1.2801529169082642,-0.5907474756240845,1.362980842590332
1772650576027086800,6.5590869140625,0.5305927311003208,-4.079549240775406,1.1258165589999407,1.362876296043396,-0.6571542620658875,1.332651138305664
1772650576037058800,6.569058837890625,2.973087589782476,-3.991869788278639,1.4431404142335056,1.423446774482727,-0.6921553611755371,1.1244596242904663
1772650576047031600,6.579031494140625,4.556923299646377,-3.812555423657596,1.6919501937545836,1.4859510660171509,-0.692487895488739,0.83734130859375
1772650576057003800,6.589003662109375,5.414595190992952,-3.4739456923544405,1.6733301028281449,1.5308812856674194,-0.6158032417297363,0.5229508876800537
1772650576066976800,6.598976806640625,5.812804819995165,-3.2490140704184767,1.4962150018170477,1.5255589485168457,-0.4961129426956177,0.2289655804634094
1772650576076948700,6.60894873046875,6.093880353957414,-3.062117580105364,1.1416205695923418,1.480807185173035,-0.427656888961792,-0.0490769706666469
1772650576086921700,6.618921630859375,6.274651931649446,-2.5769167731314897,0.9838051392696796,1.41573965549469,-0.4366410374641418,-0.3059326410293579
1772650576096893700,6.628893798828125,6.012556407967209,-2.640788064539432,1.0294411012850702,1.335263729095459,-0.5535628199577332,-0.5363251566886902
1772650576106867000,6.638866943359375,5.271901707282662,-2.776024802502989,1.00840839625895,1.237355351448059,-0.7149178385734558,-0.7141228914260864
1772650576116838700,6.648838623046875,4.016968281438946,-2.819582789200544,0.7733888032898306,1.088727355003357,-0.8440188765525818,-0.8231553435325623
1772650576126811600,6.658811767578125,2.316099014300108,-2.882471207050979,0.637901013174653,0.9219910502433776,-0.9403377771377563,-0.8406917452812195
1772650576136784000,6.668783935546875,0.5139928939551115,-2.697409530949592,0.7246444999955595,0.7879264950752258,-1.004206299781799,-0.7965506315231323
1772650576146756600,6.678756591796875,-1.3137614623874423,-2.5157018414512278,0.9649868954226374,0.6994805932044983,-1.0333592891693115,-0.7062692046165466
1772650576156728800,6.688728759765625,-3.049845835292339,-2.4640789139807224,1.0504795053996143,0.6313095092773438,-1.0079150199890137,-0.5733998417854309
1772650576166701800,6.698701904296875,-4.7994303257614375,-2.3803154658839105,0.910885595139861,0.5671032071113586,-0.948048770427704,-0.368454098701477
1772650576176673500,6.708673583984375,-6.3642737503856415,-2.1956080100476743,0.67257236745283,0.5169103741645813,-0.8991603255271912,-0.1235341131687164
1772650576186646800,6.718646728515625,-7.614266212695837,-2.104031257851421,0.4301302232675254,0.4682880342006683,-0.8343814611434937,0.1114285662770271
1772650576196618800,6.72861865234375,-8.498268477085233,-2.011169726541638,0.0117738782934844,0.4029401838779449,-0.7455970048904419,0.2969867289066314
1772650576206591700,6.738591796875,-9.07284531134069,-1.903831633850932,-0.5956745673418045,0.2958518266677856,-0.6054811477661133,0.3971628546714782
1772650576216563700,6.748563720703125,-9.439050613316892,-1.762490441532433,-1.2687722738429903,0.1624399572610855,-0.3683618307113647,0.4208492636680603
1772650576226536700,6.75853662109375,-9.617932431739568,-1.3540183617129922,-1.8501438828051089,0.0051603219471871,-0.0357689596712589,0.3795564174652099
1772650576236508700,6.7685087890625,-9.66283715687096,-0.8338038167640567,-2.1566528409704566,-0.1651195436716079,0.3656394481658935,0.3474371135234833
1772650576246481700,6.778481689453125,-9.52147112237215,-0.1820826602905988,-2.0847303450539707,-0.3096251487731933,0.7886111736297607,0.3813650012016296
1772650576256453600,6.78845361328125,-8.967873947781325,0.6497071863025426,-1.6298849288553,-0.3961730897426605,1.193349838256836,0.4894656538963318
1772650576266427000,6.798427001953125,-7.912762252536416,1.528661519652605,-0.9413900389969349,-0.4057418704032898,1.5466299057006836,0.6570793986320496
1772650576276398600,6.808398681640625,-6.4669970427572725,2.30519446618706,-0.2362080721013247,-0.3368602693080902,1.8137431144714355,0.8742383718490601
1772650576286371600,6.81837158203125,-4.698240818828344,2.8481895827427506,0.4048503821909427,-0.224559336900711,1.966339349746704,1.107264518737793
1772650576296343800,6.82834375,-2.6862486699879167,3.1141148938462138,0.7231326341278851,-0.095260739326477,2.013927698135376,1.30990469455719
1772650576306316500,6.838316650390625,-0.7267705522388219,3.118838707497716,0.814497497139126,0.0142192114144563,1.964989185333252,1.4505136013031006
1772650576316288800,6.848288818359375,0.998945571386814,2.8699466565206646,0.7395445474855601,0.0769739374518394,1.8477691411972048,1.5387063026428225
1772650576326261800,6.85826171875,2.514182961320877,2.59380390278548,0.4955770203638822,0.0948281660676002,1.6790751218795776,1.590497612953186
1772650576336233700,6.868233642578125,3.687538758674264,2.2558710478305817,0.1693103455442935,0.0486667938530445,1.4184648990631104,1.6677309274673462
1772650576346206700,6.878206787109375,4.846870122328401,2.124325565600395,0.0244601952567696,-0.0069850170984864,1.227463960647583,1.6485302448272705
1772650576356178700,6.8881787109375,5.901958436697721,1.8815724557697773,0.0251888017922639,-0.0789582729339599,1.1884745359420776,1.5527920722961426
1772650576366152000,6.89815185546875,6.686426560145616,1.4609160171598194,-0.078547978470847,-0.1856316924095153,1.1859779357910156,1.390335202217102
1772650576376123600,6.90812353515625,7.40116472928524,1.1356029898032545,-0.0893342339664697,-0.318433940410614,1.2350759506225586,1.18979811668396
1772650576386096600,6.9180966796875,7.9147128020823,0.8661281695246696,-0.1236804114108905,-0.4681766927242279,1.3037734031677246,0.969352126121521
1772650576396068900,6.92806884765625,8.285055349993705,0.8310974804148078,-0.267650162134692,-0.6467621326446533,1.357846736907959,0.7596263289451599
1772650576406041600,6.93804150390625,8.653549639689922,0.921340938180685,-0.3054284329196438,-0.8304898142814636,1.3937891721725464,0.5996763110160828
1772650576416013800,6.948013916015625,9.00833104585409,0.6841720582231878,0.0312497046998469,-0.9757633805274964,1.305669188499451,0.4743911325931549
1772650576425986800,6.95798681640625,9.480836329644918,0.3412146531045437,0.5662439997939392,-1.0534586906433103,1.046640157699585,0.3488283157348633
1772650576435958500,6.96795849609375,9.881196414679287,0.1076569493815302,1.052512618662417,-1.0631877183914185,0.6762436628341675,0.1833429485559463
1772650576445931800,6.977931884765625,10.028364997977018,-0.2087976487368345,1.4658654562607407,-1.006502985954285,0.3145352303981781,-0.0501848310232162
1772650576455903700,6.98790380859375,9.850313785159589,-0.5806950248748064,1.7087378085568543,-0.8796877264976501,0.0436550267040729,-0.3449240624904632
1772650576465876700,6.997876708984375,9.206882610386607,-0.9495689615383744,1.3579708987310528,-0.7417598962783813,-0.1598618179559707,-0.6711697578430176
1772650576475848700,7.0078486328125,8.056421366408467,-1.5547183364510535,0.3249091592634096,-0.6858835816383362,-0.3176764845848083,-0.988832950592041
1772650576485820700,7.017820556640625,6.284550225329399,-2.5454081206679344,-1.112436195357889,-0.7608192563056946,-0.4199075102806091,-1.2980148792266846
1772650576495794000,7.0277939453125,3.584798515167832,-3.3649726919382807,-2.261995083668828,-0.9353929162025452,-0.5459200143814087,-1.50271737575531
1772650576505765600,7.037765625,-1.338597212958336,-3.812614168107509,-2.847213723447919,-1.137457251548767,-0.5379051566123962,-1.3143603801727295
1772650576515738600,7.047738525390625,-5.213841732501983,-3.9592181032598015,-3.2494498314872384,-1.3168683052062988,-0.4333363771438598,-0.8801689743995667
1772650576525710800,7.0577109375,-8.816242539855837,-4.028754288561642,-3.4484058851674195,-1.4807478189468384,-0.1617545187473297,-0.2601806819438934
1772650576535683600,7.06768359375,-11.589908212012052,-4.248936670143902,-3.437967201000452,-1.6527440547943115,0.2572153210639953,0.4076184034347534
1772650576545655800,7.07765576171875,-13.06912385597229,-4.345694916631281,-2.3933619944617157,-1.6939136981964111,0.6165624856948853,0.9707577228546144
1772650576555628800,7.08762890625,-14.329783258247376,-4.697150393243134,-0.7081368711784481,-1.5893855094909668,0.8426560759544373,1.4198009967803955
1772650576565600500,7.0976005859375,-15.837510710942745,-5.144660059726238,0.8390913287129252,-1.3846029043197632,0.978095769882202,1.7512664794921875
1772650576575573800,7.10757373046875,-17.530544462150335,-5.551206724441051,1.8019979837954043,-1.1610299348831177,1.0725524425506592,1.9829503297805784
1772650576585545700,7.117545654296875,-19.312537768793103,-5.703633666658401,2.488039635282755,-0.9069815278053284,1.142882227897644,2.1396005153656006
1772650576595518700,7.127518798828125,-21.27378640334606,-5.439851212802529,2.892962498188018,-0.6317257285118103,1.270062804222107,2.3052990436553955
1772650576605490700,7.13749072265625,-23.183854301238057,-4.462946208310127,2.959537495596707,-0.3163074553012848,1.4194227457046509,2.604142189025879
1772650576615463700,7.147463623046875,-24.397080921208858,-2.7704747671604157,2.629252232785523,0.0512263439595699,1.5437374114990234,3.1031947135925293
1772650576625436000,7.157435791015625,-24.372327588224408,-0.9767232181847096,1.9975410141617056,0.4356848895549774,1.6360961198806765,3.782660007476807
1772650576635408600,7.16740869140625,-22.528834395480157,0.0996048680901527,0.9968905385531484,0.7637189626693726,1.6182425022125244,4.490814208984375
1772650576645380600,7.177380615234375,-18.78900138594508,0.376520359763503,-0.2540864047497511,0.9402090907096864,1.4452784061431885,5.039833068847656
1772650576655353900,7.187353759765625,-13.98265441266298,0.1727174505740404,-1.2661030546337366,0.951651096343994,1.1544109582901,5.35405969619751
1772650576665325600,7.19732568359375,-8.711904798024893,-0.4242097471773624,-1.9466814722791312,0.8045202493667603,0.8553539514541626,5.38019609451294
1772650576675298800,7.207298828125,-3.2629327056556936,-1.3169172960698603,-2.192828170070797,0.5546097755432129,0.6334455609321594,5.060071468353272
1772650576685270800,7.217270751953125,1.8302695540338756,-1.8243144450217483,-1.8425339923232795,0.3011509776115417,0.5110906958580017,4.394514083862305
1772650576695243800,7.227243896484375,6.186248841053248,-1.7782845152527094,-1.0748466155454517,0.0849212035536766,0.4336480498313904,3.4479546546936035
1772650576705215700,7.2372158203125,9.09003785368204,-0.9644219550162552,-1.0835698740966615,-0.1892278343439102,0.3617356419563293,2.3783390522003174
1772650576715188700,7.247188720703125,9.930990665417909,-0.3689379418104886,-0.2000166686490178,-0.3119814395904541,0.333367645740509,1.3539403676986694
1772650576725161000,7.257160888671875,9.826992530804873,1.2952438089221716,0.2086070946007966,-0.3668482005596161,0.2961942553520202,0.4229676127433777
1772650576735133700,7.2671337890625,9.04020677806437,3.4433301893383264,-0.1145828031219542,-0.3679281175136566,0.3661994338035583,-0.3462278842926025
1772650576745105700,7.277105712890625,7.537355406972765,4.95306430568099,-0.7053514782436192,-0.351799726486206,0.4736948609352112,-0.885641872882843
1772650576755079000,7.287078857421875,5.791327147680521,6.508868683803081,-1.4260177222579715,-0.3370974659919739,0.5399340987205505,-1.126152276992798
1772650576765050600,7.297050537109375,4.183756341964006,7.929266812613606,-2.00092714946866,-0.2995806336402893,0.5498606562614441,-1.1101198196411133
1772650576775023600,7.307023681640625,2.829781527131796,9.046069532617926,-2.519179454433918,-0.2513451874256134,0.5929207801818848,-0.8833177089691162
1772650576784995800,7.316995849609375,2.073600756013393,10.026285269093512,-3.1146780806869265,-0.2120798379182815,0.6165061593055725,-0.4964995086193084
1772650576794968800,7.32696875,1.9388930103600024,10.666740058404208,-3.5760675117015834,-0.1910970509052276,0.5841290354728699,0.0073660314083099
1772650576804940800,7.33694091796875,2.41857739199996,10.874582013851404,-3.732080495712161,-0.1861922889947891,0.4871541261672973,0.5570291876792908
1772650576814913800,7.346913818359375,3.4918121884346007,10.725209783029555,-3.64088339048326,-0.1787807196378708,0.3186031579971313,1.0673640966415403
1772650576824885500,7.356885498046875,5.028487503194809,10.445553468215463,-3.45094212564677,-0.1653265357017517,0.0979849696159362,1.4396889209747314
1772650576834858800,7.366858642578125,6.676442926269769,10.178061053925752,-3.2852631954073903,-0.1388565748929977,-0.1365407109260559,1.6383042335510254
1772650576844830700,7.376830810546875,8.208122332438826,9.79717314660251,-3.313560192348062,-0.127297431230545,-0.3595439493656158,1.6573357582092283
1772650576854803700,7.3868037109375,9.342414531904458,9.41260742754936,-3.5167455541610715,-0.1668725311756134,-0.5078218579292297,1.5271966457366943
1772650576864775400,7.396775390625,10.025141944277284,9.120387399238348,-3.7468589626491062,-0.2429433763027191,-0.6062719225883484,1.2889106273651123
1772650576874748400,7.40674853515625,10.346410372418164,8.956675092896818,-3.898505568143725,-0.3501957654953003,-0.6510314345359802,0.9612640738487244
1772650576884720400,7.416720458984375,10.413065741586683,8.83361803754866,-4.005588809290528,-0.4925597608089447,-0.5978264808654785,0.5735533237457275
1772650576894693400,7.426693359375,10.32070076162219,8.706889600211381,-4.079935902005434,-0.6571199297904968,-0.4984053075313568,0.1533938348293304
1772650576904665300,7.436665283203125,10.106607929086683,8.722052682551741,-4.168797257763147,-0.8446547389030457,-0.3863554000854492,-0.2591763734817505
1772650576914638300,7.446638427734375,9.756530170568825,8.732353127291798,-4.195015110342204,-1.0456156730651855,-0.2991784214973449,-0.6416215300559998
1772650576924610300,7.4566103515625,9.271171250423787,8.71411019911468,-4.150630317431688,-1.2595415115356443,-0.2389715611934662,-0.9647352695465088
1772650576934583600,7.46658349609375,8.715930984801053,8.840447006785869,-3.841155202937126,-1.4371907711029053,-0.2858149707317352,-1.1919628381729126
1772650576944555300,7.47655517578125,8.128620341178774,8.895467467740177,-3.3502824878066777,-1.5574756860733032,-0.4302243888378143,-1.32624351978302
1772650576954528300,7.4865283203125,7.627140891838073,8.823601670446992,-3.053156567275524,-1.642861247062683,-0.6295270919799805,-1.387123703956604
1772650576964500500,7.49650048828125,7.279408819663524,8.769919180098176,-2.8902415487915274,-1.7036285400390625,-0.8236239552497864,-1.4399137496948242
1772650576974473500,7.506473388671875,7.138641920101642,8.58611276475489,-2.6299150806084275,-1.7244303226470947,-1.0151833295822144,-1.504856824874878
1772650576984445400,7.516445556640625,7.078932424548268,8.29342161180079,-2.2708786473482845,-1.696096420288086,-1.2246425151824951,-1.600966453552246
1772650576994418400,7.52641845703125,7.011032608276605,8.034933172699809,-1.8944772377893329,-1.6267898082733154,-1.444375991821289,-1.741074562072754
1772650577004390400,7.536390380859375,6.6347542405754325,7.6661916302442545,-1.3882497171387076,-1.5063713788986206,-1.5472344160079956,-1.9163004159927368
1772650577014362400,7.5463623046875,5.9589832232117645,6.742948657834529,-0.9363760102272032,-1.3714311122894287,-1.4825459718704224,-2.0840940475463867
1772650577024335400,7.55633544921875,4.9808144823938605,5.172926953789592,-0.5831017937555909,-1.31976580619812,-1.3901604413986206,-2.1779730319976807
1772650577034307600,7.5663076171875,3.7183120826005935,3.518596734985709,-0.1662190284654498,-1.3402929306030271,-1.4549013376235962,-2.112118721008301
1772650577044280300,7.5762802734375,2.536663673198223,2.1371622508198023,0.8632786253124475,-1.3967232704162598,-1.7434477806091309,-1.9682615995407104
1772650577054252300,7.586252197265625,1.8390011420220136,0.8097580475270748,2.55442378629446,-1.4161393642425537,-2.239070177078247,-1.9121570587158203
1772650577064225500,7.5962255859375,1.5915040525346993,-0.3498883734256029,4.265060998731851,-1.3191319704055786,-2.78061318397522,-2.1154725551605225
1772650577074197200,7.606197265625,1.8962872098207475,-0.9775777891874312,4.356512663243711,-1.2078001499176023,-3.3349485397338867,-2.695707082748413
1772650577084170200,7.616170166015625,1.467043560129404,-0.5892261218547821,3.146801357917488,-1.0953028202056885,-3.69075870513916,-3.574950218200684
1772650577094142500,7.626142578125,0.1707359213680029,0.8003273713588714,1.1817083228960632,-0.904354453086853,-3.755008220672608,-4.708508968353272
1772650577104115500,7.636115478515625,-2.6098335388273,2.2938410052627325,-1.7448954558700325,-0.7831255793571472,-3.176610946655273,-5.893152236938477
1772650577114087400,7.64608740234375,-7.009034127935767,3.1078613864094016,-4.245447951245308,-0.8682764172554016,-2.067740201950073,-6.813699245452881
1772650577124060400,7.656060302734375,-12.587639146912098,3.643080316005647,-5.143801981592178,-1.1727741956710815,-0.8408790826797485,-6.981890678405762
1772650577134032400,7.666032470703125,-17.34276680508852,3.8493952080160376,-3.3433523962825533,-1.4572354555130005,-0.2958314120769501,-6.221130847930908
1772650577144005400,7.67600537109375,-19.43091747997999,3.4042020017817616,0.522063679946959,-1.4132990837097168,-0.7117066979408264,-4.873720169067383
1772650577153977300,7.685977294921875,-18.61589055213928,2.9473113434910774,3.525836623111367,-1.1020253896713257,-1.803440809249878,-3.518491506576538
1772650577163950300,7.695950439453125,-16.138445960628985,2.1666788526833054,4.465908565247059,-0.7108381390571594,-2.8184993267059326,-2.680246353149414
1772650577173922300,7.70592236328125,-13.598436484134195,1.1163333489269018,3.5601407515123484,-0.3459917902946472,-3.22998309135437,-2.508662700653076
1772650577183895300,7.715895263671875,-12.926045756858588,0.147285926067084,2.3535212747216225,-0.0224067103117704,-2.853682041168213,-2.6866235733032227
1772650577193867500,7.725867431640625,-14.151560195994376,-0.4019362483099102,1.6234208474077283,0.2943520843982696,-1.928403735160828,-2.791522979736328
1772650577203840500,7.735840576171875,-15.855224062287808,-0.8254585977450013,1.3668006863966584,0.6154625415802002,-0.8740574717521667,-2.527428150177002
1772650577213812200,7.745812255859375,-16.65355236878395,-1.4787356053583325,1.2607032414168118,0.8954311013221741,-0.0984318032860755,-1.909538984298706
1772650577223785500,7.755785400390625,-15.989600968551636,-2.4973358714163303,0.9833370833665132,1.087636113166809,0.2654137909412384,-1.0640356540679932
1772650577233757400,7.76575732421875,-14.462260468369722,-3.3573692311972376,0.5441321577616035,1.202040433883667,0.330704391002655,-0.0965044274926185
1772650577243730400,7.77573046875,-12.444426607763766,-3.773421975404024,-0.0014272563241422,1.2469063997268677,0.2355262488126754,0.8946919441223145
1772650577253702400,7.785702392578125,-10.001759899646045,-3.9167826908513903,-0.3568461566742509,1.2461745738983154,0.0209766700863838,1.826382279396057
1772650577263675400,7.79567529296875,-7.308388830432295,-3.6453690114647146,-0.6006904958076775,1.223608374595642,-0.2127541154623031,2.619835615158081
1772650577273647400,7.8056474609375,-4.401791774645448,-3.0495594195663926,-0.6649662763632833,1.17405366897583,-0.4208711087703705,3.191821575164795
1772650577283620400,7.815620361328125,-1.596900358620286,-2.489863051317632,-0.5093570508480072,1.117067575454712,-0.5533542633056641,3.5099332332611084
1772650577293592600,7.825592529296875,0.93671795553267,-2.0809667547367514,-0.2927031356528401,1.0447547435760498,-0.6106534600257874,3.5603179931640625
1772650577303565600,7.835565673828125,3.048010436558723,-1.7256515339568257,-0.1782918897055089,0.9366377592086792,-0.6225996613502502,3.371724843978882
1772650577313537300,7.845537353515625,4.407108585754036,-1.2405045029968025,0.0340106253471225,0.8407002687454224,-0.5679750442504883,3.031970977783203
1772650577323510500,7.855510498046875,5.061275674074888,-0.6771636407658458,0.5572034554544836,0.7891929745674133,-0.450524091720581,2.6150331497192383
1772650577333482500,7.865482421875,5.181651527515053,-0.2722837402194738,0.9736359196938572,0.7699833512306213,-0.3975658118724823,2.190569400787353
1772650577343455200,7.875455322265625,5.062303263556957,0.0266427999928593,1.2174351775765415,0.7476378083229065,-0.4151180684566498,1.7567752599716189
1772650577353427500,7.885427490234375,4.644156761941313,0.4289598643139004,1.5803022750407456,0.7681369781494141,-0.4316304624080658,1.3079253435134888
1772650577363400400,7.895400390625,3.7762282649964094,1.087027759465575,2.0090927741371094,0.86744225025177,-0.4205814898014068,0.88120436668396
1772650577373372400,7.905372314453125,2.7002012074947355,1.7596522954970597,2.213550347843021,1.022192120552063,-0.4036690890789032,0.5075623393058777
1772650577383345400,7.915345458984375,1.4616764801383018,2.208754491868615,2.3035466989800333,1.2331492900848389,-0.3119000196456909,0.2194924652576446
1772650577393317400,7.9253173828125,0.3452425934463739,2.5488635218188165,1.8759734667189416,1.397172927856445,-0.2011782824993133,-0.0392759777605533
1772650577403290600,7.93529052734375,-0.4333008161276578,3.0488498099923134,0.4025993883937597,1.4548808336257937,0.0090515045449137,-0.2646798193454742
1772650577413262300,7.945262451171875,-1.3355068457275627,3.422412488994002,-0.7181304419264197,1.4377431869506836,0.2423454821109771,-0.3899144232273102
