time,seconds_elapsed,acc_z,acc_y,acc_x,gyro_z,gyro_y,gyro_x
1772650728075491000,0.064490966796875,0.5390384878844022,0.2853483889758587,0.2490329207524657,-0.1625952124595642,-0.1198784261941909,-0.0766056403517723
1772650728085463800,0.0744638671875,0.4968558811932801,0.3722816992804408,0.0956292424574494,-0.1602576225996017,-0.0224904678761959,-0.1263825446367263
1772650728095435800,0.084435791015625,0.393256975030899,0.4218842268392443,0.0901686389639973,-0.159409150481224,-0.0558814480900764,-0.1383915245532989
1772650728105408000,0.094407958984375,0.2852168715506792,0.4137470976129174,0.1965492847993969,-0.1864167898893356,-0.1198497787117958,-0.0934719964861869
1772650728115380700,0.104380615234375,0.2020277162104845,0.2893409657433629,0.3915218218013644,-0.2391164898872375,-0.2041990160942077,-0.041248470544815
1772650728125353000,0.11435302734375,0.2780284213513135,0.2456523384034633,0.5501423579618334,-0.3011402487754822,-0.3383269309997558,-0.0189647227525711
1772650728135325000,0.124324951171875,0.4610194286584854,0.3534694467827677,0.6827472861170768,-0.3351083397865295,-0.4873249530792236,-0.0298871453851461
1772650728145297000,0.134296875,0.5201625225007533,0.4277984193190932,0.7987263659030198,-0.3444343209266662,-0.5579236745834351,-0.0901991426944732
1772650728155270000,0.144269775390625,0.5408528438299894,0.4662836327970027,0.8891016333550215,-0.3466263711452484,-0.5616105198860168,-0.191490352153778
1772650728165241900,0.154241943359375,0.4370096075177192,0.5316457472845911,0.8074304813623427,-0.3419131636619568,-0.5506008267402649,-0.3083262741565704
1772650728175213800,0.1642138671875,0.1622930871933698,0.593045680142939,0.678970397926867,-0.3236337602138519,-0.5129940509796143,-0.4153978824615478
1772650728185185800,0.174185791015625,-0.1982125418365001,0.6260024855881929,0.567319994994998,-0.2926413714885711,-0.465463250875473,-0.5034480690956116
1772650728195159000,0.184158935546875,-0.4864928926110267,0.6179185478538275,0.5764890976175665,-0.2463593631982803,-0.4444693028926849,-0.55392986536026
1772650728205130800,0.194130859375,-0.7404290752351284,0.5831786583840847,0.6678221041858196,-0.2227601557970047,-0.4724611043930053,-0.5917986631393433
1772650728215103000,0.20410302734375,-0.7597288189888,0.7849293112188577,0.4467328368917107,-0.2438489198684692,-0.4703508019447326,-0.5971196889877319
1772650728225074700,0.21407470703125,-0.6823579945385456,1.029464920552075,0.1411237501755356,-0.2612616717815399,-0.4240946471691131,-0.5689346790313721
1772650728235048000,0.2240478515625,-0.6248936475634574,0.992945746450126,0.2253554003059864,-0.273213654756546,-0.4496133327484131,-0.5209618806838989
1772650728245020000,0.23402001953125,-0.7715811693459749,0.9949804671481252,0.0826277220651507,-0.2672604322433471,-0.5001249313354492,-0.4500749409198761
1772650728254992000,0.243991943359375,-1.0145441225349905,0.8948124122172594,-0.054845981170237,-0.2484870105981826,-0.4699601531028747,-0.3528359830379486
1772650728264964900,0.25396484375,-1.1597604027211663,0.8807596292063593,-0.220932323166728,-0.2136009335517883,-0.3268299102783203,-0.2415682673454284
1772650728274936800,0.263936767578125,-1.2290040348172186,0.9949915730640292,-0.3408364674419164,-0.1626261621713638,-0.1363121718168258,-0.1719801276922226
1772650728284908800,0.27390869140625,-0.9526257187604904,1.2435884404867887,-0.4541735082864761,-0.0799253731966018,0.0705562308430671,-0.1796795576810836
1772650728294880800,0.283880859375,-0.4860609309345483,1.3911930771142242,-0.2777668478056788,0.056221280246973,0.2822913825511932,-0.2368389815092086
1772650728304854000,0.29385400390625,-0.074697221326828,1.3088152381569147,0.0849818839758634,0.2185171097517013,0.4904574751853943,-0.3284146785736084
1772650728314825700,0.30382568359375,0.0355833545565605,1.073773725616932,0.3758104579284786,0.3606728911399841,0.6075194478034973,-0.4164790213108063
1772650728324798000,0.3137978515625,0.0272591783255338,0.892522839975357,0.545286734624207,0.4632654190063476,0.6605327129364014,-0.5041859745979309
1772650728334770000,0.32377001953125,0.3213303874611854,0.8161781437024473,0.6442559351593256,0.5213638544082642,0.6964718103408813,-0.568283200263977
1772650728344742700,0.33374267578125,0.3867372178733348,0.7659910942539572,0.4356465024709701,0.5499057769775391,0.690751850605011,-0.5657339692115784
1772650728354715000,0.34371484375,0.0780547150611877,0.6665300185486674,0.040108723026514,0.5721993446350098,0.6604748964309692,-0.4629763960838318
1772650728364686800,0.353686767578125,-0.3322282135725021,0.7738038138315081,-0.2921002013236284,0.5823013186454773,0.6213703751564026,-0.293502539396286
1772650728374658800,0.363658935546875,-0.665643006581068,1.032629229801893,-0.4797086392983793,0.5846819281578064,0.5350581407546997,-0.1269716024398803
1772650728384631800,0.3736318359375,-0.8280833932906388,1.2111574124813078,-0.3789046245515346,0.6264843344688416,0.339944452047348,-0.003553821472451
1772650728394604000,0.38360400390625,-0.6859767695575952,1.4075129282742738,0.0318196181088685,0.6897466778755188,0.0682855099439621,0.0789064317941665
1772650728404575700,0.39357568359375,-0.578433509683609,1.35236241119951,0.4180024169698357,0.7690212726593018,-0.0939543023705482,0.1537317186594009
1772650728414549000,0.403549072265625,-0.4810813889563083,1.0494248817801477,0.657017509315908,0.8714091777801514,0.0027389549650251,0.2878623604774475
1772650728424521000,0.41352099609375,-0.6428659421056508,0.5248121018722653,0.8576295135095715,0.8000956773757935,0.1396657973527908,0.3775064647197723
1772650728434493000,0.423492919921875,-0.4689297633916139,0.6739321114987135,0.2172387293457985,0.5261659026145935,0.2534229755401611,0.4527066648006439
1772650728444465000,0.43346484375,-0.2048386819779872,0.523048307070136,-0.7880453974127769,0.0192850343883037,0.3173953592777252,0.5489237308502197
1772650728454438000,0.44343798828125,-0.2178203286260366,-0.3608502046838402,-1.3863169955104588,-0.616426408290863,0.2578705251216888,0.6542909145355225
1772650728464409900,0.453409912109375,0.0010381108760833,-0.9033768269449473,-1.8729668322488664,-1.156556487083435,-0.0158164110034704,0.8170811533927917
1772650728474381800,0.4633818359375,0.2631675368279219,-0.8949941985249519,-1.7945301321327685,-1.4804068803787231,-0.3606947660446167,1.0163732767105105
1772650728484353800,0.473353759765625,0.3364092986494302,-0.549647267921269,-1.1361290595039724,-1.5784659385681152,-0.6461473703384399,1.1644060611724854
1772650728494326800,0.483326904296875,0.4020417545109987,0.4666676636785268,-0.0798556270033121,-1.5185365676879885,-0.8690171837806702,1.2037372589111328
1772650728504299000,0.493299072265625,0.5382897153437137,1.496417538651824,1.1437228756338358,-1.351464867591858,-1.1190032958984375,1.11803936958313
1772650728514270700,0.503270751953125,0.9208101923048496,2.006058082616329,1.7777713050335644,-1.0936591625213623,-1.2595481872558594,0.9680102467536926
1772650728524243000,0.513242919921875,1.3346867615163325,2.0014581876054405,2.1326947500169275,-0.8116448521614075,-1.2254836559295654,0.8202295303344727
1772650728534216000,0.5232158203125,1.2596703912377356,1.5218684985116124,2.365571777999401,-0.5843192934989929,-1.1426202058792114,0.6633408665657043
1772650728544188000,0.53318798828125,1.06338910972476,1.1092132877886294,2.046463742762804,-0.3892087638378143,-1.0921789407730105,0.4823614954948425
1772650728554159900,0.543159912109375,1.0483984613418578,1.0161515577316285,1.4988973727688193,-0.2156694829463958,-1.0795323848724363,0.3143450617790222
1772650728564132900,0.5531328125,1.0140770895451308,0.9042156158566474,1.197747165157646,-0.0320976451039314,-1.0231200456619265,0.1260853260755539
1772650728574104800,0.563104736328125,0.857210703575611,0.8202700891911983,0.9926369727618992,0.1634609401226043,-0.9038003087043762,-0.0936941727995872
1772650728584076800,0.573076904296875,1.0006401003450154,1.0673699960544705,1.0134083965033291,0.2542368471622467,-0.763856828212738,-0.232126772403717
1772650728594049000,0.583049072265625,0.7712181812524795,0.5731994084224105,1.006663744548708,0.178384393453598,-0.6724672317504883,-0.2964695394039154
1772650728604021800,0.593021728515625,0.2196469595313072,-0.4419190068691969,0.5104704189173876,0.0111472737044096,-0.7202814221382141,-0.3338730633258819
1772650728613994000,0.602993896484375,0.1751794567734003,-0.5770405940204858,0.067706193395704,-0.1524280756711959,-0.8858981132507324,-0.3487266004085541
1772650728623966000,0.612966064453125,0.5420429303973913,-0.2590358438506722,-0.2042683347441256,-0.2986347675323486,-0.909663200378418,-0.365180641412735
1772650728633938000,0.62293798828125,0.5461421824097633,-0.1017898109138011,-0.4101574025578796,-0.3183194994926452,-0.7595112323760986,-0.3912332653999328
1772650728643911000,0.632910888671875,0.0798994661450386,-0.6465238800913095,0.119807990424335,-0.2711036503314972,-0.6560179591178894,-0.4585687518119812
1772650728653883000,0.6428828125,0.0996522143632173,-0.7066603688850999,0.1342154320918023,-0.2409217655658722,-0.5547776222229004,-0.5305331945419312
1772650728663854800,0.652854736328125,0.0562865353673696,-0.192289581528306,-0.3838559633485973,-0.254061609506607,-0.4249878525733948,-0.5424825549125671
1772650728673826800,0.662826904296875,-0.0888122559189796,0.1905152653321623,-0.8116755715861916,-0.3060483634471893,-0.3888935148715973,-0.4785586893558502
1772650728683800000,0.672800048828125,0.0371837754905223,0.2022965962797403,-0.9281815978556872,-0.3429206609725952,-0.4861979782581329,-0.3745906949043274
1772650728693771800,0.682771728515625,0.2772755571573972,0.2862064671099186,-0.6281105637833476,-0.3224739730358124,-0.8123973608016968,-0.3479247391223907
1772650728703744000,0.692743896484375,0.6502765106230974,0.3926809287086129,0.0775815445914864,-0.2649496495723724,-1.1609059572219849,-0.2968915700912475
1772650728713715700,0.7027158203125,1.1111328576743602,0.2996253361314535,0.8240143902860582,-0.1851802319288253,-1.4029850959777832,-0.1676486134529113
1772650728723689000,0.71268896484375,1.263133683434129,0.240591255621612,1.279549542314559,-0.0540439635515213,-1.594532489776611,-0.0621327385306358
1772650728733661000,0.722660888671875,1.4375439094007014,0.3936272696480155,1.5187836842387914,0.1045198440551757,-1.6435538530349731,-0.020715257152915
1772650728743633000,0.7326328125,1.5690858844995497,0.5981985328614712,1.5306564928621054,0.2149424105882644,-1.4142385721206665,-0.15371073782444
1772650728753606000,0.74260595703125,1.8812848710000516,0.7905193863108754,1.2165333333659916,0.2854807674884796,-1.137027144432068,-0.3706081807613373
1772650728763577900,0.752577880859375,2.32260357388854,0.8041995366171002,0.942192441421002,0.3242930471897125,-0.9158743023872375,-0.5509036183357239
1772650728773549800,0.7625498046875,2.312768993094563,0.6202671568065882,0.7884521515827626,0.3476686775684356,-0.7336751818656921,-0.6926000118255615
1772650728783521800,0.772521728515625,1.946965842178464,0.0695364775627851,0.8042118846420199,0.3390654325485229,-0.6564775705337524,-0.7874552607536316
1772650728793495000,0.7824951171875,1.738293865647912,-0.368993179129064,0.7831122518595307,0.3111600279808044,-0.613906979560852,-0.8187442421913147
1772650728803466800,0.792466796875,1.420465348827839,-0.592452682685852,0.8235355207279325,0.2915172278881073,-0.5141450762748718,-0.793703019618988
1772650728813439000,0.80243896484375,0.9467577035099268,-0.6211611830368637,0.9864286196410657,0.2887134253978729,-0.4418107271194458,-0.7192663550376892
1772650728823410700,0.81241064453125,0.5106377383083105,-0.1797121317669749,1.203038695694506,0.3354396522045135,-0.397978127002716,-0.5827847719192505
1772650728833383700,0.8223837890625,-0.2860147439301014,0.5703095321998,1.411470872119814,0.3961373269557953,-0.3959852755069732,-0.4124298691749573
1772650728843356000,0.83235595703125,-1.1119371597945689,1.1746540204703808,1.452782541195303,0.4401836991310119,-0.4804266989231109,-0.2380807399749755
1772650728853328000,0.842327880859375,-1.129645250442624,1.5751675425007938,1.2647963559493425,0.4547711610794067,-0.568118691444397,-0.0762226060032844
1772650728863299800,0.8522998046875,-0.7231967854052782,1.4906503534272313,0.969503276868537,0.4232790172100067,-0.6990146040916443,0.0741205215454101
1772650728873272800,0.86227294921875,-0.2144207493156194,0.9872963423863051,0.521504000237584,0.325601726770401,-0.8003787994384766,0.2244586199522018
1772650728883244800,0.872244873046875,0.2931523407250642,-0.023840309792757,0.2181248279979452,0.1601795256137848,-0.9067410826683044,0.3242327868938446
1772650728893216800,0.882216796875,0.7630074022680521,-1.0148203091278671,0.136072430735873,-0.0324381366372108,-0.8570377230644226,0.34467414021492
1772650728903190000,0.89218994140625,1.14983229842484,-1.6160115940645337,0.3926031872972846,-0.1779633164405822,-0.5234005451202393,0.2091126888990402
1772650728913161700,0.90216162109375,1.9161568624168632,-1.3775523820355533,0.6323303003702312,-0.1892359554767608,0.1809437870979309,-0.1112972944974899
1772650728923134000,0.912134033203125,2.90387026117146,-0.6545379674598574,0.7406464443128555,-0.1731726825237274,0.5171321034431458,-0.5325905680656433
1772650728933106000,0.92210595703125,4.473682121858,0.057583881701529,0.1709476096236147,-0.1376764774322509,0.5217710733413696,-0.9581136107444764
1772650728943078700,0.93207861328125,5.522787270164489,0.8225666756957769,-0.1009025797504931,-0.0881724432110786,0.1251388639211654,-1.29474139213562
1772650728953051000,0.94205078125,6.347738210648298,0.935240868717432,0.1732363781479187,-0.0212272312492132,-0.5863030552864075,-1.4924744367599487
1772650728963022800,0.95202294921875,6.828806740123033,0.8638602245926856,0.5211951534841209,0.0382835529744625,-1.3445723056793213,-1.481216549873352
1772650728972994800,0.961994873046875,6.634623307672142,0.7022390453115105,0.9793571468848734,0.0252953171730041,-1.871104717254639,-1.2610045671463013
1772650728982967800,0.9719677734375,5.991636954057216,0.2318696045055985,1.3852885292455552,-0.2279826700687408,-1.723276138305664,-0.8110703229904175
1772650728992940000,0.98193994140625,4.98549591820836,-1.198605973944068,1.7404067661486564,-0.6893793344497681,-1.210105538368225,-0.3209570646286011
1772650729002912000,0.991912109375,4.0471874786138535,-4.0050454961940645,2.239228102196008,-0.9319884181022644,-1.369319200515747,-0.2656447887420654
1772650729012885000,1.001885009765625,3.941702320313453,-6.511572682064771,3.203577138106525,-0.7825528979301453,-1.6984726190567017,-0.7148052453994751
1772650729022857200,1.011857177734375,4.461383196777105,-3.464104681819677,3.5242303569585083,-0.3679937422275543,-0.8679830431938171,-0.9635512828826904
1772650729032829000,1.021828857421875,3.0158254922688004,-0.1485293502569198,3.6421909659504887,0.0376501679420471,0.0580369420349597,-1.1153326034545898
1772650729042801200,1.03180126953125,1.1205115113943815,-0.1948078479595482,2.8534155006974933,0.3276240229606628,0.4852572679519653,-1.009998083114624
1772650729052774100,1.041774169921875,-0.5707300956994295,-1.0482967545330524,2.22916716530025,0.5142769813537598,0.5726268291473389,-0.5626402497291565
1772650729062746000,1.05174609375,-2.4650842916309834,-1.4594310392990708,1.5705569799654184,0.5695761442184448,0.3422744870185852,0.1947458684444427
1772650729072718000,1.061718017578125,-4.596857250627875,-1.6855844581149515,0.5311314410869031,0.5005803108215332,-0.0078366715461015,1.2649738788604736
1772650729082690300,1.071690185546875,-7.0214961346238844,-2.3684599006563425,-0.2522114046581089,0.4276081025600433,-0.4058970212936401,2.4123597145080566
1772650729092663000,1.0816630859375,-8.798435665008425,-3.031723903146386,-0.4057957732822745,0.4246338605880737,-0.7993476390838623,3.142669439315796
1772650729102635300,1.09163525390625,-8.733089624872804,-3.828030348426104,-0.0101841979492455,0.4484211206436157,-0.895267128944397,3.253450632095337
1772650729112607200,1.101607177734375,-7.613938880437612,-5.49710454737544,0.5692121654171496,0.4961705207824707,-0.6962887644767761,2.765547752380371
1772650729122579200,1.1115791015625,-6.918570013156533,-7.793496406164765,0.9217837135121226,0.5646116137504578,-0.3092988133430481,1.9218147993087769
1772650729132552200,1.12155224609375,-7.660249380713701,-9.897365459191798,0.8699874753013253,0.635722815990448,-0.0110506005585193,1.1069467067718506
1772650729142524200,1.131524169921875,-10.356226833033562,-11.17767181122303,0.3083925799548626,0.6583819389343262,0.2539807856082916,0.6012684106826782
1772650729152496000,1.14149609375,-14.91670870194435,-10.97110177540779,-1.420316003485024,0.5332783460617065,0.5373389720916748,0.4859532117843628
1772650729162469000,1.15146923828125,-20.22491564831733,-10.00583401721716,-4.277537326206267,0.2509757876396179,0.905781626701355,0.7743598222732544
1772650729172441300,1.16144140625,-24.84046883158684,-8.844888204103707,-6.708876292362809,-0.0194700844585895,1.2150630950927734,1.347567081451416
1772650729182413000,1.1714130859375,-27.57333312227726,-7.252637132593989,-7.655356347975134,-0.2098544538021087,1.4520525932312012,2.097647428512573
1772650729192385300,1.18138525390625,-27.664298756837844,-5.471830989909172,-6.716715315425396,-0.2817012071609497,1.2927175760269165,2.8115110397338867
1772650729202358300,1.191358154296875,-25.743080519378186,-4.360293935348094,-4.926047703939676,-0.2885223627090454,0.9208691716194152,3.329829216003418
1772650729212330000,1.201330078125,-22.515836966741084,-3.297733677662909,-3.5224697770267723,-0.2507505118846893,0.5870073437690735,3.563770055770874
1772650729222302200,1.21130224609375,-18.94027798908353,-1.944616064181924,-2.702580503846705,-0.1869437843561172,0.3288264274597168,3.537419557571411
1772650729232274200,1.221274169921875,-15.432488479316234,-1.036107719567418,-2.0062772783249616,-0.0813584923744201,0.1210873425006866,3.2931759357452397
1772650729242247200,1.2312470703125,-12.07727554937005,-0.5896446395277977,-1.0931222769483924,0.1217182576656341,0.1109686344861984,2.8803820610046387
1772650729252219100,1.24121923828125,-9.208673585456609,-0.0908586670547723,-0.1638059759743511,0.3709824085235595,0.315258651971817,2.350248098373413
1772650729262191000,1.251191162109375,-6.7150657946527,0.4494903189063072,0.0943264162305742,0.5536438226699829,0.5905579924583435,1.7443699836730957
1772650729272163000,1.2611630859375,-4.168298076069354,0.8628098387569189,-0.5818710829168557,0.5691056251525879,0.8305604457855225,1.1181873083114624
1772650729282136300,1.27113623046875,-1.865498103803396,1.174742867797613,-2.002544229276478,0.3952206373214721,1.0479897260665894,0.5717229247093201
1772650729292108000,1.28110791015625,-0.5086415960550308,1.5453279922932386,-3.5178389023557304,0.1123335435986518,1.2185194492340088,0.2135237455368042
1772650729302080300,1.291080322265625,-0.2451905661106109,2.101571297478676,-4.379963096936047,-0.1439377814531326,1.3332947492599487,0.1179790943861007
1772650729312053200,1.30105322265625,-0.4165618627727031,2.9415561409652238,-4.073532172442972,-0.2865418195724487,1.3512544631958008,0.1824062913656234
1772650729322025000,1.31102490234375,0.0903103855222463,3.942024976396561,-2.794950452247262,-0.3005364239215851,1.2432003021240234,0.3082463145256042
1772650729331997200,1.3209970703125,1.3467127148747444,4.725908577954769,-1.216805939762294,-0.271030455827713,1.0549547672271729,0.437305748462677
1772650729341969200,1.33096923828125,2.763316127577424,5.2556052369982,-0.2923284023226238,-0.4013543128967285,0.7564510107040405,0.5594480633735657
1772650729351942100,1.340942138671875,4.196777151578664,5.617885474485159,-1.4146876422092318,-0.4866774678230285,0.5698456764221191,0.7129420638084412
1772650729361914000,1.3509140625,4.810948914119601,6.354566010841727,-1.1403935850806537,-0.4975746870040893,0.5733084082603455,0.7836159467697144
1772650729371886300,1.36088623046875,5.563632490772009,6.230106687480211,-0.2783284637438133,-0.6003149151802063,0.6706051230430603,0.7640249133110046
1772650729381858000,1.370858154296875,6.431941511467099,6.204430394431948,-1.0762128623973577,-0.7685725092887878,0.8062260150909424,0.7553123235702515
1772650729391831000,1.3808310546875,6.949169734081625,6.938001274335384,-2.2024973311699925,-0.9931912422180176,0.861688494682312,0.7357791066169739
1772650729401803300,1.39080322265625,7.669815665960312,7.388325121456384,-2.904830630636215,-1.0939481258392334,0.9392792582511902,0.7180926203727722
1772650729411775200,1.400775146484375,8.166231402170657,7.601262938737869,-2.2495205097600817,-1.0586040019989014,1.0225811004638672,0.6645427942276001
1772650729421747200,1.410747314453125,8.843522176447511,7.627122187137603,-1.1432397682920097,-0.9819169044494628,0.990734040737152,0.5964770317077637
1772650729431720200,1.42072021484375,9.522880989170076,7.717827124935388,-0.800115847500041,-0.894031286239624,0.8851128220558167,0.5549687147140503
1772650729441692200,1.430692138671875,9.706792618453502,7.855402534979581,-0.6421886273659765,-0.7590269446372986,0.8117008805274963,0.547612726688385
1772650729451664100,1.4406640625,9.44985316236019,7.973280141863226,-0.3701699678234755,-0.5859073400497437,0.7300888299942017,0.592217206954956
1772650729461637400,1.450637451171875,9.00715849494338,8.02303230702579,-0.0910173647478222,-0.4244822859764099,0.5737770795822144,0.6829044818878174
1772650729471609000,1.460609130859375,8.756922920402884,7.984735601857304,-0.2164486018814146,-0.2953749001026153,0.4028737843036651,0.7822736501693726
1772650729481581300,1.470581298828125,8.726821796649693,7.95057555810213,-0.6030285833664238,-0.192553162574768,0.2595028281211853,0.8472059965133667
1772650729491553000,1.480552978515625,8.95145005172491,7.897725426924228,-0.9265504895225166,-0.1250649243593216,0.0820513442158699,0.8773463368415833
1772650729501526000,1.490526123046875,9.215537041485309,7.809198417687416,-1.1930937863938509,-0.0864853486418724,-0.0775740817189216,0.8697143197059631
1772650729511498200,1.500498291015625,9.465831652736664,7.725625231465697,-1.464356659132987,-0.0725407674908638,-0.1841620504856109,0.823688805103302
1772650729521470000,1.510469970703125,9.644624623832106,7.706603135609626,-1.6657112983874975,-0.0711203143000602,-0.2606828808784485,0.7336271405220032
1772650729531442200,1.520442138671875,9.788084415739776,7.722604422339796,-1.8054678518630565,-0.0886058360338211,-0.2893621921539306,0.6299100518226624
1772650729541415200,1.530415283203125,9.667858784425258,7.706665094929933,-2.016800425904989,-0.1246489137411117,-0.3005694448947906,0.5341161489486694
1772650729551387100,1.54038720703125,9.4315745783478,7.655784802520275,-2.1334690953902897,-0.1651806384325027,-0.2978740632534027,0.4364135563373565
1772650729561359000,1.550359130859375,9.31400969067514,7.646045498794317,-2.114917393524945,-0.1937501281499862,-0.2481104284524917,0.3101182878017425
1772650729571331300,1.560331298828125,9.36012963681519,7.696408489331603,-2.081117415253818,-0.2099645137786865,-0.1632293611764907,0.1522444784641266
1772650729581304000,1.570303955078125,9.440151852557063,7.789549714365601,-2.003616388552636,-0.2223954945802688,-0.1002808958292007,-0.0119590871036052
1772650729591276300,1.5802763671875,9.509745028743149,7.824642070534825,-1.855404579812288,-0.2258429527282714,-0.0934256464242935,-0.1705287545919418
1772650729601248300,1.590248291015625,9.4661356041193,7.742778610840439,-1.499713511457294,-0.1966889500617981,-0.1703374981880188,-0.3125514388084411
1772650729611221000,1.600220947265625,9.319664939957857,7.726976061552762,-0.9940098685503004,-0.1213350817561149,-0.2878465354442596,-0.4326264560222626
1772650729621193200,1.610193115234375,8.98604497976601,7.821551118782162,-0.5994752747990191,-0.0210514701902866,-0.3929421305656433,-0.5370938777923584
1772650729631165200,1.620165283203125,8.42643132136464,7.821359395602345,-0.4480222921803593,0.0445605628192424,-0.4905965328216553,-0.6460262537002563
1772650729641137200,1.63013720703125,7.9183578805863855,7.445913971593976,-0.3831577519513666,0.0753176882863044,-0.6090906262397766,-0.745136559009552
1772650729651110100,1.640110107421875,7.153997894665599,6.385491894981265,-0.0309244228348135,0.0873842015862464,-0.8706663250923157,-0.7863223552703857
1772650729661082400,1.650082275390625,6.042090545487404,4.987777891665697,0.5320921758778393,0.0567680820822715,-1.3351447582244873,-0.7528513669967651
1772650729671054000,1.66005419921875,4.3331975463688375,3.761241123744845,1.0439008576616644,0.0191951394081115,-1.9265507459640503,-0.6724507808685303
1772650729681026300,1.6700263671875,2.090669964236021,2.6277777763187884,1.7243474656209348,0.0628825798630714,-2.5899455547332764,-0.5869309306144714
1772650729690999300,1.679999267578125,-0.2788660412192345,1.4060983853012323,2.783551106354594,0.190822958946228,-3.2163729667663574,-0.561407208442688
1772650729700971000,1.689970947265625,-2.2154548662900924,0.1940659435510635,3.7773043697953215,0.2386966347694397,-3.647801399230957,-0.6767605543136597
1772650729710943200,1.699943115234375,-3.5487580644935366,-1.6235533877462147,3.647323068141937,0.1205446943640708,-3.76304030418396,-1.0713094472885132
1772650729720915200,1.709915283203125,-4.187454027438164,-3.275232215258479,2.144670726753771,0.0448776856064796,-3.4971790313720703,-1.810724258422852
1772650729730888200,1.71988818359375,-3.6926369585961103,-3.4607395893007515,0.684163071199134,0.0465466864407062,-2.993436336517334,-2.847711563110352
1772650729740860200,1.729860107421875,-2.962062337899208,-2.2802689915060994,-1.3398676712855695,0.0119634643197059,-2.496155261993408,-4.013118267059326
1772650729750832000,1.73983203125,-3.233425456142425,-1.4862328292459248,-3.775895087519288,-0.0017789795529097,-1.7154239416122437,-4.907604217529297
1772650729760804000,1.74980419921875,-6.090871235269308,-1.9033979186087848,-4.369773419094085,0.0729046314954757,-1.0351608991622925,-5.388070106506348
1772650729770777300,1.75977734375,-9.122150317257642,-1.9424013107419011,-3.512082530786097,0.2672751545906067,-0.6814321279525757,-5.242521286010742
1772650729780749000,1.7697490234375,-12.425109328353404,-1.3411764157965778,-2.11887504510954,0.5615084767341614,-0.6526546478271484,-4.557882308959961
1772650729790721300,1.77972119140625,-14.777601844549178,-0.8594315944954752,-1.4854557073935866,0.8440123200416565,-0.6229468584060669,-3.4675722122192383
1772650729800694300,1.7896943359375,-15.557559797096252,-1.3124354744806883,-1.2626372782193125,1.0379539728164673,-0.6612576246261597,-2.361394166946411
1772650729810666000,1.799666015625,-14.86135564803481,-2.187252561895549,-1.528950565727055,1.1453089714050293,-0.7487568259239197,-1.6749180555343628
1772650729820638200,1.80963818359375,-12.229119138741492,-2.691960910154879,-2.2346933813758194,1.156161904335022,-0.7311609983444214,-1.4555102586746216
1772650729830610200,1.819610107421875,-8.564921508166194,-3.02247530554682,-2.992131312948465,1.1020028591156006,-0.6109893321990967,-1.5336077213287354
1772650729840583200,1.829583251953125,-5.68638501021564,-3.367064695781469,-3.208396813347936,1.0235445499420166,-0.4909988641738891,-1.751207947731018
1772650729850555100,1.83955517578125,-3.743178228309751,-3.358527169060707,-2.9200767150849103,0.9867205619812012,-0.3023887276649475,-1.9655908346176147
1772650729860527400,1.84952734375,-2.7642870184361934,-3.004451573078334,-2.194574867607653,1.015355348587036,-0.1063178777694702,-2.115586280822754
1772650729870499000,1.8594990234375,-2.4612077424585816,-2.951121841689944,-1.0475452055133878,1.0632903575897217,0.0689447522163391,-2.193808078765869
1772650729880472000,1.86947216796875,-2.297284423714876,-2.769804905074835,-0.2677393747881055,1.0915334224700928,0.1545306593179702,-2.204601287841797
1772650729890444000,1.879444091796875,-2.143120866963267,-2.5195202306956053,0.2032270089976489,1.1035064458847046,0.1097189858555793,-2.1185555458068848
1772650729900416300,1.889416259765625,-2.0547522631585595,-2.400947042763233,0.5302035856522619,1.1388521194458008,0.0462527200579643,-1.9289133548736568
1772650729910388200,1.89938818359375,-1.988051301282644,-2.275036936071515,0.779851423432678,1.0944340229034424,0.1635316759347915,-1.783083200454712
1772650729920361000,1.90936083984375,-1.7156161698937415,-1.963119396860897,0.7334073599047959,1.0734800100326538,0.1397230774164199,-1.5986257791519165
1772650729930333200,1.919333251953125,-1.072289040017128,-1.3851562811680138,0.5960024841219187,1.006933569908142,0.2173608839511871,-1.321596622467041
1772650729940305200,1.92930517578125,-0.6127022745102644,-1.1904355269700289,0.2626600256972015,0.8293883204460144,0.6683775782585144,-0.935905396938324
1772650729950278100,1.939278076171875,-0.4050952968627214,-1.7145051399119198,-0.1197964461170136,0.6358736753463745,0.6705003380775452,-0.5805302858352661
1772650729960250000,1.94925,-0.0112444475919008,-1.714877772616595,-0.541237751494348,0.383132666349411,0.4230984151363373,-0.3306221961975097
1772650729970222300,1.959222412109375,0.0093032503962516,-1.9022338432654735,-1.3331200967215,0.1754609942436218,0.0780528783798217,-0.1146419420838356
1772650729980194000,1.969194091796875,-0.1890729575693607,-1.806060995450616,-1.2833679315589368,0.0782908350229263,-0.1559625715017318,0.079388715326786
1772650729990167000,1.9791669921875,-0.4195522767603397,-1.2658107936888932,-0.6916714740678668,0.1102785989642143,-0.1710629612207412,0.2035479545593261
1772650730000138200,1.98913818359375,-0.6316191564261913,-0.5825152260392904,0.1293140699163079,0.2712057530879974,-0.050418421626091,0.2679176926612854
1772650730010110500,1.9991103515625,-0.9139397220134736,0.134106857150793,0.8224094393074513,0.5378499627113342,0.1711240857839584,0.3378579020500183
1772650730020082200,2.009082275390625,-1.2277175021380184,0.6635958647929132,1.1645021904207766,0.8239014744758606,0.3502233326435089,0.4213713407516479
1772650730030055200,2.01905517578125,-1.2326111193984746,1.0349839762344957,1.0982076173886657,1.0701693296432495,0.493600457906723,0.5544700026512146
1772650730040027400,2.02902734375,-1.0086907203316688,1.271242171087861,0.8111891032434999,1.2766133546829224,0.6101666688919067,0.727190375328064
1772650730049999400,2.038999267578125,-0.8447305767089128,1.320894675268233,0.2423003976270556,1.326461672782898,0.7322134971618652,0.8705800175666809
1772650730059971300,2.048971435546875,-0.7660662053167819,1.081083902499825,-0.8401292203933,1.1431310176849363,0.7995895743370056,0.8957844376564026
1772650730069944300,2.0589443359375,-0.7656827589571475,0.471233802550286,-2.093036693367362,0.918448567390442,0.6664493680000305,0.9034042954444884
1772650730079916300,2.068916259765625,-0.8144494202136993,-0.4543491571143269,-2.3581717308759687,0.6936059594154358,0.5668667554855347,0.8791127800941467
1772650730089888300,2.07888818359375,-1.0452584097504616,-1.475286049426347,-2.0503253866270184,0.4761998653411865,0.445938229560852,0.7841678857803345
1772650730099861500,2.088861572265625,-1.1404349400043488,-1.9036559850230808,-2.1978169182688,0.2828833758831024,0.3155961036682129,0.6457595229148865
1772650730109833200,2.098833251953125,-1.1646990281671286,-1.7772532725088297,-2.48308756583333,0.103692851960659,0.2591463923454284,0.472301721572876
1772650730119805400,2.108805419921875,-1.2067039402037858,-1.6353602915264664,-2.510220487430692,-0.0118342693895101,0.2933904230594635,0.1832051873207092
1772650730129777200,2.118777099609375,-0.9669038349598644,-1.0358348939754067,-2.282570108055323,-0.0399535223841667,0.361162006855011,-0.2280880808830261
1772650730139750100,2.128750244140625,-0.4692208552926779,-0.4824669980958104,-1.931138304580003,0.0241837818175554,0.5594714879989624,-0.6084798574447632
1772650730149722400,2.138722412109375,-0.579696076965332,-1.1650140854656696,-1.370153650086373,0.1228781417012214,0.8117900490760803,-0.8625896573066711
1772650730159694000,2.148694091796875,-0.8327262506604194,-1.6702132859818637,-0.9854564136080444,0.2020382732152938,1.0512981414794922,-1.0197235345840454
1772650730169666300,2.158666259765625,-0.7794745529443026,-1.5693855980984863,-0.871418019561097,0.2701656520366668,1.1607195138931274,-1.075101613998413
1772650730179639300,2.168639404296875,-0.3940408188849687,-1.1810517586834728,-1.1659160758066922,0.3405408859252929,1.1869874000549316,-0.9739450216293336
1772650730189611300,2.178611328125,-0.1991121210247278,-1.0570363796971738,-1.6603803126230834,0.3857624232769012,1.1591243743896484,-0.6937996745109558
1772650730199583200,2.188583251953125,-0.2675625569164753,-1.245020957507938,-2.094993380393088,0.3408777117729187,0.9938265085220336,-0.2943712174892425
1772650730209555500,2.198555419921875,-0.268454537320137,-1.5845681157916784,-2.1368781731814144,0.1724095940589904,0.7137506604194641,0.1924077868461609
1772650730219528200,2.208528076171875,-0.2445703883856534,-1.8451012124627828,-1.916364952209592,-0.0057613747194409,0.3529150485992431,0.7194644808769226
1772650730229500400,2.21850048828125,-0.0430319169968366,-1.8065442489229144,-1.6197478579834104,-0.1212664023041725,-0.1548442989587783,1.185158610343933
1772650730239472400,2.228472412109375,0.7978665342032909,-1.2217872353062034,-1.3581610144756733,-0.236682042479515,-0.6302151679992676,1.54987370967865
1772650730249445000,2.238445068359375,1.8384025916069744,-0.5464977178491651,-1.3598977751404049,-0.4159468412399292,-0.7883267998695374,1.8910025358200075
1772650730259417300,2.248417236328125,2.5715847644537684,-0.7448609202027321,-1.1824415325414388,-0.6467673778533936,-0.8781840801239014,2.1312949657440186
1772650730269389300,2.258389404296875,3.182381497603654,-1.4423140464119613,-0.8221930931430309,-0.8234348297119141,-1.1108790636062622,2.1479828357696533
1772650730279361300,2.268361328125,3.919375922214985,-1.875568100788444,-0.5666813682978973,-0.9154562950134276,-1.2046349048614502,1.9989761114120483
1772650730289334300,2.278334228515625,4.515120047661662,-1.6093690873101352,-0.9124030139654874,-0.9959676265716552,-0.941990852355957,1.7778799533843994
1772650730299306500,2.288306396484375,4.575165643301606,-1.1400324966832995,-1.378362821635604,-1.0489380359649658,-0.4072277247905731,1.4314069747924805
1772650730309278200,2.2982783203125,4.385304165703058,-1.089452356263995,-1.2748410723626613,-0.9740316867828368,0.1092249676585197,1.163790225982666
1772650730319250400,2.30825048828125,3.700221714636683,-1.3021478892222047,-0.558978721498698,-0.8220484852790833,0.3933071196079254,1.0422236919403076
1772650730329223400,2.318223388671875,2.5229589729726314,-1.1877969951599836,-0.1734986275469884,-0.6900880932807922,0.5104318857192993,1.15635883808136
1772650730339195100,2.328195068359375,0.976103040459752,-0.9988789358913898,0.0160767996517941,-0.5636304020881653,0.5408626198768616,1.4383459091186523
1772650730349167400,2.33816748046875,-0.5881108540892601,-0.8926628329679369,0.1997181971590965,-0.3572607338428497,0.5774115324020386,1.72971510887146
1772650730359139300,2.348139404296875,-1.79225225032866,-0.5897977842628955,0.355610660062544,-0.1009265929460525,0.6177589297294617,1.9688777923583984
1772650730369112300,2.3581123046875,-2.9231834489285946,-0.6526613599330187,0.8504847563214599,0.1433619856834411,0.6216314435005188,2.202883720397949
1772650730379084300,2.368084228515625,-4.573592694896459,-0.9653510525599122,1.0612775243982673,0.3123022615909576,0.7122009992599487,2.450148344039917
1772650730389056300,2.37805615234375,-6.775837366479635,-1.3811439767867326,0.8175477515552192,0.381383329629898,0.7715039849281311,2.6792690753936768
1772650730399029200,2.388029296875,-8.79055455636978,-2.175162018868327,0.733181807520613,0.4076928198337555,0.7159281969070435,2.812678337097168
1772650730409001500,2.39800146484375,-10.377946497410536,-3.14086612264961,0.8739475380387157,0.4291941225528717,0.635269045829773,2.745786666870117
1772650730418973200,2.40797314453125,-11.347345656317472,-3.968439812852442,1.1417361587960273,0.4909820556640625,0.6084141135215759,2.462214231491089
1772650730428945400,2.4179453125,-12.131169636642932,-4.543203401851653,1.4791186133265497,0.5976653695106506,0.610645592212677,2.090517520904541
1772650730438918400,2.42791845703125,-13.404790227299928,-4.61917078924477,1.6766300211563705,0.6970689296722412,0.5884231925010681,1.815261483192444
1772650730448890000,2.43789013671875,-15.33829394583702,-4.159252599826455,1.1429770987678318,0.8370974063873291,0.6154649257659912,1.7685163021087646
1772650730458862300,2.4478623046875,-17.474124071270225,-3.1487825948625803,0.2352999077478423,0.934373140335083,0.5987460017204285,1.930589318275452
1772650730468834300,2.457834228515625,-18.500194965469834,-2.404863923946023,-0.6941684785153717,0.8721334934234619,0.5459805130958557,2.21741247177124
1772650730478807300,2.467807373046875,-17.952315584003923,-2.264848135012388,-1.8916244787067171,0.6798503398895264,0.5328972339630127,2.53823184967041
1772650730488779300,2.477779296875,-16.282518915998935,-2.4603181001424788,-2.8426617592319845,0.4129736423492431,0.4129346013069153,2.709357023239136
1772650730498751500,2.48775146484375,-13.249928166890143,-2.77630420396626,-3.0142694949984548,0.1564638763666153,0.1571339219808578,2.5881564617156982
1772650730508724200,2.49772412109375,-8.970885989078878,-3.1301684952855107,-2.191868238997459,-0.0368925407528877,-0.0958160459995269,2.2183220386505127
1772650730518696200,2.5076962890625,-4.794996727228164,-3.310562471836805,-1.039159362222999,-0.1965780854225158,-0.330361545085907,1.6442737579345703
1772650730528668200,2.517668212890625,-1.0848352178573608,-3.1719454437851904,-0.1973382249536923,-0.3194456994533539,-0.6458656787872314,0.9308746457099916
1772650730538640400,2.527640380859375,2.1029332334816453,-2.741538595533371,0.4859361720437183,-0.3719906806945801,-0.982667088508606,0.1672581732273101
1772650730548613400,2.53761328125,4.03550113247335,-1.876878744995594,0.8741068202536553,-0.3119523525238037,-1.2265266180038452,-0.5937808156013489
1772650730558585000,2.547585205078125,4.532807095521688,0.2473310852706432,1.1918022852785886,-0.0577082782983779,-1.1737747192382812,-1.170339822769165
1772650730568557300,2.557557373046875,3.264372383069992,2.207904597041011,1.9978378051511945,0.242368996143341,-0.8771572709083557,-1.3580870628356934
1772650730578529300,2.567529296875,0.4795201309889554,3.979179525792599,1.585606665059179,0.4148552715778351,-0.5131779909133911,-1.0307153463363647
1772650730588502300,2.577502197265625,-2.0437550683259964,5.563244952759146,0.1027998282065615,0.3778533041477203,-0.2827639579772949,-0.2863516509532928
1772650730598474200,2.58747412109375,-2.9064836585402487,6.19437544888556,-1.2304761531963944,0.2078397572040558,-0.210956335067749,0.5853493809700012
1772650730608446500,2.597446533203125,-1.9242706107676029,6.119633219373226,-1.969939306008816,-0.0074120908975601,-0.2594754099845886,1.2367911338806152
1772650730618418200,2.607418212890625,1.0373182644009589,5.988544248738885,-1.9129972293421624,-0.2208563387393951,-0.4278041124343872,1.5840028524398804
1772650730628391200,2.61739111328125,4.717499646049737,5.952553482425213,-1.366692403716594,-0.5631207227706909,-0.4225667417049408,1.733900785446167
1772650730638363400,2.62736328125,7.092080075412988,5.990829729327559,-1.829637832001597,-0.7447159886360168,-0.2954056859016418,1.6595500707626345
1772650730648335000,2.637335205078125,8.642181273457407,5.372253009825944,-0.5549851583505049,-0.833405613899231,-0.106058120727539,1.4513015747070312
1772650730658308400,2.647308349609375,10.073519313955307,5.989362579384446,0.6636840545330196,-0.7405470609664917,0.1090687066316604,1.1386406421661377
1772650730668280300,2.6572802734375,10.829032561075689,6.383022289997339,2.1327263141989707,-0.5012652277946472,0.3335321843624115,0.8084082007408142
1772650730678252300,2.667252197265625,11.132896265429258,6.526054796403646,3.540185174198448,-0.1758243888616562,0.4719214737415313,0.5437073707580566
1772650730688224300,2.677224365234375,10.889977151381968,6.725858406823873,4.372205030155182,0.1362512111663818,0.5206541419029236,0.36835977435112
1772650730698197200,2.687197265625,10.280817664045095,6.785557965505123,4.317835434325039,0.3651955127716064,0.532518744468689,0.2872028648853302
1772650730708169200,2.697169189453125,9.432764080393314,6.598187720200419,3.5260727699548005,0.46318119764328,0.5844994187355042,0.2485289722681045
1772650730718141400,2.707141357421875,8.5896035294801,6.359029419991374,2.2328645585134623,0.4542160034179687,0.8200874924659729,0.207828551530838
1772650730728113200,2.717113037109375,7.770265752702951,6.180068106591701,0.7781821019809693,0.4064167737960815,1.147566556930542,0.2009607851505279
1772650730738086100,2.727086181640625,6.906065336370467,6.119882810220122,-0.0611083295006304,0.3555363118648529,1.3507483005523682,0.2690014243125915
1772650730748058400,2.737058349609375,6.381288598072529,6.2041328727900975,-0.4159518776481971,0.2796199917793274,1.3827216625213623,0.3678736984729767
1772650730758030000,2.747030029296875,6.501067070141434,6.291237740269303,-0.763623561405018,0.1757079362869262,1.2328522205352783,0.4218747615814209
1772650730768002300,2.757002197265625,7.177450081923603,6.24795740146935,-1.0786674159426242,0.0683436542749404,0.9809682965278624,0.4195940196514129
1772650730777975300,2.766975341796875,7.909587129631638,6.166970724609494,-1.1117241746310145,-0.0117981191724538,0.7073932886123657,0.3726443648338318
1772650730787947300,2.776947265625,8.291901270365715,6.17072686227262,-0.9418738039258868,-0.0588881336152553,0.5887060761451721,0.2675911784172058
1772650730797919200,2.786919189453125,8.227201126918196,6.220908651024103,-0.8986986060008406,-0.0797248929738998,0.6660215854644775,0.1140609011054039
1772650730807892200,2.796892333984375,7.927932349139452,6.322467575791478,-0.9668264588747172,-0.0823710113763809,0.8002861738204956,-0.0458110608160495
1772650730817864200,2.8068642578125,7.715104421973228,6.394924324715137,-1.0135814149826765,-0.0842462852597236,0.8361560702323914,-0.1724016368389129
1772650730827836200,2.816836181640625,7.657477577912807,6.289276084807515,-0.922859233789146,-0.0644014775753021,0.7806802988052368,-0.278237521648407
1772650730837808400,2.826808349609375,7.623707410258055,6.111204998245835,-0.6061722516870126,-0.0376678593456745,0.7727638483047485,-0.3738093674182892
1772650730847781000,2.836781005859375,7.376888366162777,5.882466385242343,-0.4324502637129276,-0.0301785189658403,0.7624012231826782,-0.4108131825923919
1772650730857753300,2.84675341796875,6.767735308566689,5.561517106053233,-0.4005904962567612,-0.0242428127676248,0.6796087622642517,-0.3259163200855255
1772650730867725300,2.856725341796875,5.803453054282069,5.250639139023423,-0.2587936325926333,0.0087883751839399,0.4896028339862823,-0.1799862682819366
1772650730877697300,2.866697265625,4.89577063909769,4.872698975589871,-0.0685779347289353,0.0647309646010398,0.2795946896076202,-0.0295793861150741
1772650730887670300,2.876670166015625,4.239434390044212,4.425712748458981,0.5411661840954796,0.0729793086647987,-0.0368895232677459,0.1265630722045898
1772650730897642500,2.886642578125,3.552219018602371,2.7560417526602743,1.6813076575785877,0.1421523690223693,-0.6670924425125122,0.1459954380989074
1772650730907614200,2.8966142578125,3.1284231129229068,1.3046838374406098,3.076151658415794,0.4195224642753601,-1.282687067985535,-0.0723696500062942
1772650730917586400,2.90658642578125,2.6269898408114907,0.7270581370085477,4.896067868478596,0.8344466686248779,-1.8427441120147705,-0.4870359301567077
1772650730927559400,2.916559326171875,1.6893910107910632,-0.1433271054387092,6.14746932080388,1.2217674255371094,-2.1959221363067627,-0.9381533265113832
1772650730937531100,2.92653125,-0.7235030748754739,-0.7744628622621298,5.23397149733901,1.4140924215316772,-2.0274055004119877,-1.391814351081848
1772650730947503400,2.93650341796875,-3.606308336186409,-1.1632961756318807,1.7222404103390871,1.1799180507659912,-1.2608689069747925,-1.6739627122879028
1772650730957476400,2.946476318359375,-6.816936269587278,-1.5411451536506413,-2.8481112568095326,0.5875481963157654,-0.3852432072162628,-1.509722113609314
1772650730967448300,2.9564482421875,-10.148144054567814,-3.4954490836322307,-5.212627096015215,0.0605781450867652,-0.2126692831516266,-1.1047743558883667
1772650730977420300,2.966420166015625,-10.798574294447898,-5.147551104992628,-4.374752961072326,-0.1590537428855896,-0.690549373626709,-0.9636111259460448
1772650730987392300,2.976392333984375,-8.019553817260265,-4.288310941416025,-2.4084473353907465,-0.2298392355442047,-1.195173740386963,-1.3687242269515991
1772650730997366300,2.9863662109375,-4.344062639254331,-2.972577886694669,-1.944952018138021,-0.3188784420490265,-1.2746398448944092,-2.210716485977173
1772650731007338000,2.996337890625,-2.288677338889241,-2.8547715914815663,-2.489337273877859,-0.3592799305915832,-0.9256861209869384,-3.1530115604400635
1772650731017310200,3.006310302734375,-2.2099270427793263,-3.106948947739601,-2.196630338832736,-0.303879827260971,-0.3554019927978515,-3.806368112564087
1772650731027282200,3.0162822265625,-4.1995261580258605,-2.8901112004101277,-1.3771274346217512,-0.1829081326723098,0.259141594171524,-3.938429117202759
1772650731037255200,3.026255126953125,-7.402495101106166,-2.2167244478344914,-1.0311204326741397,-0.006103987339884,0.746032178401947,-3.60890793800354
1772650731047227100,3.03622705078125,-9.52814577783048,-1.4701538011044264,-0.729813134805113,0.1607414484024047,1.0967614650726318,-3.119755983352661
1772650731057199400,3.046199462890625,-9.622641340082884,-1.3110165475934743,-0.5371538066489622,0.3665659427642822,1.0906401872634888,-2.6229820251464844
1772650731067172000,3.056172119140625,-8.117683936622738,-1.419892517375946,-0.5042390137145295,0.4756178557872772,0.9168372750282288,-2.2303543090820312
1772650731077144000,3.06614404296875,-6.251716461741924,-1.5092998165786264,-0.7537683762144297,0.534400999546051,0.6619933247566223,-1.907006859779358
1772650731087116300,3.0761162109375,-4.66467874096632,-1.7119564783424135,-0.9170324273318052,0.6202418804168701,0.4258327484130859,-1.64548659324646
1772650731097088000,3.086087890625,-3.40333720164597,-1.8262793153539296,-0.6143748838976025,0.7884607315063477,0.2669177055358886,-1.491161584854126
1772650731107061200,3.096061279296875,-1.9951269387573003,-2.098441475020349,0.4499365283038467,0.8606955409049988,0.1683224290609359,-1.5139518976211548
1772650731117033200,3.106033203125,-0.2811298944979906,-1.8393413337618112,-0.1719380636993795,0.8701905012130737,0.3490034937858581,-1.5951391458511353
1772650731127005200,3.116005126953125,0.3722504273593425,-1.7912904195591806,-0.8579326611746102,0.8137000799179077,0.6895563006401062,-1.734787106513977
1772650731136977200,3.12597705078125,0.6705395464509725,-1.9558608040347691,-1.2811131383694707,0.7058067321777344,1.0210388898849487,-1.8627166748046875
1772650731146950100,3.1359501953125,0.9891460619062185,-2.041498521570861,-1.661194990006834,0.5837793946266174,1.2153644561767578,-1.934210062026977
1772650731156922000,3.145922119140625,1.131672956877947,-1.9455837401703,-1.793577215322107,0.4567882418632507,1.2493946552276611,-1.893033623695373
1772650731166894000,3.15589404296875,1.0478513488531112,-1.811626520623267,-1.730827036898583,0.3472084701061249,1.1229519844055176,-1.714877009391785
1772650731176866000,3.165865966796875,0.8596551741182804,-1.6937810624435543,-1.5242901727005838,0.2680376470088959,0.933151125907898,-1.4523413181304932
1772650731186839000,3.175839111328125,0.7176870820730924,-1.6483774478793145,-1.2670523181825877,0.1860117465257644,0.7838844060897827,-1.182862639427185
1772650731196811300,3.185811279296875,0.8216735262483358,-1.6031033049136398,-1.0842615096226331,0.0684820264577865,0.7238075733184814,-0.9612650275230408
1772650731206783000,3.195782958984375,1.0940285781383514,-1.5419050321072338,-1.1122804202742873,-0.0569254234433174,0.7660000324249268,-0.8301554918289185
1772650731216756200,3.205756103515625,1.570266034194827,-1.3297431676343083,-1.1545594730772075,-0.1564761400222778,0.8498856425285339,-0.8243719935417175
1772650731226728200,3.215728271484375,1.915269558188319,-1.2094351187333463,-1.018374640608579,-0.303503930568695,0.8880341053009033,-0.8852630257606506
1772650731236700200,3.2257001953125,2.092775412082672,-1.169686753451824,-1.0034279774978756,-0.4348824620246887,0.783827006816864,-0.9475088715553284
1772650731246672100,3.235672119140625,2.197165760883689,-1.3256848321542145,-0.5242738668097183,-0.5134129524230957,0.5159979462623596,-0.975199580192566
1772650731256645000,3.24564501953125,2.14108263913393,-1.6473767464041709,0.2897606524601578,-0.5576329231262207,0.1529251933097839,-0.9502965211868286
1772650731266617000,3.2556171875,1.9167513211786744,-1.2197367325171828,0.7374264593530446,-0.5232691168785095,-0.0966167226433754,-0.8996333479881287
1772650731276589000,3.265589111328125,1.2150947519302366,-0.6951416343964636,1.2386154743798077,-0.5016579627990723,-0.1892855614423751,-0.9130963683128356
1772650731286561300,3.275561279296875,0.7538368383407592,-0.4913565531246364,1.1734971055202186,-0.519079864025116,-0.339358925819397,-1.019138216972351
1772650731296534000,3.285533935546875,0.2691168006211519,-0.1985319830492138,0.6410379960261285,-0.5634417533874512,-0.4369442462921142,-1.1387470960617063
1772650731306506200,3.29550634765625,-0.6223293500334024,-0.1764073911331594,0.2165785118713974,-0.6390745043754578,-0.4171470999717712,-1.2250045537948608
1772650731316478200,3.305478271484375,-1.5309791489452125,0.0591553688019514,0.0404599841495975,-0.701266348361969,-0.4863926768302917,-1.3387852907180786
1772650731326451000,3.315450927734375,-2.0670850905090568,0.2971910947218537,-0.1299407869799062,-0.7566475868225098,-0.5375578999519348,-1.476457953453064
1772650731336423200,3.325423095703125,-2.5776310588806868,0.1645966879606246,0.0288700475882738,-0.7857542037963867,-0.4269804954528808,-1.488563060760498
1772650731346395100,3.33539501953125,-2.7170062118232248,0.1313873690590262,0.1772783287487924,-0.8260606527328491,-0.2706324160099029,-1.3631316423416138
1772650731356367000,3.3453671875,-2.848712437573075,0.1930455875273793,0.3102196857841685,-0.8981600999832153,-0.2364366054534912,-1.0962971448898315
1772650731366340000,3.355340087890625,-3.0134149239957333,0.0346958311323076,0.4449805863969028,-1.0675567388534546,-0.3485479652881622,-0.7870137691497803
1772650731376312300,3.365312255859375,-3.092942634218931,0.0010215981326997,0.1603248558603227,-1.3027805089950562,-0.5533978343009949,-0.454322874546051
1772650731386284000,3.375283935546875,-3.010673516333103,0.2487193247586488,-0.1178828310480341,-1.439096450805664,-0.6403857469558716,-0.0766411051154136
1772650731396256300,3.38525634765625,-2.7505589373350143,0.3998219595696777,0.1979391134562902,-1.44459068775177,-0.6120367646217346,0.2920455634593963
1772650731406229200,3.395229248046875,-2.386023029875755,0.4782525222059339,0.5470669691044837,-1.3299320936203003,-0.5148899555206299,0.5742149353027344
1772650731416201200,3.405201171875,-1.9010165764302012,0.7489185980957,0.8915412085268646,-1.0915708541870115,-0.4113043844699859,0.6958719491958618
1772650731426173200,3.415173095703125,-1.169009877103567,1.128524721980095,1.1466226887285709,-0.7988961338996887,-0.3898574411869049,0.6663878560066223
1772650731436145200,3.425145263671875,-0.5150333429187536,1.329072136504948,1.124198456278816,-0.4941817820072174,-0.3581859171390533,0.6014279723167419
1772650731446118100,3.4351181640625,-0.4750801027148961,1.263387512064725,1.020065954696387,-0.2171904146671295,-0.2301499247550964,0.5331503748893738
1772650731456090000,3.445090087890625,-0.3849503344565629,1.1739227835863828,0.798238436255604,-0.0386623553931713,-0.1015484184026718,0.483295738697052
1772650731466062000,3.45506201171875,-0.0001461304724216,1.3954066031560302,0.3595436521299183,0.0593054890632629,0.0314748771488666,0.4570990204811096
1772650731476035000,3.46503515625,0.2960942393958568,1.461744869199395,0.1323514283182099,0.0580566152930259,0.063452199101448,0.4652386009693146
1772650731486007300,3.47500732421875,0.8262707909107208,1.401022835602611,-0.1583521675478666,0.0219702497124671,-0.0373263396322727,0.5327811241149902
1772650731495979000,3.48497900390625,1.2245529006272553,0.8768364644132554,0.0541879739192314,0.0652249455451965,-0.3056191504001617,0.6481601595878601
1772650731505951200,3.494951171875,1.4883049593448638,0.5189534389719367,0.5207245768303052,0.1176324859261512,-0.4344631433486938,0.7409833073616028
1772650731515924200,3.50492431640625,1.602258086261153,0.723140963564813,0.9647332859877495,0.1555238664150238,-0.4171105325222015,0.8348044753074646
1772650731525896200,3.514896240234375,1.4013415461629628,0.959798240738362,1.2434906792007383,0.1850111782550811,-0.3506438732147217,0.9134145975112916
1772650731535868200,3.5248681640625,1.6402303817808628,1.30280416117385,1.1107573023602366,0.1917921602725982,-0.1947167068719864,0.972996175289154
1772650731545840400,3.53484033203125,1.6189046851575373,1.5692172557942567,1.0611278867945075,0.198646605014801,0.00622118730098,0.9916343092918396
1772650731555813000,3.544813232421875,1.2783388513505458,1.7672005189195277,1.0922295658923684,0.2365460246801376,0.16471728682518,0.9333370327949524
1772650731565785000,3.55478515625,1.3885498691290616,2.0281690843984483,1.3591171461567282,0.3004730939865112,0.2601151764392853,0.7976077198982239
1772650731575757300,3.56475732421875,1.770875115779042,2.18991315940693,1.627540411555767,0.3808389008045196,0.1844917088747024,0.6091224551200867
1772650731585730000,3.57472998046875,2.5502713427901265,1.9720707650795577,1.6262299134790896,0.4628392159938812,-0.0601475983858108,0.3596191108226776
1772650731595702300,3.584702392578125,3.5606980931341647,1.3341932789109647,1.4027480519600213,0.5333832502365112,-0.2959524989128113,0.044775765389204
1772650731605674200,3.59467431640625,4.322075263851881,0.5678614083953202,1.4177085974656043,0.5895306468009949,-0.4296301603317261,-0.3214307129383087
1772650731615646200,3.604646240234375,4.727582064124942,-0.3511436341837048,1.4703174672335386,0.6351060271263123,-0.5060953497886658,-0.6835808753967285
1772650731625619200,3.614619140625,4.694749469581246,-1.2951242741957305,1.2205886731714009,0.6315627098083496,-0.4606711268424988,-0.9514610767364502
1772650731635591200,3.624591064453125,4.031876512235403,-2.1755340670511125,0.6134429368097335,0.537750244140625,-0.2116501331329345,-1.028477907180786
1772650731645563100,3.634563232421875,2.708938056179881,-3.029131548565626,-0.1409986990237608,0.306522399187088,0.0115395449101924,-0.9703581929206848
1772650731655535000,3.64453515625,1.875604487276077,-3.135046330454945,-0.8859124819248915,-0.0116126406937837,0.1161694601178169,-0.817949652671814
1772650731665508400,3.65450830078125,1.3021312303483483,-2.947496636930108,-1.308466716980189,-0.2537088990211487,0.2035405784845352,-0.5940726399421692
1772650731675480000,3.66447998046875,0.7367097624510526,-3.0291975995391605,-0.9909208895590156,-0.3598672747611999,0.2055864930152893,-0.3786177039146423
1772650731685452300,3.674452392578125,0.4073708405792713,-3.1251556355595587,-0.5220135571949184,-0.3750896453857422,0.1545906960964203,-0.2673561573028564
1772650731695424000,3.684424072265625,0.2501689390450716,-3.20443492397964,-0.1157976770707406,-0.3663580417633056,0.1249847337603569,-0.2654187083244324
1772650731705397200,3.694397216796875,0.1864513768941164,-3.153860336518288,-0.0007397307177074,-0.3735376596450805,0.1864787191152572,-0.3116141557693481
1772650731715369200,3.704369140625,-0.3035924861967563,-3.2158067973434923,-0.0801524545254185,-0.3729695677757263,0.4334814548492431,-0.2995017766952514
1772650731725341200,3.714341064453125,-1.686274924597144,-3.4781443130880594,-0.1822383988415822,-0.3754550814628601,0.8510574102401733,-0.0842935889959335
1772650731735314200,3.724314208984375,-3.875993292084336,-3.391775943189859,-0.8317080135285854,-0.402710497379303,1.208225965499878,0.3749708831310272
1772650731745286100,3.7342861328125,-6.053428516581654,-2.9137673858076334,-1.4714517319604754,-0.4314654469490051,1.2836121320724487,0.999943196773529
1772650731755258000,3.744258056640625,-7.2033537539869545,-2.267048421535641,-1.2999547630921005,-0.4191402494907379,1.1051225662231443,1.7532696723937988
1772650731765230000,3.75422998046875,-7.935648622605204,-1.880455726699531,-0.5288572125446052,-0.3266840875148773,0.7207087278366089,2.4962236881256104
1772650731775203300,3.764203369140625,-8.218874612599611,-1.4110815805412829,0.4428954141533002,-0.1916589438915252,0.3460575342178345,3.0347025394439697
1772650731785175000,3.774175048828125,-8.180809378099442,-0.7882081867590546,0.990060108011216,-0.0533292964100837,0.1951290071010589,3.2790541648864746
1772650731795147300,3.784147216796875,-8.300984156009555,-0.3526420560479164,1.0435032366462051,0.011282280087471,0.1999902874231338,3.1955337524414062
1772650731805119200,3.794119140625,-8.451247782713175,-0.1871264996767044,0.3195758719440549,0.0652584284543991,0.6908298134803772,2.9569993019104004
1772650731815092000,3.804092041015625,-9.127811996281146,-0.4716746781855821,0.2803010789910331,0.1781105697154998,1.309444546699524,2.6264138221740723
1772650731825064200,3.814064208984375,-9.949027841889858,-1.2737792883500456,0.7849037383861839,0.2388950884342193,1.6082792282104492,2.3969919681549072
1772650731835036200,3.8240361328125,-10.953760179984569,-1.8397452383875843,1.029054659250751,0.1955156326293945,1.542888641357422,2.399964570999145
1772650731845009200,3.834009033203125,-12.48871466230154,-2.1866306306049226,0.8665695566166192,0.1838952004909515,1.2325397729873655,2.5722811222076416
1772650731854981000,3.843981201171875,-13.73996326215267,-1.9505159358754756,1.0903576345406472,0.2652574777603149,0.8352993726730347,2.742173194885254
1772650731864953000,3.853953125,-13.90995859428644,-1.4476067459926008,1.1455118779424578,0.3217465877532959,0.4953013062477112,2.795668363571167
1772650731874925000,3.863925048828125,-13.389528360760211,-1.6917963183671234,0.5216525418628006,0.3051526546478271,0.2993540465831756,2.7216084003448486
1772650731884898300,3.873898193359375,-12.303203781127928,-2.321936634412408,-0.588435921325162,0.3378717303276062,0.2594980001449585,2.5910568237304688
1772650731894870000,3.8838701171875,-10.959079329180716,-2.607519416666031,-1.2832906285390258,0.4781370162963867,0.2751413285732269,2.4191834926605225
1772650731904842200,3.89384228515625,-9.06877703898847,-2.866840799459815,-1.335905781917274,0.5600095391273499,0.2568062841892242,2.1872200965881348
1772650731914814200,3.903814208984375,-6.571496697151661,-3.2796535388320684,-1.8420907786004244,0.3980448544025421,0.1466835290193557,1.7409249544143677
1772650731924787000,3.913786865234375,-3.1297827108383176,-3.5046664093106985,-3.329930896912515,0.1067283228039741,-0.008032557554543,1.0639392137527466
1772650731934759200,3.92375927734375,0.2409001754403114,-3.125945324632525,-4.480759220637381,-0.0484279468655586,-0.0708651840686798,0.3813886940479278
1772650731944731100,3.933731201171875,1.7744851229697465,-1.9602029248923063,-3.687981241744757,0.0795707628130912,-0.0391003265976905,-0.031739767640829
1772650731954703000,3.943703125,1.1643360400736331,-0.2867892354339361,-1.7438433164685962,0.3700333833694458,-0.0291262995451688,-0.0801042020320892
1772650731964676000,3.953676025390625,-0.1919452981352806,1.335695061776042,-0.6749672267001122,0.6971015334129333,-0.0973133444786071,0.2311026751995086
1772650731974648300,3.9636484375,-1.178964869406819,2.685277779129148,-0.5572394766159355,0.9184311032295228,-0.2085633873939514,0.8520054817199707
1772650731984620000,3.9736201171875,-1.768245936319232,3.5249013880878683,-1.273342358237505,1.0060768127441406,-0.3943321704864502,1.5057251453399658
1772650731994593000,3.983593017578125,-0.709517219620943,3.926331732702255,-1.9387404501467944,1.028011441230774,-0.4627731740474701,1.8323453664779663
1772650732004564700,3.993564697265625,2.412231822365522,4.009443146631122,-1.950778093943,0.7284616231918335,-0.7308909296989441,2.0122640132904053
1772650732014537000,4.003536865234375,4.651291436126828,3.823040285053849,-4.038618095450103,0.1495483815670013,-0.9676555395126344,2.013747215270996
1772650732024508700,4.0135087890625,6.907895474407076,4.319026397675276,-6.392679760658741,-0.3014467656612396,-0.8122337460517883,1.6957634687423706
1772650732034481700,4.023481689453125,9.003955314987897,3.943353010129929,-5.223983771809936,-0.5647072792053223,-0.556039571762085,1.2171677350997925
1772650732044454000,4.033453857421875,10.281771603769064,4.171759614700079,-3.4352363147318363,-0.7089147567749023,-0.3924258947372436,0.8272282481193542
1772650732054425600,4.043425537109375,10.467837780737876,5.058970319741964,-2.1310626187704504,-0.7324183583259583,-0.5070033669471741,0.5673726201057434
1772650732064397800,4.053397705078125,10.192568887227774,5.690874138328433,-0.5919025745224207,-0.6362635493278503,-0.7547854781150818,0.3664415776729584
1772650732074370800,4.063370849609375,9.866079509568214,6.02617167634368,0.9230692232780158,-0.4439291059970855,-0.9393789768218994,0.1306005865335464
1772650732084342800,4.0733427734375,9.449691834318635,6.3095940656930205,2.0525435010679063,-0.1877292692661285,-0.9639762043952942,-0.1569020450115203
1772650732094314800,4.083314697265625,8.802332087925077,6.358723715043068,2.995445552062988,0.0541348792612552,-0.8478825688362122,-0.4292101860046386
1772650732104287700,4.093287841796875,7.612116341185569,6.1406169706910845,3.2036078255057334,0.2290925830602646,-0.6520344614982605,-0.6029406785964966
1772650732114259700,4.103259765625,6.14004764637053,6.1159022161513565,2.664226223272085,0.2859400510787964,-0.5148952603340149,-0.6400048732757568
1772650732124232000,4.11323193359375,4.837123219817877,6.080831487292051,1.6499441126741468,0.2241310030221939,-0.4147130250930786,-0.5630989074707031
1772650732134203600,4.12320361328125,3.7774668668806552,5.961181610038876,0.5567532274689525,0.0441728569567203,-0.3814760148525238,-0.3948487341403961
1772650732144176600,4.1331767578125,3.1259552615046498,5.744497007444501,-0.4599555988192558,-0.1969638615846634,-0.3347790837287903,-0.199288323521614
1772650732154148900,4.14314892578125,2.9611785408020017,5.628989636823535,-1.1863753648590296,-0.4000150263309479,-0.2325708121061325,-0.0353796258568763
1772650732164120600,4.15312060546875,3.2381291037887334,5.756361048239469,-1.1591074917703863,-0.5142459869384766,-0.1045936867594719,0.064283587038517
1772650732174092800,4.1630927734375,3.8759967992156734,5.937264727878571,-0.5095201689878478,-0.5796465873718262,-0.0166339688003063,0.0960901975631713
1772650732184065800,4.173065673828125,4.748113395500183,5.904695752707124,0.1576965897159651,-0.604094922542572,-0.0028268105816096,0.0786851122975349
1772650732194037800,4.183037841796875,5.589316967126726,5.870502391204238,0.6477804560236633,-0.5888635516166687,-0.0187254790216684,0.0303936786949634
1772650732204009700,4.193009765625,6.170765440717339,5.901594279560446,1.0876000063955784,-0.5188708901405334,-0.0894302725791931,-0.032358918339014
1772650732213982000,4.20298193359375,6.538553627970814,5.972677986565232,1.5736365335412323,-0.3887838721275329,-0.1784951984882354,-0.0993334874510765
1772650732223954700,4.21295458984375,6.676154756978153,6.007756314209103,2.0517346689030527,-0.2034116387367248,-0.2047760635614395,-0.1590524762868881
1772650732233926700,4.2229267578125,6.546310817968845,6.067124448978901,2.3099641648069023,-0.0248074028640985,-0.1813270449638366,-0.2009237855672836
1772650732243899000,4.23289892578125,6.267969092884659,6.010649697563052,2.2964004804871974,0.103655494749546,-0.1390789300203323,-0.2519342303276062
1772650732253871600,4.24287158203125,6.062327277830243,5.37752130561769,1.882894936545193,0.1567129641771316,-0.1208809912204742,-0.4006654620170593
1772650732263843800,4.25284375,6.405116632905602,5.065428702101111,1.1436212418902665,0.1766906678676605,-0.06403848528862,-0.6962047219276428
1772650732273815800,4.26281591796875,6.625120735311508,4.434637228670716,0.5045557515135035,0.1665666252374649,0.1180819347500801,-1.0377299785614014
1772650732283787800,4.272787841796875,5.827139634817838,3.866705823779106,-0.2682366202531382,0.1080867871642112,0.3130799233913421,-1.2741994857788086
1772650732293760800,4.2827607421875,3.999242655134201,3.3205466902345417,-0.6971218484282493,-0.0387506037950515,0.3254244029521942,-1.235653281211853
1772650732303733000,4.29273291015625,1.4860042811870575,1.874793755415082,-0.5143925607971847,-0.1610365658998489,0.0555119663476944,-0.9532461166381836
1772650732313704700,4.30270458984375,-0.8884177427440881,0.4391717539876699,0.130506311908178,-0.1469659209251403,-0.3404963314533233,-0.5979393124580383
1772650732323677000,4.312677001953125,-2.4935230351299045,-0.4758212764710187,1.5399578435622154,-0.0307077653706073,-0.7316805720329285,-0.3892239332199096
1772650732333650000,4.32264990234375,-3.0431273406922816,-1.335432026925683,2.758854179732501,0.083029918372631,-0.8794803619384766,-0.4208950698375702
1772650732343621600,4.33262158203125,-3.113638216245174,-2.283807687026262,2.954592732670903,0.0735732987523078,-0.8269428610801697,-0.5889745950698853
1772650732353593900,4.34259375,-3.2822505695879456,-2.997137158411741,1.8514235473521048,-0.0450704544782638,-0.6279333829879761,-0.700600266456604
1772650732363566800,4.35256689453125,-4.229249680638313,-3.256119518509507,0.4981121283320709,-0.1882294714450836,-0.35753333568573,-0.7587650418281555
1772650732373538800,4.362538818359375,-4.9546939527094365,-3.4430016880363223,-0.2867095943264663,-0.3793579339981079,-0.0209779180586338,-0.6539919376373291
1772650732383510800,4.3725107421875,-5.521902304023504,-4.175134644091129,-0.0266543671330669,-0.5794713497161865,-0.11825492978096,-0.5460036993026733
1772650732393482800,4.382482666015625,-4.795519874319434,-5.523304572036862,1.2622427259437738,-0.6350832581520081,-0.7292712926864624,-0.8963287472724915
1772650732403455700,4.392455810546875,-1.4883534746617078,-5.022414905282854,2.182983798535168,-0.5538667440414429,-1.0047614574432373,-1.8986445665359497
1772650732413427700,4.402427734375,1.6327449944615362,-3.2765158253282305,1.8607120385706424,-0.4459151327610016,-0.6289573311805725,-3.2264528274536133
1772650732423399700,4.412399658203125,2.11241885470748,-2.0524942550987,0.9584409809105098,-0.3801462352275848,0.1182212829589843,-4.37864351272583
1772650732433372000,4.422371826171875,-0.2065454858958721,-1.5008625353619456,0.4431408768143504,-0.3595556914806366,0.8746218681335449,-4.966409683227539
1772650732443345000,4.432344970703125,-4.562507821780443,-1.0583961237430572,-0.0013808416328392,-0.3157746493816376,1.3415660858154297,-4.877673625946045
1772650732453316600,4.442316650390625,-8.666577463567256,-0.2635246797025203,0.0721947004539892,-0.1334343552589416,1.4368573427200315,-4.273345947265625
1772650732463288800,4.452288818359375,-10.907407594132422,0.7280486093506217,0.5640356760947034,0.1283932626247406,1.441911220550537,-3.2453737258911133
1772650732473261800,4.46226171875,-11.721631388896704,0.9910235462158916,1.0282974842078982,0.2644115090370178,1.2761503458023071,-2.092189073562622
1772650732483233800,4.47223388671875,-11.472819125157594,0.3650049862757324,0.8053153158392756,0.4224045872688293,0.6824353337287903,-0.9179674983024596
1772650732493205800,4.482205810546875,-9.786548292213675,0.3522676697775721,0.2471582859870046,0.4880982339382171,0.0490172021090984,0.0500306785106658
1772650732503178000,4.492177978515625,-7.715961331063508,0.2370426232293248,-0.3153811967331916,0.5172521471977234,-0.3828535377979278,0.6724814176559448
1772650732513150700,4.502150634765625,-4.9859769797235725,0.0034323125362396,-0.699518972697854,0.5073437690734863,-0.4998333752155304,0.94359028339386
1772650732523122700,4.512122802734375,-2.344189382752776,-0.2094333162918686,-1.0789892683081328,0.4616228938102722,-0.3894317746162414,0.9303887486457824
1772650732533095000,4.522094970703125,-0.2845651296436786,-0.50585488794595,-1.3484919995069502,0.4173122942447662,-0.1279114931821823,0.7361330389976501
1772650732543066600,4.532066650390625,1.177908053830266,-0.8283972815454006,-1.1240646738313138,0.4139066636562347,0.1937775909900665,0.4503982067108154
1772650732553040000,4.542039794921875,2.24488963508904,-0.9930003992468118,-0.6672372900351882,0.4200451374053955,0.4095418155193329,0.1458557397127151
1772650732563011800,4.55201171875,3.086991616860032,-0.8977011193960904,-0.4142221677787602,0.398446649312973,0.4795565903186798,-0.1221956834197044
1772650732572983800,4.56198388671875,3.422351114195585,-0.9042007105484604,-0.2742456148769706,0.3727092146873474,0.4337447583675384,-0.2759090363979339
1772650732582956800,4.571956787109375,3.0236545784592628,-0.9456403899177908,-0.0315240326957777,0.3596325516700744,0.3128662705421448,-0.2743617594242096
1772650732592928800,4.5819287109375,2.122439897984266,-0.711966074077785,0.1685178069271147,0.3646948039531708,0.1688736081123352,-0.1500028669834137
1772650732602900700,4.591900634765625,1.3080886774480345,-0.339069165508449,0.2725850247209891,0.3717164993286133,0.0417031347751617,0.0043302504345774
1772650732612873000,4.601873046875,0.9169313050448894,-0.0352276729866862,0.2572400830077007,0.3657934963703155,-0.0354741252958774,0.1403978765010833
1772650732622846000,4.611845947265625,0.8463900343537331,0.0450078932449221,0.10284922030624,0.3429036438465118,-0.1795181185007095,0.1378963738679886
1772650732632817700,4.621817626953125,1.3950257871448992,0.3168357063904404,-0.0218217365119606,0.3390896320343017,-0.2589566707611084,0.0160985793918371
1772650732642790000,4.631789794921875,1.9950234783828256,0.1819046733751892,0.0444958155369386,0.3633694052696228,-0.2894059419631958,-0.2258157879114151
1772650732652761600,4.64176171875,2.116630334922671,-0.3053255935996771,0.121668048675172,0.3987807631492615,-0.2377803176641464,-0.5390792489051819
1772650732662734800,4.65173486328125,1.94190037548244,-0.1079606085032224,-0.2913291804185137,0.4690975248813629,-0.0409016162157058,-0.8893837332725525
1772650732672706800,4.661706787109375,1.3462369140565396,0.3427016767919063,-0.6754728381346911,0.549393892288208,0.2948996126651764,-1.2223291397094729
1772650732682678800,4.6716787109375,0.4015127622008323,0.5652431887209415,-1.2140795104730873,0.5833883285522461,0.6422449946403503,-1.4489548206329346
1772650732692650800,4.681650634765625,-0.7990180423259735,0.520595945481956,-1.885597473502159,0.5630031228065491,0.8396980166435242,-1.5080658197402954
1772650732702623700,4.691623779296875,-1.8055284960091116,0.535036558766663,-2.601738787437976,0.4476176500320434,0.9755711555480956,-1.295588731765747
1772650732712595700,4.701595703125,-2.8040444438070056,0.5560033589497209,-3.0610990507125853,0.3265692889690399,0.8637775778770447,-0.8710047602653503
1772650732722567700,4.711567626953125,-3.447374496293068,0.5454144526571035,-3.038118572619557,0.226032555103302,0.5731433629989624,-0.3356087207794189
1772650732732541000,4.721541015625,-3.503579783117771,0.4545645534306764,-2.7041493605986235,0.1836796700954437,0.1934097856283188,0.1891660392284393
1772650732742512600,4.7315126953125,-2.993622428289056,0.5795563762336969,-2.236932830865681,0.2010924816131591,-0.1448417603969574,0.6054468750953674
1772650732752484900,4.74148486328125,-2.01840318492651,0.6556535274863242,-1.804408552068472,0.2480071187019348,-0.452411413192749,0.8730137944221497
1772650732762456800,4.751456787109375,-0.7922989632040262,0.7330588387280702,-1.3863158264666795,0.2950089871883392,-0.6913432478904724,0.9888551831245422
1772650732772429800,4.761429931640625,0.4137099804729223,0.6214072667524219,-0.966706120430678,0.3753426671028137,-0.8531315326690674,0.990220844745636
1772650732782401800,4.77140185546875,1.0373463214516638,0.2179252503052353,-0.6671123484812677,0.4400193989276886,-0.8708298802375793,0.8810799717903137
1772650732792374000,4.7813740234375,1.4694646497964858,0.3399757589593529,-0.7515539881005883,0.5214729309082031,-0.7617282867431641,0.6620191931724548
1772650732802345700,4.791345703125,1.6818611998081203,0.5303036850258708,-0.8977285919249057,0.610995352268219,-0.5596042275428772,0.3667356371879577
1772650732812318700,4.801318603515625,1.5206518161982296,0.5341527616694569,-1.0884325847622007,0.6568877696990967,-0.3303001224994659,0.0226188879460096
1772650732822291000,4.811291015625,1.221545535504818,0.5190341029927135,-1.625067591701448,0.609799325466156,-0.147174522280693,-0.3229156136512756
1772650732832262700,4.8212626953125,0.901327493199706,0.415780649267137,-2.440127106637508,0.4961385130882263,-0.0323891788721084,-0.6137089133262634
1772650732842236000,4.83123583984375,0.2356424010425805,0.3162912242501974,-3.0208707929596303,0.3542700707912445,0.0838543400168418,-0.7900277376174927
1772650732852207900,4.841207763671875,-0.7430050632029771,0.2684977919399738,-3.210084035782516,0.2411329746246338,0.2086168527603149,-0.8155306577682495
1772650732862179800,4.851179931640625,-1.8860709362328048,0.3267380917236209,-3.008231091617048,0.1522049754858017,0.2197078615427017,-0.6783429980278015
1772650732872151800,4.86115185546875,-2.5937112560659648,0.3801522865250706,-2.6825159132003784,0.0627345666289329,0.0431642606854438,-0.4371853470802307
1772650732882124800,4.871124755859375,-2.747975935104489,0.3723702543467283,-2.310736610484123,-0.0264150146394968,-0.2597828507423401,-0.1207024753093719
1772650732892096800,4.8810966796875,-2.3931752397179604,0.2979378214359283,-1.8975956620708108,-0.1460781097412109,-0.5595812201499939,0.2875481247901916
1772650732902068700,4.89106884765625,-2.0086586205035446,0.264414906540513,-1.5571883798263966,-0.2522692382335663,-0.8593453168869019,0.6287342309951782
1772650732912040700,4.901040771484375,-1.225638942298293,0.1188493745252489,-1.2423327413372696,-0.3124845921993255,-1.002291560173035,0.8511514663696289
1772650732922013700,4.911013671875,-0.1129231993466615,0.0417567824944853,-0.7061327648144214,-0.3244131505489349,-1.0812278985977173,0.9197505116462708
1772650732931986000,4.92098583984375,1.2522381954103707,0.1924316203474998,-0.0730272970869205,-0.3254251778125763,-1.176690697669983,0.8055130839347839
1772650732941957600,4.93095751953125,3.0644524527937174,0.6552186432003975,0.2388743687011301,-0.212740957736969,-1.1060460805892944,0.660319983959198
1772650732951931000,4.940930908203125,3.8977643943876026,-0.4224474136799573,1.5749344643972814,-0.119057185947895,-1.085392951965332,0.4037353992462158
1772650732961902800,4.95090283203125,5.069890357685089,-0.8615031400725245,2.2091361846625803,-0.0697263926267623,-1.0773427486419678,0.1268901973962783
1772650732971874800,4.960874755859375,6.059500529971719,-0.7227730070352554,2.157987012183666,-0.0417992323637008,-1.0485060214996338,-0.0999255627393722
1772650732981846800,4.9708466796875,6.507451218220592,-0.7587599739566445,2.223982163877785,-0.0445715822279453,-1.0053119659423828,-0.2443192303180694
1772650732991819800,4.98081982421875,6.624059828081727,-0.8048834272280335,2.3200002595223483,-0.0837239027023315,-0.9994344711303712,-0.3097315430641174
1772650733001792000,4.9907919921875,6.780505358290672,-0.7619754288718104,2.451115095250308,-0.1557344496250152,-1.0161685943603516,-0.3412143588066101
1772650733011763700,5.000763671875,7.05757457922101,-0.9296817732855676,2.7285864672407505,-0.2370159178972244,-0.9735701680183412,-0.3756343722343445
1772650733021736000,5.01073583984375,7.26278092546761,-1.3020479359790682,3.092601565696299,-0.3152870237827301,-0.9089155197143556,-0.4194510877132416
1772650733031709000,5.020708984375,7.434041162970661,-1.5438213871225714,3.4584599539309737,-0.3797149062156677,-0.8898051381111145,-0.5058245658874512
1772650733041681000,5.030680908203125,7.713251487582921,-1.749716592416167,3.840359376384318,-0.4196540713310241,-0.893740177154541,-0.7182756066322327
1772650733051652900,5.04065283203125,8.01283064648509,-2.0732140947833657,4.31706971064955,-0.4003395438194275,-0.8215650320053101,-1.041574478149414
1772650733061625900,5.0506259765625,7.955550423905253,-2.500100075432658,4.761617020195723,-0.3337144553661346,-0.7196256518363953,-1.369792342185974
1772650733071597800,5.060597900390625,7.004879346343874,-2.69128695641607,5.060752526983618,-0.2472347021102905,-0.5882961750030518,-1.5213711261749268
1772650733081569800,5.07056982421875,4.53728044154346,-2.5382871827468274,4.904436760634184,-0.2208459675312042,-0.444682240486145,-1.4280272722244265
1772650733091541800,5.080541748046875,1.4097066389262676,-2.7016706955254075,3.9291841995239256,-0.2704879641532898,-0.3812064230442047,-1.0282025337219238
1772650733101514800,5.0905146484375,-2.1511849309533835,-2.893063328213989,2.9798277116924523,-0.4082804322242737,-0.3203840851783752,-0.328909158706665
1772650733111487000,5.100487060546875,-5.924660682371258,-3.180283648541569,1.7688481399960816,-0.6160029768943787,-0.3072558045387268,0.5657541751861572
1772650733121458700,5.110458740234375,-9.287216960817576,-3.491097025902569,0.7619782053507864,-0.7575457096099854,-0.3616452813148498,1.3891397714614868
1772650733131431000,5.120430908203125,-11.503762544953824,-3.848762170809507,0.750768244550377,-0.7545023560523987,-0.275514006614685,1.9125571250915527
1772650733141404000,5.13040380859375,-12.596896804600954,-4.425428670820594,1.7629411079093813,-0.6353586316108704,0.0283417534083127,2.1603875160217285
1772650733151376000,5.1403759765625,-13.816947133111952,-5.23441865658462,2.7110987413451078,-0.4358786344528198,0.4089040458202362,2.2425689697265625
1772650733161347800,5.150347900390625,-15.473037931847571,-6.058142685621976,3.227226601502299,-0.2363998740911483,0.6894392967224121,2.2789571285247803
1772650733171320000,5.160320068359375,-17.41567071325779,-7.1601605089485645,3.258298616114258,-0.1263923496007919,0.8648115992546082,2.2866098880767822
1772650733181292800,5.170292724609375,-19.518354940414422,-8.239086210501194,2.256791377545893,-0.1151788532733917,1.0253195762634275,2.3226091861724854
1772650733191264800,5.1802646484375,-21.820129661285875,-8.650205005437135,0.2191470471851527,-0.1459417939186096,1.2526975870132446,2.4923226833343506
1772650733201237000,5.190237060546875,-24.386468341779707,-8.0416271173805,-1.988105223426968,-0.2144345641136169,1.609298586845398,2.837265729904175
1772650733211209700,5.200209716796875,-26.74289585933685,-6.705934393692016,-4.255873483669758,-0.3377655446529388,2.092978000640869,3.3597986698150635
1772650733221182000,5.210181884765625,-28.069222788786888,-5.336462734520435,-6.369690514737368,-0.4883401095867157,2.509168863296509,3.9823505878448486
1772650733231154000,5.22015380859375,-27.439304591059685,-3.8117783018052576,-7.82123839957118,-0.6357089281082153,2.609694719314575,4.608201503753662
1772650733241126000,5.2301259765625,-24.590115768146514,-2.268428916108608,-8.160527053049206,-0.7456796169281006,2.3428542613983154,5.163244724273682
1772650733251099000,5.240098876953125,-20.4099191644907,-1.068621165159345,-7.428239198693633,-0.8544634580612183,1.8185503482818604,5.55750846862793
1772650733261070800,5.25007080078125,-15.570563071054218,-0.2119020444929599,-6.466887737163901,-1.0090495347976685,1.1432260274887085,5.652289867401123
1772650733271042800,5.260042724609375,-10.288702864336967,0.0163192666381597,-5.394209990090132,-1.2106434106826782,0.4825509488582611,5.365329265594482
1772650733281015800,5.270015869140625,-4.839140989381074,-0.2388561023920774,-4.541760509566963,-1.3343088626861572,0.0582856871187686,4.673961162567139
1772650733290988000,5.279988037109375,-0.0391062679857015,-0.0579635286688804,-3.640815878205001,-1.3690296411514282,-0.0359165407717227,3.576314926147461
1772650733300959700,5.289959716796875,3.782502522960305,0.8193295934706926,-2.7826678937792777,-1.201668620109558,0.3647845387458801,2.3853230476379395
1772650733310932000,5.299931884765625,5.487032066172361,0.6071931556999683,-1.2466596646256745,-0.955940306186676,0.982151448726654,1.122925877571106
1772650733320905000,5.309905029296875,6.353867507183551,1.5048802465707063,-0.894550984802097,-0.7356449365615845,1.6173756122589111,0.0539530180394649
1772650733330877000,5.319876953125,6.75771952598691,3.2971786741286517,-1.4767479386724531,-0.440938264131546,1.9813979864120483,-0.7777758240699768
1772650733340849000,5.329848876953125,6.302528949612379,4.245118280899525,-0.726320031992346,-0.2385313510894775,2.1032819747924805,-1.217968463897705
1772650733350820900,5.33982080078125,5.184855291992426,5.732112742167711,-1.362743958351761,-0.0315905511379241,2.075690269470215,-1.2641454935073853
1772650733360793900,5.3497939453125,3.615289515021443,7.120059969228506,-1.4308166469722985,0.1759368181228637,1.860813856124878,-0.990300953388214
1772650733370765800,5.359765869140625,2.5350977390557525,8.075881853681802,-1.2988783660322427,0.3514043986797333,1.4894648790359497,-0.5255959033966064
1772650733380737800,5.36973779296875,2.320745963323116,8.863269663968682,-1.4400506315246224,0.4753867983818054,1.1015962362289429,-0.0226912107318639
1772650733390709800,5.379709716796875,2.7981308358490464,9.307024069571494,-1.8241731368549168,0.5171133279800415,0.8390322923660278,0.4122123122215271
1772650733400683000,5.38968310546875,3.652684887436032,9.710444711220264,-2.4966361987143757,0.5030534267425537,0.7150635123252869,0.7708554267883301
1772650733410654700,5.39965478515625,4.425152776488662,9.650712419313193,-2.87024447042346,0.4189528822898865,0.6347537636756897,1.0979214906692505
1772650733420627000,5.409626953125,5.120959450665116,9.375359939172863,-3.259528157909214,0.3144741356372833,0.4633556306362152,1.4174435138702393
1772650733430600000,5.419599853515625,5.858888525778055,9.319054114583134,-3.29567060765326,0.2551384270191192,0.1795438528060913,1.697790265083313
1772650733440572000,5.429572021484375,6.635474371543526,9.37503202239275,-2.7433336622565982,0.256467342376709,-0.1812883764505386,1.8713631629943848
1772650733450543900,5.4395439453125,7.389304780143499,9.529925646984577,-2.1125115014269946,0.3171993494033813,-0.5334484577178955,1.9337724447250368
1772650733460516000,5.44951611328125,8.02502494214773,9.819675485789777,-1.7081556247547267,0.3891851305961609,-0.7759899497032166,1.890885710716248
1772650733470488800,5.45948876953125,8.266049036228656,9.590015081766246,-1.437384334924817,0.4811902046203613,-0.753844678401947,1.7383577823638916
1772650733480460800,5.469460693359375,8.302666994529963,9.26844504033029,-1.1518575206421315,0.5856825113296509,-0.6475933194160461,1.4890390634536743
1772650733490433000,5.47943310546875,8.172906642150878,9.214091518852117,-1.425522632217407,0.6237277984619141,-0.4397584795951843,1.1698435544967651
1772650733500405800,5.48940576171875,8.411488603776693,9.530624150642751,-2.1380495550483465,0.6125433444976807,-0.1539099216461181,0.7674814462661743
1772650733510378000,5.4993779296875,8.408037002018094,9.353685867503286,-2.522097972229123,0.5337039232254028,0.1263645440340042,0.3460956811904907
1772650733520350000,5.509349853515625,8.31906224901378,8.904096179875731,-2.826121835580468,0.4173344373703003,0.3420196175575256,-0.0405452214181423
1772650733530322000,5.519322021484375,7.897642424815893,8.85635301644802,-3.1398803264826536,0.263184905052185,0.4504683017730713,-0.3381266593933105
1772650733540295000,5.529294921875,7.176663899981975,8.964995761996507,-3.377249697448313,0.1153134256601333,0.4792626798152923,-0.5329214334487915
1772650733550267000,5.539266845703125,6.407158367866277,8.890628795537353,-3.2432810797244307,-0.0108465105295181,0.446121871471405,-0.6507740616798401
1772650733560238800,5.54923876953125,5.783354269105196,8.803522759014367,-2.814316831496358,-0.1191122680902481,0.3945021033287048,-0.6797905564308167
1772650733570210800,5.5592109375,5.252824666368961,8.635684312653542,-2.433720308335125,-0.2055377066135406,0.3142552077770233,-0.64630126953125
1772650733580184000,5.56918408203125,4.832524201589822,8.601468154796958,-2.0576156897656617,-0.2491403073072433,0.2074831873178482,-0.5624427795410156
1772650733590155800,5.57915576171875,4.503312120968103,8.620573837283253,-1.591321973966062,-0.2664017677307129,0.0653764307498931,-0.4371827840805053
1772650733600128000,5.5891279296875,4.273986063465475,8.473537355932592,-1.126117514707893,-0.2573161125183105,-0.1257533133029937,-0.3043192625045776
1772650733610099700,5.599099609375,4.261936144709587,8.316071250504255,-0.733768886693567,-0.2185451090335846,-0.3220874369144439,-0.219200000166893
1772650733620073000,5.609072998046875,4.512334216335415,8.161667455255985,-0.3381315923973917,-0.133859246969223,-0.4937776923179626,-0.2322162091732025
1772650733630045000,5.619044921875,4.891940851676464,7.895266927856206,0.1200400456145405,-0.0099511723965406,-0.6149793267250061,-0.3672674000263214
1772650733640017000,5.629016845703125,5.177028543889522,7.472188815057277,0.6800736829936503,0.1681628972291946,-0.6415376663208008,-0.5908714532852173
1772650733649990000,5.638989990234375,5.097504340797663,6.836972510921955,1.3080617894411086,0.3318368196487427,-0.5298488736152649,-0.8136900663375854
1772650733659961900,5.6489619140625,4.549391150575876,5.430743777239322,1.99432073694095,0.4525467157363891,-0.5738807320594788,-1.0332245826721191
1772650733669933800,5.658933837890625,3.942009778827429,3.3554286185234785,2.7065403473883864,0.5148277282714844,-0.6826821565628052,-1.2864290475845337
1772650733679906800,5.66890673828125,3.3935955598324536,1.7668547742217775,3.145046330943704,0.59369295835495,-0.8161198496818542,-1.6273642778396606
1772650733689879800,5.6788798828125,2.7098639388531445,0.4093342496067285,3.4591526123702523,0.7291456460952759,-0.8747646808624268,-2.0466196537017822
1772650733699851800,5.688851806640625,1.7550947783231734,-0.6122258891701698,3.421687681850791,0.8140754699707031,-0.7771510481834412,-2.4308948516845703
1772650733709823700,5.69882373046875,0.2509036830604076,-1.458839210885763,2.364450226623565,0.6759737730026245,-0.5715991854667664,-2.6462128162384038
1772650733719797000,5.708796875,-2.193258816573024,-2.489724811890721,0.044054099651426,0.3679720461368561,-0.2842004001140594,-2.6950433254241943
1772650733729768700,5.718768798828125,-3.615654256680608,-3.4077935965329407,-1.868034928804636,-0.0512787513434886,-0.0753299593925476,-2.5255022048950195
1772650733739741000,5.728740966796875,-4.604613856104016,-4.372013891497254,-2.0806161877334115,-0.3658678531646728,-0.2788971960544586,-2.2918567657470703
1772650733749713000,5.738712890625,-4.327748048791289,-6.546780773568153,0.0354838031722232,-0.4606969058513641,-1.1383957862854004,-2.460139036178589
1772650733759685600,5.748685546875,-1.422820387521386,-7.120206684222817,2.161591904807836,-0.3194772005081177,-2.013345718383789,-3.1612558364868164
1772650733769657900,5.758657958984375,1.6780477789998054,-5.649056273296475,2.580862880408764,-0.107368916273117,-2.378507614135742,-4.3590407371521
1772650733779629800,5.7686298828125,3.0477129149168727,-3.766334647491574,0.8014339443612843,-0.0740120261907577,-1.9564732313156128,-5.7167792320251465
1772650733789601800,5.778601806640625,1.591105408605933,-2.0437375326693057,-2.3898477027304468,-0.1886278241872787,-0.8907403349876404,-6.793739318847656
1772650733799574800,5.78857470703125,-2.402356909561157,-0.758221921557188,-4.428108119162917,-0.3134621679782867,0.2706796526908874,-7.206042289733887
1772650733809547000,5.798547119140625,-7.509141119879484,0.3517109126776456,-4.3638355534777045,-0.3701878488063812,1.0557563304901123,-6.848165512084961
1772650733819518700,5.808518798828125,-11.72440085361004,1.4632467981949449,-3.327434988443553,-0.3244182467460632,1.26888108253479,-5.883270263671875
1772650733829492000,5.818491943359375,-13.928256467521187,1.7683958661839363,-1.6578076856561004,-0.2086103111505508,0.769356369972229,-4.7011799812316895
1772650733839464000,5.8284638671875,-13.980388805818556,1.1935896070867775,-0.0657577262090519,-0.0200787391513586,-0.0521510690450668,-3.4264907836914062
1772650733849436000,5.838435791015625,-13.198053018224238,0.451652173115313,1.1297757449544965,0.2312798351049423,-0.9708797931671144,-2.2603952884674072
1772650733859408000,5.848407958984375,-12.148978849577905,0.134908821183443,1.5830642870999871,0.4751423001289367,-1.6531126499176023,-1.2801223993301392
1772650733869380900,5.858380859375,-10.77643377431035,0.0034198914460837,1.223819764047116,0.6857182383537292,-2.003537654876709,-0.492212563753128
1772650733879352800,5.868352783203125,-9.241410318410397,-0.5138020475581287,0.5536094130178913,0.8243865966796875,-2.063899040222168,0.0644379183650016
1772650733889324800,5.87832470703125,-7.422678641957044,-1.0890763625584543,-0.3923168081039562,0.8447134494781494,-1.8477953672409055,0.3598974943161011
1772650733899296800,5.888296875,-5.363537788450718,-1.6273977882146835,-1.61683869253844,0.7517038583755493,-1.407921314239502,0.4038215279579162
1772650733909269800,5.898269775390625,-3.2199317683190105,-2.293901649408787,-2.613093125145137,0.6659881472587585,-0.7595406770706177,0.2631480395793915
1772650733919242000,5.908241943359375,-1.3683499616652726,-2.9502430130288,-2.5571312916874884,0.5437299013137817,-0.26679727435112,-0.0355720706284046
1772650733929213700,5.918213623046875,0.4823661680698394,-3.217146521514654,-2.2549355205461383,0.3669657707214355,0.0598104037344455,-0.311640202999115
1772650733939186700,5.928186767578125,1.753583204716444,-3.0190239960491656,-2.2058007566295563,0.2528429329395294,0.1982636302709579,-0.4834809303283691
1772650733949159000,5.938158935546875,2.293084633937478,-3.053127633441985,-1.1443483871210365,0.208232045173645,0.1056146100163459,-0.5461005568504333
1772650733959131000,5.948130859375,2.4773013836473226,-3.072608871242404,0.0353755570247769,0.2003935575485229,-0.0755053758621215,-0.496209979057312
1772650733969102800,5.958102783203125,2.3612755421102047,-2.88992795279771,0.8287899341247975,0.2139970362186432,-0.2837691605091095,-0.4117070734500885
1772650733979075800,5.968075927734375,2.214852808743715,-2.516044371278584,1.2086708563625812,0.1281665563583374,-0.2547039687633514,-0.4641516208648681
1772650733989047800,5.9780478515625,2.100996127939224,-2.3127098102532324,1.0692384933400898,0.0927775427699089,-0.2621910274028778,-0.5531023144721985
1772650733999020000,5.98802001953125,2.1443641450226307,-2.1308609587185083,0.9202020703438668,0.1017609164118766,-0.3261436522006988,-0.6181891560554504
1772650734008993000,5.997992919921875,1.756253300708532,-1.7000027134373783,0.816697856727615,0.0534205585718154,-0.3369273245334625,-0.7295988202095032
1772650734018965000,6.007965087890625,1.1073702902704476,-1.6556529918402432,0.3677452979598194,-0.0238332189619541,-0.2658949494361877,-0.8915456533432007
1772650734028937200,6.017937255859375,0.5187614235311746,-1.6774847382895648,0.2722087022218853,-0.1124889180064201,-0.1988278925418853,-1.0649006366729736
1772650734038909200,6.0279091796875,0.112056937906146,-1.671761830598116,0.2519360948480665,-0.2017727345228195,-0.1624376624822616,-1.2660092115402222
1772650734048882000,6.0378818359375,-0.4134007683932781,-1.6247211163513362,0.1665115816712379,-0.2915240526199341,-0.0531078316271305,-1.4362614154815674
1772650734058854100,6.047854248046875,-1.290194124317169,-1.39826023902148,-0.0711243312761187,-0.3840137720108032,0.0816180258989334,-1.5506361722946167
1772650734068826000,6.057826171875,-2.2933593592256307,-1.030611460238695,-0.1954570325832814,-0.4590809941291809,0.2132428437471389,-1.525604009628296
1772650734078798000,6.067798095703125,-3.23936595210731,-0.5887441835567355,-0.3027781010739505,-0.4921819567680359,0.3512393236160278,-1.2974371910095217
1772650734088771000,6.07777099609375,-4.2096231891483065,-0.2471153236281126,-0.457077047708258,-0.4775260984897613,0.431447297334671,-0.8664212822914124
1772650734098743300,6.087743408203125,-4.952342421147227,0.0001306406423449,-0.5611410140991211,-0.4617239534854889,0.4651565253734588,-0.3479954302310943
1772650734108715000,6.097715087890625,-5.445279083070159,0.3274122646581381,-0.3406531467642635,-0.4489783942699432,0.3808028399944305,0.2034055888652801
1772650734118687200,6.107687255859375,-5.248977343291044,0.6417120228301734,-0.0529046378441154,-0.4199105203151703,0.1866490989923477,0.7108858227729797
1772650734128660200,6.11766015625,-4.4680163511812685,0.8740840969651937,0.2087532981384545,-0.362577348947525,-0.0468307398259639,1.1503714323043823
1772650734138632000,6.1276318359375,-3.462016185107827,0.9590335399761796,0.5814750693365931,-0.3030048310756683,-0.3063821494579315,1.5418486595153809
1772650734148604200,6.137604248046875,-2.491252752110362,1.0109208174712956,0.8843617453515529,-0.2613109648227691,-0.5409204959869385,1.888637661933899
1772650734158577200,6.1475771484375,-1.609546489703655,1.128087061215192,0.9937571358982472,-0.2286829799413681,-0.8271331191062927,2.139481782913208
1772650734168549000,6.157549072265625,-0.9486498008668424,1.1681390856184064,1.0720092732276767,-0.2323221266269683,-1.0414599180221558,2.263658046722412
1772650734178521000,6.16752099609375,-0.5155220032185316,1.0406278273403644,1.210698928124085,-0.2447273880243301,-1.209929347038269,2.284618616104126
1772650734188493000,6.1774931640625,-0.0115606739342212,0.9467400217227636,1.2008332215394824,-0.2770706713199615,-1.1174094676971436,2.254170656204224
1772650734198466000,6.187466064453125,0.2065589298993349,0.937191418263316,1.1172617888834326,-0.3329451084136963,-0.6858025789260864,2.013279676437378
1772650734208438300,6.197438232421875,0.5564508104562759,0.9322533773392438,0.9216846370518208,-0.2599452435970306,-0.564105749130249,1.5277804136276243
1772650734218410000,6.207409912109375,2.070366011875868,1.1404407852232457,0.7877955143049359,-0.0659975931048393,-0.2467893362045288,0.9997888207435608
1772650734228383000,6.217383056640625,3.062050067827105,1.3090212821230292,0.9886952493987976,0.1657466441392898,0.172631025314331,0.5669381618499756
1772650734238355200,6.227355224609375,3.5088416491687298,1.2243921571075915,0.7401489431194961,0.3297523558139801,0.5420226454734802,0.2394151389598846
1772650734248327000,6.237326904296875,3.804327985799312,1.2470862194746732,0.1383539932012558,0.269988477230072,0.8893482089042664,0.0480412580072879
1772650734258299100,6.247299072265625,3.720942431104183,0.9119891724675894,-0.3141673639640212,0.1137775853276252,0.9857748746871948,-0.0719408020377159
1772650734268272000,6.257272216796875,3.6953386187702417,0.2867486111626028,-0.3258386586658656,0.0461810454726219,0.8840431571006775,-0.1280155330896377
1772650734278244000,6.267244140625,3.7652187952041625,0.0136705056950449,0.2366536239117384,0.1016323193907737,0.8235617280006409,-0.148674726486206
1772650734288216000,6.277216064453125,3.788949799403548,0.3211386642813682,0.922218086341396,0.2611036896705627,0.8438631892204285,-0.1963008046150207
1772650734298188300,6.287188232421875,3.782304954561591,0.8088806801706552,1.1600525175355374,0.5343626737594604,0.9049885869026184,-0.3122705519199371
1772650734308161000,6.2971611328125,3.8037107306838034,1.0278250443905592,1.244609600228071,0.8141440153121948,1.0216965675354004,-0.4584735631942749
1772650734318133000,6.307133056640625,3.6699838127613065,0.8793257970109581,1.1450915336385368,0.9675191640853882,1.1070277690887451,-0.5427669286727905
1772650734328105200,6.317105224609375,3.4670313829213377,0.4782432429209351,0.6949084101624786,0.9266242384910583,1.136472463607788,-0.4350901544094085
1772650734338078000,6.327077880859375,3.0862539502352475,-0.0728337655425071,0.2136038799747824,0.6949728727340698,1.0995506048202517,-0.1043484583497047
1772650734348050200,6.33705029296875,2.4492227056324483,-0.55874652017802,-0.2882682950105518,0.4124839603900909,0.940234124660492,0.3796895742416382
1772650734358022100,6.347022216796875,1.7618448371052742,-0.808817551806569,-0.6832442758537829,0.3083053529262543,0.5551713705062866,0.9244980216026306
1772650734367994000,6.356994140625,1.3940876295119524,-0.7071729945823549,-0.5009006996046751,0.3075641989707947,0.1951905637979507,1.263977289199829
1772650734377967000,6.366967041015625,1.6018968517333267,-0.3479480530127882,0.0577956247560679,0.3715413212776184,0.0588361918926239,1.398766279220581
1772650734387939300,6.376939208984375,1.7739280736088752,-0.0834630038455128,0.6418536232579499,0.5375606417655945,0.0584278963506221,1.471618890762329
1772650734397911000,6.3869111328125,0.9663386022925377,0.0360322673678398,1.3336654556445775,0.7321090698242188,-0.0152146331965923,1.6178112030029297
1772650734407883300,6.39688330078125,-0.7990887694746256,0.377411755645275,1.3099419040992857,0.8938977718353271,-0.2297728061676025,1.91395902633667
1772650734417856300,6.406856201171875,-2.9077853887885805,0.9525549916118384,0.7849604370094835,1.0765323638916016,-0.3252865374088287,2.329599142074585
1772650734427828000,6.416827880859375,-4.684881571039557,0.8271692010551691,0.4969411848565563,1.1155779361724854,-0.3642709851264953,2.8333520889282227
1772650734437800200,6.42680029296875,-5.926691895937919,0.0046434418916702,-0.3776303668320179,0.8953705430030823,-0.4823344945907593,3.2180421352386475
1772650734447773200,6.436773193359375,-6.554713904654979,-1.695434090347588,-1.5004522009953856,0.5107614398002625,-0.581771194934845,3.30509614944458
1772650734457745200,6.4467451171875,-6.442245463338494,-3.6766602217853066,-2.051133049748093,0.1758274137973785,-0.5112029910087585,3.010767698287964
1772650734467717000,6.456717041015625,-6.107602589839696,-5.45963669424653,-1.5807339444562791,0.0174624193459749,-0.2536272406578064,2.399138927459717
1772650734477689000,6.466689208984375,-6.354827876648306,-6.958003613400459,-0.3551323384936898,-0.0126629918813705,0.2111449688673019,1.6256643533706665
1772650734487662000,6.476662109375,-7.4815540247738355,-8.176740521225332,0.6774865160446614,0.0995062068104744,0.7192487716674805,0.9674652814865112
1772650734497634000,6.486634033203125,-9.662399349975583,-8.656895442986487,1.156649065767601,0.2399232387542724,1.0916639566421509,0.6280925273895264
1772650734507606000,6.49660595703125,-12.694880208969115,-8.136426631015539,0.5686822597915306,0.3172824382781982,1.26640784740448,0.6616925001144409
1772650734517579000,6.5065791015625,-15.657700087237355,-7.705503649935125,-0.4840741410315036,0.2903112769126892,1.177721381187439,0.9065786600112916
1772650734527551200,6.51655126953125,-17.19512826619148,-7.302749363240599,-1.4025354321226478,0.2506265640258789,1.088395595550537,1.304020643234253
1772650734537523000,6.52652294921875,-17.567755125647782,-7.4539078929573295,-1.4649819514244793,0.1603107750415802,0.956519901752472,1.629682183265686
1772650734547495200,6.5364951171875,-16.582023256099223,-7.722927662944794,-1.2460663749076426,0.0513572692871093,0.7968324422836304,1.764867067337036
1772650734557468200,6.54646826171875,-14.353054243719576,-7.0411500986427065,-1.320751321274787,-0.0247510802000761,0.6746324896812439,1.744714617729187
1772650734567440100,6.556440185546875,-11.87039104077816,-6.530751429787278,-0.9212016758404672,-0.0601045489311218,0.547021210193634,1.642509937286377
1772650734577412000,6.566412109375,-9.290076441901922,-5.987856266474723,-0.4287647436005994,-0.0029709583614021,0.3743927478790283,1.456772804260254
1772650734587384300,6.57638427734375,-7.084139930063485,-6.059243340340256,0.6238892197612673,0.0512589924037456,0.089748740196228,1.1552367210388184
1772650734597357000,6.586357177734375,-4.199977993446589,-4.953593882513046,0.2891433242794126,0.1072101444005966,-0.1924792230129242,0.7804865837097168
1772650734607329000,6.5963291015625,-2.202522904002666,-3.858433669996261,-0.2054144908382557,0.1618878096342086,-0.3417463898658752,0.4061035513877868
1772650734617301200,6.60630126953125,-1.114525422722101,-2.375769346886873,-1.0022713548086584,0.2345452308654785,-0.3099421262741089,0.0729325115680694
1772650734627274000,6.61627392578125,-0.4634726670294999,-0.4258902476102113,-1.7986629941537975,0.3760072886943817,-0.1913245916366577,-0.1887623071670532
1772650734637246200,6.62624609375,0.1077484270572662,1.551953547912836,-2.129760596261173,0.5659998655319214,-0.1033137738704681,-0.2921954989433288
1772650734647218200,6.63621826171875,0.4809212299585342,3.3803771818190813,-2.133066505938768,0.7866787314414978,-0.0961285680532455,-0.1987196058034896
1772650734657190100,6.646190185546875,0.8286474569141864,4.884204119944572,-1.9730426788516344,0.9877031445503236,-0.211137980222702,0.0198098141700029
1772650734667163100,6.6561630859375,1.7190145801603791,5.918091825374961,-1.775016307236999,1.1107174158096311,-0.3993633687496185,0.3080489933490753
1772650734677135000,6.666135009765625,2.9641911666214464,6.407544152313471,-1.8670882956042885,1.148332118988037,-0.5590891242027283,0.6305383443832397
1772650734687107000,6.676107177734375,3.978885511282086,6.643439066812396,-2.0927821340844037,1.0914273262023926,-0.657806932926178,0.923834502696991
1772650734697079300,6.686079345703125,5.011443429413437,6.812617237344384,-2.248674122063816,0.9385000467300416,-0.6634818911552429,1.1985597610473633
1772650734707052300,6.69605224609375,5.802644660508633,6.936613619369268,-2.555564480762184,0.7809270620346069,-0.5328611731529236,1.4585280418395996
1772650734717024000,6.70602392578125,6.05539426369667,6.593292349374294,-2.030775175243616,0.5810775756835938,-0.324655532836914,1.6448131799697876
1772650734726996200,6.715996337890625,6.787236712372303,6.8061687918573615,-1.7736828666761515,0.367853045463562,-0.0700471699237823,1.7338076829910278
1772650734736969200,6.72596923828125,7.662051461699605,7.097534833687544,-1.5184011146619916,0.142761617898941,0.2244582325220108,1.7493500709533691
1772650734746941200,6.735941162109375,8.24910842282176,7.220458033522963,-1.1788120899979024,-0.0092825992032885,0.4223076701164245,1.70962655544281
1772650734756913200,6.7459130859375,8.764929116725922,6.867534237924218,-0.1750531269799917,-0.1285959482192993,0.4358668923377991,1.6524285078048706
1772650734766885000,6.755885009765625,9.308087314888834,7.128745964509248,0.6643702101662755,-0.1806049346923828,0.3832808136940002,1.5517289638519287
1772650734776858000,6.765858154296875,9.695199795815348,7.4705147443652145,1.3914882606685162,-0.1914429366588592,0.398237943649292,1.3883384466171265
1772650734786830000,6.775830078125,9.958528660684824,7.666911761212348,1.901673286773264,-0.1794352084398269,0.4683916866779327,1.1638685464859009
1772650734796802000,6.785802001953125,10.096914218068122,7.793400544574856,2.2631752333641053,-0.1345905065536499,0.5327605605125427,0.93410724401474
1772650734806774000,6.79577392578125,10.017532638317348,7.939776516190171,2.5674060174644,-0.0853316262364387,0.5522212386131287,0.718504786491394
1772650734816747300,6.805747314453125,9.836998376512527,8.001604903593659,2.661509073267877,-0.0598363876342773,0.5292307138442993,0.5379461646080017
1772650734826719000,6.815718994140625,9.555866728448867,7.974135297387838,2.508623281367123,-0.0715528801083564,0.4827436506748199,0.3867080807685852
1772650734836691200,6.825691162109375,9.25430896295011,8.005946732190251,2.179279975581169,-0.1242387294769287,0.4122929275035858,0.2600694596767425
1772650734846664200,6.835664306640625,9.0265745585531,7.964948366847634,1.8444886335223911,-0.1884250342845916,0.3181194365024566,0.151985302567482
1772650734856636200,6.84563623046875,8.841618973174691,7.883481212994456,1.644177511971444,-0.2505669593811035,0.2502304017543793,0.0322985872626304
1772650734866608000,6.855608154296875,8.594215407189726,7.830835664477944,1.443204273249954,-0.3266987800598144,0.2272688448429107,-0.0880072638392448
1772650734876580000,6.865580078125,8.280877772048115,7.717982023236155,1.2579461977936326,-0.4014049470424652,0.2523579597473144,-0.2155055850744247
1772650734886553000,6.875552978515625,7.9683906162559985,7.60021664455533,1.0769222527757287,-0.477879911661148,0.3260096311569214,-0.3531754910945892
1772650734896525000,6.885525146484375,7.658555436277389,7.428926011914014,0.9414370930090546,-0.5535810589790344,0.4055159091949463,-0.4827174842357635
1772650734906497000,6.8954970703125,7.300372112715244,7.162994855591655,0.9931249024093152,-0.608843207359314,0.417158305644989,-0.5901421308517456
1772650734916469000,6.905468994140625,6.972047336322069,6.890024886673689,1.1636825446009635,-0.6387606263160706,0.3159629702568054,-0.6847243309020996
1772650734926442200,6.915442138671875,6.658584028974175,6.429841324317455,1.3509065133027731,-0.6387757062911987,0.1310644000768661,-0.7772329449653625
1772650734936414000,6.9254140625,6.177744047558307,5.661417157697677,1.5731285840190947,-0.6388803124427795,-0.1063393726944923,-0.8982893228530884
1772650734946386200,6.93538623046875,5.679993847873806,4.546262789422274,1.7537071233570574,-0.6434986591339111,-0.335324615240097,-1.0500333309173584
1772650734956359200,6.945359130859375,4.974229843306541,2.7783991304188964,2.219109297144413,-0.6292853951454163,-0.6286007165908813,-1.1970422267913818
1772650734966331000,6.955330810546875,3.925834304574132,0.5233738857626915,3.042510962359607,-0.5600153803825378,-0.9780126214027404,-1.333269476890564
1772650734976303000,6.96530322265625,2.677434079891443,-1.3397323544681072,3.6927746135011312,-0.456851989030838,-1.4071990251541138,-1.4654037952423096
1772650734986275000,6.975275146484375,0.9950941566556692,-3.167233612832427,4.077147732591629,-0.4355687201023102,-1.8591402769088743,-1.860397219657898
1772650734996248000,6.985248046875,0.0716927788138389,-4.675298334658145,2.835158251734078,-0.5208508968353271,-1.953548550605774,-2.5516107082366943
1772650735006220300,6.99522021484375,-1.1420260085880756,-4.842933367401361,0.6213468418020754,-0.702761709690094,-1.3402892351150513,-3.3002521991729736
1772650735016192500,7.005192626953125,-4.044666435703635,-4.211122487795353,-1.9270457745693623,-0.9255026578903198,-0.3455365002155304,-3.885664224624634
1772650735026164200,7.015164306640625,-7.406989489915967,-3.017715836060047,-4.110691690275073,-1.1362978219985962,0.6945401430130005,-4.140251636505127
1772650735036137200,7.02513720703125,-10.53744966162443,-1.476950621637702,-4.839287412114441,-1.2363696098327637,1.7183120250701904,-3.881978511810303
1772650735046109400,7.035109375,-13.3244991314888,-1.7639713277399538,-2.7988249555930493,-1.1709041595458984,2.1964268684387207,-3.1765265464782715
1772650735056081400,7.045081298828125,-14.13491535066366,-3.5137563092172144,0.5393747341014444,-1.0054675340652466,1.8141838312149048,-2.4307641983032227
1772650735066054400,7.055054443359375,-12.23320845388174,-3.069273589339852,2.26540942215696,-0.8034433722496033,1.010218858718872,-1.977702021598816
1772650735076026400,7.0650263671875,-9.034522302687169,-0.9994462143853308,1.923359195011109,-0.5649386644363403,0.4486743509769439,-1.860323429107666
1772650735085998300,7.074998291015625,-6.808499865153432,-0.2491416418239474,1.451037889485061,-0.3911848068237304,0.2415806055068969,-2.0291550159454346
1772650735095970300,7.08497021484375,-5.645673060598969,-0.3975374288290739,0.5955142256809398,-0.2797057032585144,0.4444748759269714,-2.326743125915528
1772650735105943600,7.094943603515625,-5.56379849498868,-0.5164519775450229,-0.357709495505318,-0.018178192898631,0.8679255843162537,-2.41919207572937
1772650735115915300,7.104915283203125,-6.466213198903203,-0.1742296087026596,-0.0687511724039912,0.1760637164115905,1.113923192024231,-2.3198893070220947
1772650735125887500,7.114887451171875,-7.048159100621938,-0.4017199752107262,-0.0812258193779736,0.2231224179267883,1.1187831163406372,-2.022479295730591
1772650735135860500,7.124860595703125,-7.243236267042159,-0.3539823647409677,-1.4797829224541783,0.1833531707525253,1.0749956369400024,-1.5710028409957886
1772650735145832200,7.134832275390625,-7.4268638186872,-0.3929620837375521,-2.321969075377285,0.1202060356736183,0.98941969871521,-1.0872986316680908
1772650735155804400,7.144804443359375,-6.938259633010626,-0.4985170924037694,-2.467326809860766,0.0293956995010375,1.0236717462539673,-0.7075373530387878
1772650735165776100,7.154776123046875,-5.815186162173748,-0.6071382106423378,-2.206990550936013,0.0769683197140693,0.9536336064338684,-0.4253846406936645
1772650735175749400,7.164749267578125,-4.281790599736572,-0.4010176721602678,-1.7545086489982902,0.1897854208946228,0.7309044003486633,-0.1461751013994217
1772650735185721300,7.174721435546875,-2.7473773846894503,0.4818289924532175,-1.4102948140777647,0.2847983241081238,0.3619133830070495,0.1331232339143753
1772650735195693300,7.184693359375,-1.787604132261872,0.7156444703295827,-1.3230983227923512,0.3040907979011535,0.0325040370225906,0.416830837726593
1772650735205665300,7.194665283203125,-1.2030804890096187,0.5265823264151811,-1.3149398585170506,0.3395198881626129,-0.3080558776855469,0.6497969031333923
1772650735215638300,7.20463818359375,-0.2204857484430074,0.3706260410279035,-1.2342130016371606,0.350943773984909,-0.511195719242096,0.7921229004859924
1772650735225610200,7.2146103515625,0.8680547536730766,0.484504349142313,-1.3451236921176313,0.359088271856308,-0.3866327702999115,0.7480273842811584
1772650735235582500,7.22458251953125,1.7874726148366926,0.6673819592028856,-1.4781056368917227,0.3267622888088226,-0.0314315073192119,0.5413666367530823
1772650735245555500,7.234555419921875,2.385645428735017,0.3856058757558465,-1.5293343043476342,0.2075710296630859,0.4349855184555053,0.2846086919307709
1772650735255527200,7.244527099609375,2.6510341487437485,-0.1733379205599427,-1.7257202152788638,0.0570845752954483,0.6973295211791992,0.0828412175178527
1772650735265499400,7.25449951171875,2.957736875915528,-0.2514458271130919,-2.017557381752133,-0.0965974628925323,0.7643626928329468,-0.0734138861298561
1772650735275471400,7.264471435546875,3.350749520796537,-0.0962403600931167,-2.106031053366512,-0.2533122301101684,0.6245272755622864,-0.222360223531723
1772650735285444400,7.2744443359375,3.86261358602941,-0.1536500542715191,-1.987269210994244,-0.421580970287323,0.2796260118484497,-0.3517478704452514
1772650735295416300,7.284416259765625,4.192399667146802,-0.1930436147660016,-1.59992803587839,-0.5614206194877625,-0.1640843003988266,-0.4472554922103882
1772650735305388500,7.294388427734375,4.175876986891031,-0.1420756440728902,-1.057855440995097,-0.6391206979751587,-0.5266373157501221,-0.516402542591095
1772650735315360300,7.3043603515625,3.4912978091716766,0.0644786096513271,-0.4099972435601055,-0.6846080422401428,-0.7554708123207092,-0.5809091329574585
1772650735325333200,7.314333251953125,2.66887960203588,0.1323719961822032,0.028520430433005,-0.6981356143951416,-0.9167327880859376,-0.6579287648200989
1772650735335305500,7.324305419921875,2.077531665721536,0.2060460119411349,0.3331283772826194,-0.6964903473854065,-1.0267189741134644,-0.7943012714385986
1772650735345277200,7.334277099609375,1.850280076405406,0.2455418637663126,0.4526159035809338,-0.6971361041069031,-1.0011588335037231,-0.9901435375213624
1772650735355250400,7.34425048828125,1.4274936400294302,0.1933513655409216,0.56102418278642,-0.7181548476219177,-0.8347373604774475,-1.2242146730422974
1772650735365222400,7.354222412109375,0.7060200251549482,0.037003450487554,0.6471838053047657,-0.7675873637199402,-0.5259480476379395,-1.399250864982605
1772650735375194400,7.3641943359375,-0.4134826014578342,-0.0612894582211971,0.5707233006324619,-0.8864191770553589,-0.2157971262931823,-1.4217764139175415
1772650735385166300,7.374166259765625,-1.4600281284093857,-0.0984556980550289,0.1787277969047427,-0.9976337552070618,-0.2194568067789077,-1.2788864374160769
1772650735395139300,7.384139404296875,-2.277726321285963,-0.5104387086048722,0.2832664681352674,-1.2090182304382324,-0.5574622750282288,-1.0879287719726562
1772650735405111300,7.394111328125,-2.376840190988779,-0.1408537010625004,-0.1253240504320711,-1.4075164794921875,-0.8606257438659668,-0.7983518242835999
1772650735415083500,7.40408349609375,-2.5283874277621505,0.4521352804571389,-0.1956163147982209,-1.504964828491211,-1.0613138675689695,-0.3652661442756653
1772650735425056500,7.414056396484375,-2.7148621855318544,0.6440019603982567,-0.157465740102157,-1.547033429145813,-1.1840378046035769,0.1615571081638336
1772650735435028200,7.4240283203125,-3.0988088959038254,0.3958198112562298,-0.4239603755261749,-1.5553126335144043,-1.40015709400177,0.6554022431373596
1772650735445000400,7.43400048828125,-2.846975823038816,0.016162030249834,-0.9873800751470028,-1.557275414466858,-1.7092622518539429,0.9493837952613832
1772650735454972200,7.44397216796875,-1.721575955080986,-0.1340481127008795,-2.002874191883206,-1.5603902339935305,-1.9477027654647827,0.938481330871582
1772650735464945400,7.4539453125,-0.4919032272219658,0.3984960447281598,-2.5613643992125987,-1.559800624847412,-2.245848655700684,0.7019688487052917
1772650735474917400,7.46391748046875,0.8494184422641992,1.2006509237751364,-2.819587465375662,-1.5245816707611084,-2.2862346172332764,0.3765655159950256
1772650735484889300,7.473889404296875,1.2019880175977944,1.5245131678014994,-2.536682670159638,-1.313212752342224,-2.0660617351531982,0.144986942410469
1772650735494861300,7.483861328125,0.4656687157690525,0.15211919144243,-0.4785653875473886,-1.0192259550094604,-1.7396771907806396,-0.0033580544404685
1772650735504834300,7.493834228515625,0.0461889197230339,-0.7932514416232704,1.2088840607218443,-0.7316461205482483,-1.3246564865112305,-0.1005811393260955
1772650735514806300,7.50380615234375,-0.1112421143919229,-1.1434876055732368,1.944455612923205,-0.5100367665290833,-1.010221004486084,-0.1875059157609939
1772650735524778200,7.5137783203125,0.0991729064136743,-1.1425500324621796,1.860347004650533,-0.3273513615131378,-0.908517599105835,-0.2215290814638137
1772650735534751500,7.52375146484375,0.2383469838261604,-0.9669006200894712,1.7330428132519125,-0.2327439039945602,-0.8265396356582642,-0.1850680112838745
1772650735544723200,7.53372314453125,-0.195870362624526,-1.1356523819029332,1.6882276661001143,-0.1854109615087509,-0.7344425916671753,-0.0483455024659633
1772650735554695400,7.5436953125,-0.8134229997754097,-1.1028671336323022,1.5205131383799015,-0.1879966259002685,-0.6807553768157959,0.1171899288892746
1772650735564667400,7.55366748046875,-1.1395271775096654,-0.6089484749346972,1.0387282773293554,-0.2186445891857147,-0.641866147518158,0.2690840065479278
1772650735574640400,7.563640380859375,-1.2697674223601818,-0.3780632052913308,0.4658212029170244,-0.2574215531349182,-0.662998616695404,0.3912365436553955
1772650735584612400,7.5736123046875,-1.0660966151177882,-0.3693000531211495,0.2052930016167461,-0.3138322532176971,-0.6562053561210632,0.4610508978366852
1772650735594584600,7.58358447265625,-0.6183107620418071,-0.3495020044565201,0.2471692457724362,-0.3685668706893921,-0.6041554808616638,0.4525482058525085
1772650735604556300,7.593556396484375,-0.0145130939990282,-0.242704302252829,0.4567559259951114,-0.4398367702960968,-0.596461832523346,0.3152517974376678
1772650735614529300,7.603529296875,0.9061340166985988,0.2428624154239893,0.5457482146561146,-0.3947808742523193,-0.3890979290008545,0.2087074816226959
1772650735624501500,7.61350146484375,1.016450832939148,-0.0897898687794804,1.2246929666850714,-0.2888959944248199,-0.1482094079256057,0.0802650451660156
1772650735634473200,7.62347314453125,1.2885533713728188,-0.3646463820964097,1.846274347895384,-0.1880971938371658,-0.0778436288237571,-0.1060054972767829
1772650735644446500,7.633446533203125,1.8182494458943603,0.2679331437945366,1.763908637767285,-0.0720393061637878,0.0015230989083647,-0.2760640382766723
1772650735654418400,7.64341845703125,1.964417912238836,0.530194963954389,1.781530365306139,0.1005335301160812,0.1388553977012634,-0.3987979590892792
1772650735664390400,7.653390380859375,1.954182933950424,0.4879620883807539,1.9287690912306308,0.2969991862773895,0.4005700945854187,-0.4845999479293823
1772650735674362400,7.6633623046875,1.929635937193036,0.4342193922773003,2.0988735828272995,0.4727454483509063,0.7112312912940979,-0.5638742446899414
1772650735684335400,7.67333544921875,2.0668986280262467,0.2603919346347451,2.124938582932204,0.5729593634605408,1.04437518119812,-0.6232072710990906
1772650735694307300,7.683307373046875,2.145218716025352,-0.036796529738605,1.777205487844348,0.5596017837524414,1.31136953830719,-0.5455881357192993
1772650735704279300,7.693279296875,2.015105312424898,-0.4632996485501527,1.3655847347356378,0.4493988454341888,1.408698797225952,-0.2985343635082245
1772650735714252500,7.70325244140625,1.7262679122895002,-0.5582172356069087,0.629678251491487,0.2685534060001373,1.3491300344467163,0.0552034676074981
1772650735724224300,7.713224365234375,1.4912228926181792,-0.2683347103327512,0.0492990693665109,0.1265193670988083,1.1883388757705688,0.3772283792495727
1772650735734196500,7.723196533203125,1.6230974606722592,-0.1053665003567934,-0.0853911223638802,0.1002984270453453,0.996513307094574,0.5422228574752808
1772650735744168200,7.733168212890625,2.1962480615168807,-0.0290030993834137,0.300460051656235,0.1806910187005996,0.8794612884521484,0.5494911074638367
1772650735754141400,7.743141357421875,2.792650358611345,0.051837739264965,0.7748193475496024,0.2685969173908233,0.7904568314552307,0.4602749645709991
1772650735764113400,7.753113525390625,3.065332742759585,-0.1038379756152629,0.7717092527050524,0.3265057206153869,0.7714873552322388,0.4081476032733917
1772650735774085400,7.76308544921875,2.5642361552566286,-0.3981248733282089,0.3693640582680702,0.3755593001842499,0.8154412508010864,0.4724048972129822
1772650735784057300,7.773057373046875,1.359697284132242,-0.439606053751707,-0.4067727285556495,0.3717150092124939,0.8537901639938354,0.6563094854354858
1772650735794030300,7.7830302734375,-0.1063771387040615,-0.5023635386988521,-1.4010475316524504,0.2934721410274505,0.8862277269363403,0.9213795065879822
1772650735804002300,7.793002197265625,-1.596588808453083,-0.9358309435650706,-2.1501740003451704,0.1971943527460098,0.864561140537262,1.268446922302246
1772650735813974300,7.802974365234375,-3.400430374288559,-1.3131567744925616,-2.4829279913574456,0.1348305791616439,0.7520459890365601,1.6918377876281738
1772650735823947500,7.812947509765625,-5.394989742290973,-1.6081597115203736,-2.090449599483609,0.1518003195524215,0.4957755804061889,2.1127469539642334
1772650735833919200,7.822919189453125,-7.1781234511405225,-2.080130742304027,-0.9513524108890444,0.2062401324510574,0.0676700472831726,2.4593305587768555
1772650735843891500,7.832891357421875,-8.630402572858333,-2.908065082512796,0.4112798672491684,0.2710249125957489,-0.4504486620426178,2.674898624420166
1772650735853863400,7.842863525390625,-10.130552283775806,-3.928936362242698,1.3092604977063833,0.2542808353900909,-0.6316083073616028,2.7569353580474854
1772650735863836400,7.85283642578125,-12.31881051558256,-5.156917483752966,1.0151373391877858,0.0997407734394073,-0.2862203419208526,2.683915138244629
1772650735873808400,7.862808349609375,-14.622754981708528,-6.380488387605547,-0.1991196102114394,-0.1065831035375595,0.3482141196727752,2.52274489402771
1772650735883780400,7.8727802734375,-16.272217302215097,-7.143384730714559,-0.9894912220820784,-0.2349258512258529,0.934542179107666,2.414539337158203
1772650735893752300,7.88275244140625,-17.37702095686793,-7.098846500808,-0.9726022657971828,-0.2007231414318084,1.2149900197982788,2.483990430831909
1772650735903725300,7.892725341796875,-18.22629268413782,-6.403770478993654,-0.0954324047110974,-0.1076881065964698,1.0803388357162476,2.797318696975708
1772650735913697500,7.902697509765625,-18.62729223611951,-5.844700425949692,0.7148682983253151,-0.0653742030262947,0.6795719265937805,3.2131834030151367
1772650735923669200,7.912669189453125,-18.1900382984519,-5.414566549420356,0.7111305731017142,-0.1698715984821319,0.2489568144083023,3.5298030376434326
