time,seconds_elapsed,acc_z,acc_y,acc_x,gyro_z,gyro_y,gyro_x
1772650713989657000,0.068656982421875,0.1318599550068378,0.824090232001245,-0.1161638617683201,0.2450283318758011,-0.0713096931576728,0.6217719316482544
1772650713999629000,0.078629150390625,1.0151870966136456,1.2201321615755558,-0.0223877728968858,0.3245948255062103,-0.0238247290253639,0.5494735240936279
1772650714009601000,0.08860107421875,1.0911211662590503,0.4323451228380203,-0.1379317492011934,0.387158453464508,0.0883253589272499,0.4744104743003845
1772650714019574300,0.09857421875,1.095006483259797,-0.1483408419474959,-0.3435103628262877,0.3636384904384613,0.2037803083658218,0.3748724460601806
1772650714029546000,0.1085458984375,1.2234276959896089,-0.1942430536836385,-0.5403134762562811,0.308785080909729,0.2093552649021148,0.2477004081010818
1772650714039518200,0.118518310546875,1.6051999849319456,0.051276305989921,-0.6573483487054705,0.2283099591732025,0.2981612980365753,0.0762860476970672
1772650714049490000,0.128489990234375,1.6591268054306507,0.2373886601880192,-0.4269844725877046,0.2095620483160019,0.3615102171897888,-0.0609586127102375
1772650714059463000,0.138462890625,1.5432242980122566,0.2673758021727204,-0.1547067967828363,0.2228610664606094,0.4459108710289001,-0.1762260794639587
1772650714069435100,0.14843505859375,1.4148983623504638,0.2789434903696179,0.0242687643378973,0.2299655824899673,0.5036623477935791,-0.282492071390152
1772650714079407000,0.158406982421875,1.3406716811448336,0.2508081137314438,0.0541305263772606,0.2466225922107696,0.493520975112915,-0.3913916349411011
1772650714089379000,0.168379150390625,1.2355600323319431,0.12535627220124,0.4957394443839788,0.2963455319404602,0.422347217798233,-0.4874418079853058
1772650714099352000,0.17835205078125,1.0538163947373629,0.074630001309514,0.86764281187132,0.37220299243927,0.2530234456062317,-0.5573604702949524
1772650714109324000,0.188323974609375,0.8154501216888427,0.134815589942038,0.8962076659679412,0.4482994675636291,-0.0187817681580781,-0.6108061075210571
1772650714119296000,0.1982958984375,0.4114730152010917,0.1500610898688435,0.8414196985952556,0.5275881290435791,-0.2746564149856567,-0.6420018672943115
1772650714129268200,0.208268310546875,0.1758873127818107,0.1581064491584897,0.668026029260084,0.6004672646522522,-0.4050488770008087,-0.6828635931015015
1772650714139240000,0.218239990234375,0.2595230428457259,0.4146916849866509,0.1495136120539158,0.56521075963974,-0.3667744398117065,-0.7467246055603027
1772650714149213200,0.228213134765625,0.0598369213253259,0.8699360373750329,-0.8244707557514309,0.4129321277141571,-0.2116971611976623,-0.8160721659660339
1772650714159185200,0.23818505859375,0.0832522837042808,1.0392676449030638,-1.313898532770574,0.2430554777383804,-0.0395363122224807,-0.8779610991477966
1772650714169157000,0.2481572265625,0.4202963731259107,0.8958318183928727,-1.1596992471184582,0.1483755707740783,0.2382833957672119,-0.902786672115326
1772650714179129000,0.258129150390625,0.1452402455836534,0.7304334586605429,-0.6816931739542633,0.1906620413064956,0.4572149217128753,-0.89604651927948
1772650714189102000,0.26810205078125,-0.093617610374093,0.9184960701435804,0.1543434433631599,0.4157130122184753,0.5687313079833984,-0.8953428268432617
1772650714199074000,0.278073974609375,-0.1064285766303539,1.2562497691392898,1.140496387868002,0.7644675374031067,0.6501705050468445,-0.8982387781143188
1772650714209046000,0.2880458984375,-0.0957201356112956,1.3197861295044422,1.6386048264056443,1.113734006881714,0.8671757578849792,-0.8735405206680298
1772650714219018000,0.29801806640625,-0.1854693801194429,0.7314382517889142,1.3114888412803412,1.3746517896652222,1.3495913743972778,-0.7239073514938354
1772650714228991000,0.307990966796875,-0.4855757777661085,-0.0227688811689615,1.317810299386829,1.5224237442016602,1.547338604927063,-0.6003007292747498
1772650714238963200,0.317963134765625,0.1228290918111801,0.8097089476883411,0.313309870351851,1.5943384170532229,1.454184889793396,-0.525564968585968
1772650714248935000,0.327934814453125,0.4200900368988514,1.041652494212985,0.1063220475159585,1.717656493186951,1.2480788230895996,-0.3664565980434418
1772650714258907100,0.3379072265625,0.237336930000782,0.4515729703992605,0.0653859337545931,1.78248393535614,0.9830644130706788,-0.1626613736152649
1772650714268880100,0.347880126953125,0.2793295670777559,0.2773702497035265,-0.5533366239584983,1.7229633331298828,0.7220293283462524,0.0766146406531333
1772650714278852000,0.35785205078125,0.0577601150512695,0.1368278065472841,-1.2872148162454369,1.4713332653045654,0.5435295701026917,0.3055056035518646
1772650714288824000,0.367823974609375,0.6803957545548677,0.5223232076659798,-1.6935674196928738,1.1014363765716553,0.2798056006431579,0.3633375763893127
1772650714298796300,0.37779638671875,1.4819973836332558,-0.0013090367719531,-0.8366064530946313,0.881220817565918,0.2286079227924347,0.4572805762290954
1772650714308768000,0.38776806640625,1.5027666154175996,0.282330210198462,0.7311888070724905,0.8558731079101562,0.0926210582256317,0.4842765033245086
1772650714318741000,0.397740966796875,1.8247265329539772,1.9962658796593544,1.4313421321511268,0.8930087685585022,-0.0346628613770008,0.5304019451141357
1772650714328713200,0.407713134765625,1.2350175960183143,2.023478880755603,1.3445803790211677,0.6830748319625854,-0.2181741744279861,0.4724024534225464
1772650714338685000,0.417684814453125,0.7690221325129271,0.68611705481112,0.4576341701343655,0.307388037443161,-0.3845146894454956,0.3175185918807983
1772650714348657200,0.4276572265625,0.6771984198182821,-0.7822776276662945,0.2593617148041725,-0.0994807630777359,-0.5039666295051575,0.1683005839586258
1772650714358630100,0.437630126953125,1.0184569120645524,-0.7693439118131995,0.4511864552997052,-0.5744616985321045,-0.5123597979545593,-0.0148886777460575
1772650714368602000,0.44760205078125,1.6601386128216982,0.237661339649558,-0.2350608017623424,-0.6700181365013123,-0.3756823241710663,-0.1424780339002609
1772650714378574000,0.457573974609375,1.3801812692344189,-0.3380436218529939,1.7498001790463924,-0.570137619972229,-0.3669231832027435,-0.3052072823047638
1772650714388546000,0.467546142578125,1.8108622582525011,0.0598027267947793,1.7237020073242484,-0.3941902220249176,-0.7901431918144226,-0.5240669846534729
1772650714398519000,0.47751904296875,1.7256898201406,1.0830082946911457,1.9308926592558624,-0.2053875625133514,-1.088518738746643,-0.6455627679824829
1772650714408491000,0.487490966796875,0.4903717798709869,1.0473524594202637,1.8650588356032969,-0.0646190494298935,-1.3174711465835571,-0.5952096581459045
1772650714418463000,0.497462890625,-0.4001040644466876,0.8523658938929438,1.373934045407921,-0.0068292538635432,-1.7265859842300415,-0.4668694734573364
1772650714428435200,0.507435302734375,-0.6911895357698201,0.6982163656666874,0.7794885084044187,-0.0103109367191791,-2.2666375637054443,-0.2836773097515106
1772650714438408200,0.517408203125,-1.1935340775072574,0.6275029532790184,0.2797080450013279,-0.0487408824265003,-2.7201616764068604,-0.0390483997762203
1772650714448380000,0.5273798828125,-1.639317943111062,0.5501937958881259,0.1419646214464679,-0.0734387710690498,-3.0948643684387207,0.191307321190834
1772650714458352000,0.53735205078125,-1.5259586904346942,0.7576406145378947,0.2519034712200984,-0.0627533718943595,-3.2853991985321045,0.3930846452713012
1772650714468324000,0.547323974609375,-1.5789783329606055,1.0497525062993167,0.3429838547341525,-0.1020302176475524,-2.984496831893921,0.5770013928413391
1772650714478296000,0.557296142578125,-1.6211124243348836,1.378666773018241,0.2194225761909037,-0.2086551934480667,-2.0728447437286377,0.5577081441879272
1772650714488269000,0.56726904296875,-1.1875526650100945,1.4843813561603425,-0.0972863620147109,-0.4136235117912292,-1.0228939056396484,0.5617258548736572
1772650714498241300,0.5772412109375,-0.5812772086769342,1.4262360411837696,-0.7529262263018638,-0.725441575050354,0.1498445123434066,0.6220675110816956
1772650714508213000,0.587212890625,-0.058704702425003,0.8694663740366697,-1.687451567161083,-1.0230672359466553,1.0999364852905271,0.7188596129417419
1772650714518185200,0.597185302734375,0.6496534102886915,0.5751303764849901,-2.512975631357729,-0.8928027749061584,1.0743988752365112,0.3007348477840423
1772650714528158200,0.607158203125,2.2718957154363397,0.0925637174069881,-1.7850600007370114,-0.4330987334251404,-0.3514641225337982,-0.8319272994995117
1772650714538130000,0.6171298828125,3.074613781324029,-0.6048778644949198,-0.1269460621433332,-0.0847349017858505,-0.4672700762748718,-1.3329405784606934
1772650714548102100,0.62710205078125,2.094166574180126,1.080545119448006,0.3804421728497371,0.2561903595924377,0.2674118280410766,-1.4819737672805786
1772650714558074000,0.63707421875,1.7312305031329391,1.6142083440348505,0.2957868539471179,0.5862084627151489,0.7325531244277954,-1.7306115627288818
1772650714568047000,0.647047119140625,1.9835072281122208,0.9350348247513176,0.768122407194227,0.8777801394462585,0.6325583457946777,-2.1224496364593506
1772650714578019000,0.65701904296875,1.9374246913731097,0.4763213349476456,0.7094317332945763,1.0253605842590332,0.4695678055286407,-2.348544120788574
1772650714587991000,0.666990966796875,0.7783405804783106,0.2623673263609409,-0.438632167218253,0.9779271483421326,0.4785436987876892,-2.324812173843384
1772650714597963000,0.676962890625,-0.0284159471452236,0.3464484621047973,-1.7376299949117004,0.8133605718612671,0.5348484516143799,-2.151358366012573
1772650714607936300,0.686936279296875,-0.324027955982089,0.3254711405277252,-2.219271794229745,0.6233697533607483,0.4617563784122467,-1.9286547899246216
1772650714617908000,0.696907958984375,-0.2744669294774532,0.288205970364064,-1.731557250869274,0.4901570677757263,0.2163580656051635,-1.6986500024795532
1772650714627880200,0.706880126953125,0.1531120018720626,0.4016434028431773,-0.7752351618088782,0.4384931623935699,-0.1099132746458053,-1.4887839555740356
1772650714637852200,0.71685205078125,0.37467970033288,0.3649170157313346,-0.1753922410075552,0.4290048480033874,-0.3773255348205566,-1.290513038635254
1772650714647824100,0.72682421875,0.2198036113977432,0.2245576740570366,-0.0629541034977883,0.3967049717903137,-0.5295494198799133,-1.0610311031341553
1772650714657797000,0.736797119140625,-0.0100964466005563,0.1194869417764246,-0.420550859343633,0.3220568299293518,-0.570298969745636,-0.8181814551353455
1772650714667769000,0.74676904296875,-0.0665016399115323,0.1027764838635921,-0.717188923292607,0.2505433559417724,-0.5116493701934814,-0.5868510603904724
1772650714677741000,0.756740966796875,0.0442120666921138,0.0466200046166777,-0.6914147228278219,0.2142758965492248,-0.3529076278209686,-0.3767923712730407
1772650714687713000,0.766713134765625,0.4001964189052581,-0.1171042844235897,-0.638591041265428,0.1840699911117553,-0.1669628471136093,-0.2129641026258468
1772650714697686300,0.776686279296875,0.9986556485295296,-0.281890065215528,-0.5684213073004036,0.1461628228425979,-0.0247633587568998,-0.1221662759780883
1772650714707658000,0.786657958984375,1.4653993000537155,-0.5925355386637151,-0.3149383483365178,0.0388764515519142,0.0988869071006774,-0.1159966811537742
1772650714717630200,0.796630126953125,1.8532260667294265,-1.1549395584359765,0.0630190219601616,-0.1102384626865387,0.2069015204906463,-0.1640920341014862
1772650714727602000,0.806601806640625,2.112912191182375,-1.4113972223617135,0.4980744997354224,-0.2882397472858429,0.2826874256134033,-0.2201536297798156
1772650714737575200,0.8165751953125,2.3714508991658687,-1.1946860240213573,0.4739121549140662,-0.4715757668018341,0.3791540563106537,-0.2594472169876098
1772650714747547100,0.826547119140625,2.5028368069201705,-1.526375600672513,0.9177830995686352,-0.5841941833496094,0.471354216337204,-0.255540519952774
1772650714757519000,0.83651904296875,2.452581952932477,-1.9549970268122847,1.627853715288639,-0.636229932308197,0.5415186285972595,-0.2245093733072281
1772650714767491000,0.846490966796875,2.2163334026902914,-2.3869600184649227,1.8100392514318224,-0.6878990530967712,0.6275994777679443,-0.1589077860116958
1772650714777464000,0.856464111328125,1.7389660658210515,-2.785421868662536,1.610454106067866,-0.7171688079833984,0.7273598909378052,-0.0526521876454353
1772650714787436000,0.86643603515625,0.8882949931472539,-3.159715492287278,2.14457954133898,-0.6566668152809143,0.7841821312904358,0.1344498246908188
1772650714797408000,0.876407958984375,0.1123024370998144,-3.1220448100626466,2.7757962544441224,-0.4917838275432586,0.7209477424621582,0.3931000232696533
1772650714807380200,0.886380126953125,-0.3084299893558025,-2.118727745593339,2.5674068942472337,-0.3552696108818054,0.5705348253250122,0.699770450592041
1772650714817353000,0.89635302734375,-0.7623556603610515,-1.2303864290863276,1.965772980109602,-0.2388633638620376,0.45783731341362,1.0612248182296753
1772650714827325200,0.9063251953125,-1.5233488001972435,-1.3284544429980218,1.8117263277359303,-0.073023647069931,0.3236933946609497,1.4394075870513916
1772650714837297200,0.916297119140625,-2.2941572316050527,-1.6045716239005323,1.780984567991644,0.0829345285892486,0.1478491425514221,1.817219853401184
1772650714847269000,0.92626904296875,-3.2901194032669063,-1.7894959373578427,1.3755793283969162,0.1774264723062515,-0.0399537980556488,2.105610609054565
1772650714857241000,0.936240966796875,-4.194501607862114,-2.409291823390871,0.9014964200258254,0.1674041897058487,-0.1979940384626388,2.182755470275879
1772650714867214000,0.946214111328125,-5.359294744053483,-3.5194939760863777,0.4343362966552376,0.0779987499117851,-0.0978083312511444,2.0136971473693848
1772650714877186000,0.95618603515625,-7.20858347133398,-4.53249583761543,0.1151818649936467,-0.0588291436433792,0.2163277566432953,1.6514984369277954
1772650714887158300,0.966158203125,-9.445240115606785,-5.227022701114416,0.1119386452887207,-0.1980825066566467,0.5120406746864319,1.2325382232666016
1772650714897130000,0.9761298828125,-12.196763514059782,-5.505076841428876,0.5094483093280345,-0.3264106214046478,0.6634712219238281,0.9937320351600648
1772650714907103000,0.98610302734375,-15.392949080610274,-5.029783388224244,0.7183837591003626,-0.3707235157489776,0.6211374402046204,1.0300532579421997
1772650714917075200,0.9960751953125,-18.28796325063109,-3.6799002266198393,1.0465049026802182,-0.2674794197082519,0.4916675984859466,1.3422330617904663
1772650714927047000,1.006046875,-20.40547679812908,-2.352017007638514,1.4462304892033335,-0.0579323172569274,0.3765509128570556,1.825666904449463
1772650714937019100,1.01601904296875,-21.166884363985066,-1.3825561816722154,1.156715555132553,0.1215855106711387,0.2814976274967193,2.3058149814605717
1772650714946992000,1.0259921875,-20.43729583171606,-0.8369368540927767,0.5657720714332536,0.2088893204927444,0.1095949783921241,2.691875696182251
1772650714956964000,1.035964111328125,-18.682089994233845,-0.7889470224276185,0.0493209706710651,0.2297858148813247,-0.0917181596159935,2.9747700691223145
1772650714966936000,1.04593603515625,-16.297010382688043,-0.9561234977483748,-0.5021393745541572,0.2182704359292984,-0.2504031658172607,3.0558760166168213
1772650714976908000,1.055907958984375,-13.333888891124724,-1.2332204834684728,-1.0678017385352403,0.1611568182706833,-0.3592827916145324,2.9026169776916504
1772650714986880000,1.0658798828125,-10.180087006795404,-1.9429244578331708,-1.5626093819618223,0.0507237128913402,-0.4779886901378631,2.494600534439087
1772650714996852200,1.075852294921875,-7.048909626728296,-2.5518518899798392,-2.257910883095115,-0.2246202528476715,-0.7239989638328552,1.8240880966186523
1772650715006824000,1.085823974609375,-4.700253327694535,-2.6300591652542358,-3.175243900808692,-0.3840953707695007,-0.8453417420387268,1.2408312559127808
1772650715016796200,1.095796142578125,-4.0151965955913065,-3.719814303857088,-1.9939210700988768,-0.485014259815216,-1.0014333724975586,0.7018207907676697
1772650715026768000,1.105767822265625,-3.2708927247494457,-3.079860449805856,-2.446775750871748,-0.653303325176239,-0.959753692150116,0.2238117605447769
1772650715036741000,1.1157412109375,-2.697671396756172,-1.937912767150998,-3.0785680719077586,-0.7452614903450012,-0.8550357818603516,-0.1867249011993408
1772650715046713000,1.125713134765625,-2.078676159581542,-1.056729651835561,-2.7063246588110923,-0.7742390036582947,-0.6888662576675415,-0.4743261933326721
1772650715056685000,1.13568505859375,-1.294565763530135,0.0170680391788482,-2.6081445628270505,-0.7920544743537903,-0.5578171014785767,-0.6645733714103699
1772650715066657000,1.145656982421875,-0.2935924857079983,1.136845975601673,-2.606524852670729,-0.8043407797813416,-0.4513294398784637,-0.7068406939506531
1772650715076630000,1.155630126953125,0.4321346949577331,2.123529446786642,-2.524445996659994,-0.8141406774520874,-0.3442341387271881,-0.6008812785148621
1772650715086602000,1.16560205078125,1.1487030021339657,3.1112972060769795,-2.449327627311647,-0.8454254269599915,-0.2066590040922165,-0.3860548734664917
1772650715096574000,1.175573974609375,1.95079621412158,3.953333721396327,-2.3541440827950835,-0.8883424997329712,-0.068888358771801,-0.1172575205564498
1772650715106546200,1.185546142578125,3.074586308795213,4.5947564789563415,-2.280510691307485,-0.9290904402732848,0.0922425389289856,0.1921952813863754
1772650715116519000,1.195518798828125,4.120753650084137,5.135879956421256,-1.8115572547793388,-0.9311096668243408,0.1801636070013046,0.5457088947296143
1772650715126491100,1.2054912109375,5.06787434168756,5.30858980821073,-1.0078952591050416,-0.8919429183006287,0.1447619348764419,0.9462319612503052
1772650715136463000,1.215463134765625,6.139271401301026,5.485252781540155,-0.3048775575712323,-0.8459101319313049,-0.0077799428254365,1.3377125263214111
1772650715146435000,1.22543505859375,7.337406250602006,5.545891666898131,0.18872337694671,-0.7697584629058838,-0.2510672211647033,1.6403720378875732
1772650715156408000,1.235407958984375,8.743190163126588,5.498864542785286,0.891666807667911,-0.6392734050750732,-0.4386816024780273,1.807912349700928
1772650715166380300,1.24538037109375,9.921512058454752,5.587873782581091,1.5273447379656135,-0.4811316430568695,-0.5222751498222351,1.814064621925354
1772650715176352000,1.25535205078125,10.909741005516052,5.515626877015829,1.789426086992025,-0.3236152529716491,-0.4747512936592102,1.683193922042847
1772650715186324200,1.26532421875,11.500381670343875,5.4651107417434455,1.6602105090141297,-0.2154141515493393,-0.347177505493164,1.4789975881576538
1772650715196296000,1.2752958984375,11.706837139868735,5.456061758369208,1.242031712564081,-0.1648777425289154,-0.2500887811183929,1.2798242568969729
1772650715206269000,1.28526904296875,11.612079127287863,5.395066899180412,0.7039173537872732,-0.1764246225357055,-0.1761584132909774,1.103386402130127
1772650715216241200,1.2952412109375,11.391757629495858,5.377666267046332,0.1572444985669106,-0.2613091468811035,-0.138997733592987,0.944977045059204
1772650715226212900,1.305212890625,11.164921050721404,5.460268562409281,-0.4064971630172804,-0.3883023858070373,-0.1473111659288406,0.8328449130058289
1772650715236185000,1.31518505859375,10.863239951103925,5.590618112853169,-0.7413000128507614,-0.5470871925354004,-0.1923683881759643,0.7648605108261108
1772650715246158000,1.325157958984375,10.543018986189365,5.706541663059592,-0.7170821019172668,-0.6854066252708435,-0.2588130533695221,0.7336247563362122
1772650715256130000,1.335130126953125,10.363002610778809,5.8854492004454135,-0.3392342198770493,-0.7776827812194824,-0.3204167485237121,0.7000143527984619
1772650715266103000,1.34510302734375,10.300816495978832,6.044710957118869,0.2627137286458164,-0.8221046328544617,-0.3959675133228302,0.6597656607627869
1772650715276075000,1.355074951171875,10.2197094076097,6.182781457203626,0.865836493101716,-0.8093484044075012,-0.4873134195804596,0.6097655892372131
1772650715286047000,1.365046875,10.012595766437054,6.374868209636211,1.427670311770588,-0.7410798072814941,-0.575411319732666,0.5629093647003174
1772650715296019200,1.375019287109375,9.510216737908124,6.503679298466444,1.764023642449081,-0.6556048393249512,-0.6517434120178223,0.5489887595176697
1772650715305992200,1.3849921875,8.827898490858077,6.559516336500645,1.8813591052800416,-0.5591162443161011,-0.6901220083236694,0.5637167096138
1772650715315964000,1.3949638671875,8.298818502408265,6.635598874706029,1.8619798665493723,-0.4533126056194305,-0.6925409436225891,0.5712079405784607
1772650715325936000,1.40493603515625,7.890580815866589,6.751168789169192,1.8289615401752293,-0.3491040468215942,-0.6684167385101318,0.5694267749786377
1772650715335908000,1.414908203125,7.442665783452987,6.693515057101846,1.7073719270311294,-0.2644357681274414,-0.6283987164497375,0.5619696378707886
1772650715345881000,1.424881103515625,6.930633960437774,6.520870671764016,1.4537074009552595,-0.2024170756340026,-0.5003974437713623,0.5503670573234558
1772650715355853000,1.43485302734375,6.4497969016313546,6.304085531404614,1.172398642759025,-0.1764853447675705,-0.4018599390983581,0.5329124331474304
1772650715365825300,1.4448251953125,6.187127961975336,6.116071142977476,0.992760306880623,-0.1518760472536087,-0.4113170504570007,0.5159069299697876
1772650715375797000,1.454796875,5.721516529351472,5.882121517327428,0.9857115574128924,-0.1238140612840652,-0.5095176100730896,0.5378995537757874
1772650715385770000,1.46477001953125,4.659233919563889,5.4612815388441085,1.091935551381856,-0.0864642262458801,-0.6214179396629333,0.5333592295646667
1772650715395742200,1.4747421875,3.934664092239737,4.717058916544914,1.3260460666820406,-0.0453096032142639,-0.6476170420646667,0.4904365241527557
1772650715405714000,1.4847138671875,2.379080078870058,3.388186394265294,2.017731277014315,-0.0230772774666547,-0.6568535566329956,0.5173082947731018
1772650715415686100,1.49468603515625,0.5257452910691499,1.677830336856842,2.858421638421714,0.0383740998804569,-0.7775235176086426,0.551133930683136
1772650715425658000,1.504658203125,-0.583629324761033,0.4749515078991651,3.8006928441673513,0.1983171552419662,-0.8813454508781433,0.3404964208602905
1772650715435631000,1.514631103515625,-0.8785890071690082,-1.209984277048707,5.006498958748579,0.4919740855693817,-0.9322347640991212,-0.2264247983694076
1772650715445603000,1.52460302734375,-1.2119091076314448,-3.3908974067896605,5.300806899249554,0.7775470018386841,-0.8382559418678284,-1.0861374139785769
1772650715455575000,1.534574951171875,-2.400651274687052,-4.362914639240503,3.4440745779648423,0.8703113198280334,-0.5079504251480103,-1.9590497016906736
1772650715465547000,1.544547119140625,-4.906535194218159,-4.168483954030275,0.1574787091815844,0.6906099915504456,-0.1025343984365463,-2.511988401412964
1772650715475520300,1.554520263671875,-8.181815924793481,-3.919623174974322,-2.907135692708194,0.3681978583335876,0.199226513504982,-2.6072938442230225
1772650715485492000,1.564491943359375,-11.197840154504776,-3.696246381264925,-4.265548197726905,0.0299327541142702,0.3778793513774872,-2.3512825965881348
1772650715495464200,1.574464111328125,-12.944418448895217,-3.96170115224719,-3.7497061687737694,-0.2259086072444915,0.3985294997692108,-1.938238501548767
1772650715505436200,1.584436279296875,-12.811634949302672,-4.766625788268446,-1.9648976585797964,-0.3572228848934173,0.1980162411928177,-1.6272081136703491
1772650715515409000,1.594408935546875,-10.633567272120713,-5.287838112083077,-0.1032124641280621,-0.3164392411708832,-0.1563080102205276,-1.6839210987091064
1772650715525381000,1.604381103515625,-7.534308294361829,-4.679128122079372,1.112008909856528,-0.1276263147592544,-0.3896505236625671,-2.0771291255950928
1772650715535353000,1.61435302734375,-5.530578946954011,-4.13984705761075,1.5388383380129933,0.1309327930212021,-0.3642370700836181,-2.56417179107666
1772650715545325000,1.624324951171875,-5.215940750607848,-4.046547427144646,0.9012311932183802,0.3507761061191559,-0.1530559509992599,-2.945582628250122
1772650715555298000,1.634298095703125,-5.761977134555578,-3.4709921032458544,-0.4977531588265672,0.4922610521316528,0.1463680416345596,-3.1479601860046387
1772650715565270300,1.644270263671875,-6.379494115871191,-2.754524333834648,-1.842126580566168,0.566884458065033,0.4628042876720428,-3.136577844619751
1772650715575242000,1.654241943359375,-6.530545678082108,-2.1726319158688185,-2.866775625269115,0.57876056432724,0.7470277547836304,-2.937419176101685
1772650715585214200,1.664214111328125,-5.934816750204563,-1.7307827593654392,-3.37681627446711,0.55855792760849,0.875382661819458,-2.6304495334625244
1772650715595187200,1.674187255859375,-4.658479886326194,-1.51085084541291,-3.263988059927523,0.5339753031730652,0.7622318863868713,-2.2915239334106445
1772650715605159200,1.6841591796875,-3.1236756261348724,-1.530718452182412,-2.887219278360903,0.5113961100578308,0.4549755752086639,-1.9929587841033936
1772650715615131100,1.694131103515625,-1.6665046407222748,-1.6668270045444369,-2.28205879753232,0.5484982132911682,0.0939460024237632,-1.7795144319534302
1772650715625103000,1.70410302734375,-0.4793301613748073,-1.6621499526441097,-1.7387214434102176,0.6238604187965393,-0.1809442788362503,-1.641316294670105
1772650715635075000,1.714074951171875,0.3203442990332841,-1.8349317006260155,-1.4817369791314006,0.6729943752288818,-0.2038538604974746,-1.5235300064086914
1772650715645048000,1.724048095703125,0.8092997823655604,-2.068136937649548,-1.6587126716718077,0.707212507724762,-0.1889208704233169,-1.3555490970611572
1772650715655020000,1.73402001953125,1.1612690537184476,-2.0434958328679205,-2.1776218331106008,0.7065286040306091,-0.1073599681258201,-1.1467440128326416
1772650715664992000,1.743991943359375,1.7271704140871762,-1.979683285909891,-2.462520286361873,0.6364279389381409,-0.0587668493390083,-0.9709832072257996
1772650715674964200,1.753964111328125,2.479332012692094,-2.000714968022704,-2.638092834106088,0.4920169711112976,-0.066697210073471,-0.8543218374252319
1772650715684937000,1.76393701171875,2.943300354284048,-1.99881147248894,-2.711855112670362,0.3040502965450287,-0.0892388373613357,-0.7899079322814941
1772650715694909200,1.7739091796875,3.3074826260000467,-1.8326997037902475,-2.475536419801414,0.1191174909472465,-0.0984307378530502,-0.767718493938446
1772650715704881200,1.783881103515625,3.549682193601132,-1.4993229047045111,-1.714511131261289,-0.0080520557239651,-0.060076642781496,-0.802285373210907
1772650715714853000,1.79385302734375,3.650766486594081,-1.0447679958850145,-0.6241922212958335,-0.0364269688725471,0.0180964525789022,-0.8966041207313538
1772650715724826000,1.803826171875,3.620056875553727,-0.5355445082888007,0.5034231672869995,0.0392011553049087,0.1468615233898162,-1.0219494104385376
1772650715734798000,1.813798095703125,3.5513171013265845,-0.1934542413935065,1.375976803281903,0.2172619551420211,0.0815560221672058,-1.1731208562850952
1772650715744770000,1.82377001953125,3.610070903590321,0.0878150615751743,1.960078713990748,0.4670000076293945,-0.2920936942100525,-1.3451788425445557
1772650715754742300,1.8337421875,2.950914920940995,0.4480300370953977,2.591711314420402,0.7271402478218079,-0.3353263735771179,-1.4919933080673218
1772650715764715300,1.84371533203125,1.6668629526406529,0.6607626871936023,2.860880722011625,0.8895647525787354,-0.567375659942627,-1.667961835861206
1772650715774687000,1.85368701171875,0.7064794593602418,1.1136400181896984,2.149837607997656,0.8830645084381104,-0.4276646375656128,-1.7434896230697632
1772650715784659200,1.8636591796875,-0.9908698169589042,1.0260589115008711,0.9896056422419846,0.778671145439148,0.1310315728187561,-1.5675182342529297
1772650715794631000,1.873630859375,-2.3153064026176926,0.3570690787099301,0.0260997426247224,0.7062408924102783,0.6969226598739624,-1.1699223518371582
1772650715804604200,1.883604248046875,-3.171652013796568,-0.1082093225672841,-0.0439782214036211,0.7204980850219727,0.911389172077179,-0.6638139486312866
1772650715814576000,1.893576171875,-3.1533979797035454,-0.0466039302647113,0.3592952303268015,0.8144856095314026,0.8332757353782654,-0.1028800681233406
1772650715824548000,1.903548095703125,-2.2788053486943243,0.3273524242296814,0.9428517821125686,0.946554958820343,0.4551418423652649,0.4348067343235016
1772650715834520000,1.91352001953125,-1.1252543220072984,0.849146639585495,1.29740522473976,1.0316286087036133,-0.2010956704616546,0.9007599949836732
1772650715844492300,1.9234921875,-0.4349924224764108,1.1986257015578448,1.1930458555988968,1.0313701629638672,-0.8733711242675781,1.347730040550232
1772650715854465000,1.933465087890625,-0.7254682374686002,1.1998961598850786,0.920812092000991,0.9003210067749023,-1.46566641330719,1.7592811584472656
1772650715864437000,1.94343701171875,-1.309012222033739,1.0421022838070988,0.4523466581854969,0.6353129744529724,-1.8990981578826904,2.0935986042022705
1772650715874409200,1.9534091796875,-1.9939754306346176,0.9448834340706468,-0.0841740747243166,0.2855589091777801,-2.051025629043579,2.368747472763061
1772650715884381000,1.963380859375,-2.3383137687176463,1.1005291922040283,-0.6131651427816599,-0.0507489740848541,-2.0077126026153564,2.5697922706604004
1772650715894354200,1.973354248046875,-2.1487901447713376,1.544254810103774,-0.8461237846329808,-0.3593914806842804,-1.359851956367493,2.3807637691497803
1772650715904326100,1.983326171875,-1.0586036290138958,2.0546061326861382,-0.8433144263006747,-0.5081672668457031,-0.7044537663459778,1.905780792236328
1772650715914298000,1.993298095703125,0.3770253866761923,2.529782096990943,-0.4575787866853177,-0.2743223011493683,-0.320827841758728,1.815801978111267
1772650715924270000,2.00327001953125,0.9617103579699992,2.563677644591033,0.6198790342718362,-0.1300003379583358,0.2054705321788787,1.8462589979171755
1772650715934243300,2.013243408203125,2.110125775334239,2.273127010796964,0.5005817698486149,-0.0222696140408515,0.3085063695907593,1.8929955959320068
1772650715944215000,2.023215087890625,2.96323371976614,1.7486726363211869,0.5913450137048959,0.1429831385612487,0.1665673702955246,1.892170071601868
1772650715954187300,2.033187255859375,3.7313878372728815,1.2298387320756912,1.0897519237324595,0.2044534236192703,0.2714067101478576,1.73089599609375
1772650715964159000,2.043158935546875,4.713613744527101,1.065574637070298,0.9699540163107216,0.2206451743841171,0.340532124042511,1.327733874320984
1772650715974132000,2.053132080078125,5.716403131860495,0.8315612985342741,1.050617890956998,0.1513467878103256,0.3648028671741485,0.8123354315757751
1772650715984104200,2.063104248046875,6.014636721372604,0.2851531586647033,0.8642334418192505,0.043435238301754,0.653363823890686,0.4001800417900085
1772650715994077200,2.0730771484375,5.301605940672755,-0.1506444427147507,0.238996679906547,-0.0320816226303577,1.0300312042236328,0.0929545760154724
1772650716004049200,2.083049072265625,4.289736005783081,-0.3799263688147067,0.0985067706551402,-0.0837354287505149,1.2815076112747192,-0.0385467372834682
1772650716014022100,2.093022216796875,3.052994070190191,-0.2198112101823091,0.0596655833464115,-0.0873975455760955,1.483370661735535,0.037518735975027
1772650716023993900,2.102993896484375,1.5457400802254675,-0.0596963438108563,-0.433601698770374,-0.0866817384958267,1.7557933330535889,0.2690233886241913
1772650716033966000,2.112966064453125,0.0666886869162321,-0.2046592337578535,-0.6399542924426496,-0.050645176321268,1.9690738916397093,0.6057590246200562
1772650716043938000,2.12293798828125,-0.7302303373038769,-0.0618096827030181,-0.678368048119545,-0.0169642530381679,1.9256212711334229,1.0205588340759275
1772650716053910000,2.132909912109375,-1.2072808633089065,-0.1757429358750581,-0.3469591515732929,-0.0187509674578905,1.790442943572998,1.5004820823669434
1772650716063883000,2.142883056640625,-2.1935966702252627,-1.3568001013860105,1.0431425135750323,-0.1112839579582214,1.6062391996383667,1.866889476776123
1772650716073855200,2.152855224609375,-3.1616929298400875,-2.904008500598371,3.1600200281918047,0.0985699370503425,1.0874961614608765,1.9739059209823608
1772650716083827000,2.162826904296875,-3.181497115984559,-3.179906047400832,4.926540455892682,0.4387959539890289,0.6234990954399109,1.765971541404724
1772650716093799200,2.172799072265625,-3.84702204914391,-4.237020022378862,5.369339168205857,0.6444063186645508,0.1496130228042602,1.328013896942139
1772650716103772200,2.182772216796875,-6.348995517233014,-6.668470047694444,4.800271452760696,0.7015049457550049,-0.3802329897880554,0.8720088601112366
1772650716113744100,2.192744140625,-10.505306802910566,-7.916759213218093,3.653898062618077,0.6738967299461365,-0.7668923139572144,0.6429187059402466
1772650716123716000,2.202716064453125,-15.651588326358794,-7.2184835185796015,1.952018887784332,0.664921224117279,-0.9237328171730042,0.7078982591629028
1772650716133688000,2.21268798828125,-20.289089137542245,-5.831774308881164,0.1991299489423632,0.7266833782196045,-0.4768056571483612,1.134825348854065
1772650716143661000,2.2226611328125,-23.172341558098797,-5.020815068870783,-1.2151752698205411,0.6946437358856201,0.2300726771354675,1.723416447639465
1772650716153633000,2.232633056640625,-23.006225113224986,-4.659969248101115,-2.4336364294439554,0.6401985883712769,0.6709691286087036,2.1699113845825195
1772650716163605000,2.24260498046875,-20.06468416982889,-4.803313889196515,-2.7619273035675285,0.5996706485748291,0.8495214581489563,2.392437219619751
1772650716173577000,2.252576904296875,-15.732627610188722,-5.168302801120281,-2.5909198717817663,0.5788649916648865,0.8034708499908447,2.31994891166687
1772650716183550200,2.26255029296875,-10.78702647999525,-5.655764831024408,-2.331829521264881,0.5169020891189575,0.5168447494506836,1.9721301794052124
1772650716193522000,2.27252197265625,-6.059841890755296,-6.1816276109933845,-2.208201680291444,0.3775433897972107,0.0526600405573844,1.3540363311767578
1772650716203494100,2.282494140625,-1.7468121031463144,-5.733114028164744,-2.423344168010354,0.1573441624641418,-0.5493731498718262,0.4037393033504486
1772650716213466000,2.292466064453125,1.7423486939966677,-4.3593753591984505,-2.5041592876955865,0.0711448341608047,-0.6775779724121094,-0.4806336462497711
1772650716223439000,2.302439208984375,2.637687175914645,-5.10741257134974,-1.6109842674218118,-0.0297496952116489,-0.3703444302082062,-1.4745137691497805
1772650716233411000,2.3124111328125,3.7097435762196778,-2.3367267917871475,-3.3580218498870726,-0.2992863357067108,0.2096845805644989,-2.362649440765381
1772650716243383300,2.32238330078125,2.929894929265976,0.0732639736533165,-5.008122176036238,-0.523289144039154,0.934544801712036,-2.8883509635925293
1772650716253355000,2.33235498046875,1.4506044665038584,1.3079665123730897,-4.335712451799214,-0.6181096434593201,1.4471652507781982,-3.0404369831085205
1772650716263327200,2.3423271484375,0.9222370102375744,2.663276959723234,-2.836431340409815,-0.5654128193855286,1.5973552465438845,-2.8481266498565674
1772650716273300200,2.35230029296875,0.7131143673300743,3.3159529327034947,-1.443912713780254,-0.4223296642303467,1.4639497995376587,-2.386239051818848
1772650716283272000,2.36227197265625,1.1603151139944792,3.347029331229627,-0.524057155319117,-0.2609913051128387,1.087048053741455,-1.835602879524231
1772650716293244200,2.372244140625,2.424796120384336,3.4383009629994628,-0.3697554322058334,-0.0873148441314697,0.6416183114051819,-1.2767949104309082
1772650716303215900,2.3822158203125,3.554033374547958,3.043152475133538,-0.1484518280413001,0.0760774090886116,0.2595337033271789,-0.7768104672431946
1772650716313189000,2.392189208984375,4.760453821635246,2.7915555491119624,-0.4591981680480763,0.1667077094316482,0.0337700843811035,-0.358917623758316
1772650716323161000,2.4021611328125,5.73741026405394,2.255019691698253,-0.8539222564894705,0.1815658807754516,-0.1033015996217727,-0.0373065881431102
1772650716333133000,2.412133056640625,6.610161066588759,1.8937968543097377,-1.541279885946214,0.099955178797245,-0.2106829136610031,0.2110816389322281
1772650716343105000,2.42210498046875,7.380085700899362,1.909228524458408,-1.9935288559108968,-0.0009480770677328,-0.3593230247497558,0.382452517747879
1772650716353078000,2.432078125,8.099125951147078,1.8973460712239143,-1.9488816126719115,-0.1201200038194656,-0.5468364953994751,0.4875520169734955
1772650716363050000,2.442050048828125,8.616043792638182,1.8531956715911624,-1.8789517518773675,-0.2443446815013885,-0.6690694093704224,0.5335183143615723
1772650716373022000,2.45202197265625,8.892846471586823,1.939415865190327,-1.7004025264099238,-0.3378463983535766,-0.7089641094207764,0.5161781907081604
1772650716382994200,2.461994140625,9.056629505077003,2.228819959297776,-1.4119485726341603,-0.4211387038230896,-0.7273727059364319,0.4744660258293152
1772650716392967000,2.471966796875,8.955081101703643,2.430852059422433,-1.1798112571030854,-0.4877533912658691,-0.7562538981437683,0.434801697731018
1772650716402939100,2.481939208984375,8.725656844523549,2.7079689188867806,-0.9808024503223598,-0.546610414981842,-0.7833523154258728,0.400816410779953
1772650716412911000,2.4919111328125,8.338934239697457,3.136086779418588,-0.7862928546570241,-0.5760164856910706,-0.7762603163719177,0.3829207718372345
1772650716422883000,2.501883056640625,7.813570056900382,3.494197037744522,-0.5270280974213034,-0.5782637596130371,-0.7474616169929504,0.3835638165473938
1772650716432856000,2.51185595703125,7.313885674282908,3.79881302177012,-0.3471811602935195,-0.5828046798706055,-0.7508323788642883,0.4019380211830139
1772650716442828300,2.521828369140625,6.953968658795953,4.094550702813267,-0.2763193341447971,-0.5871539115905762,-0.7474988102912903,0.4461678266525268
1772650716452800000,2.531800048828125,6.620844373166561,4.350457893249392,-0.1366515549312345,-0.568254828453064,-0.7380882501602173,0.5158446431159973
1772650716462772200,2.541772216796875,6.3191422307610505,4.565971113976836,0.0055422721612267,-0.5273365378379822,-0.7730165719985962,0.6130627393722534
1772650716472744000,2.551743896484375,6.181191557663679,4.794845336058736,0.096847660070192,-0.4980510473251343,-0.8415521383285522,0.7003435492515564
1772650716482717000,2.561717041015625,6.083435532310605,4.934536715343595,0.2906136708266101,-0.4754372835159302,-0.92125403881073,0.7865184545516968
1772650716492689200,2.571689208984375,5.761234791755676,4.819918987038731,0.3844697113327682,-0.4646839797496795,-0.9001601934432983,0.8725358843803406
1772650716502660900,2.581660888671875,5.340663108819723,4.844903206169605,0.2709597616067156,-0.4485418200492859,-0.8142571449279785,0.9633575677871704
1772650716512633000,2.591633056640625,5.007364635667204,5.016694189548492,0.192694728263095,-0.4372955560684204,-0.7029857039451599,1.084653615951538
1772650716522606000,2.601606201171875,4.635916756862402,5.078291106283665,0.2717973814746365,-0.4174350202083587,-0.7018784284591675,1.238632082939148
1772650716532578000,2.611578125,4.57912928623557,4.836611763164401,0.3922175124479457,-0.4124378859996795,-0.8781615495681763,1.369908571243286
1772650716542550000,2.621550048828125,4.713621343311667,4.506984087479114,0.5107426599875092,-0.4073992371559143,-1.199627161026001,1.4350473880767822
1772650716552522200,2.631522216796875,4.674426227998733,4.054627273225784,0.8712376214928924,-0.3601371943950653,-1.406671166419983,1.366552710533142
1772650716562495000,2.641494873046875,4.108088814300299,3.214834737440944,1.2582428426526486,-0.3083439171314239,-1.303795576095581,1.1788201332092283
1772650716572467200,2.65146728515625,3.0968396416574717,1.5304168388873338,1.5038061875984072,-0.3083569705486297,-1.3000104427337646,0.9421253800392152
1772650716582439200,2.661439208984375,2.232587202876806,-0.3194786221146583,1.3140101764515042,-0.3392110764980316,-1.4231040477752686,0.6067694425582886
1772650716592411100,2.6714111328125,1.1179624114334583,-0.8740665613085031,0.9566337122928352,-0.3049268722534179,-1.4113200902938845,0.251600444316864
1772650716602384100,2.681384033203125,-0.7084931372702121,-1.5017635758548975,0.6422385309223085,-0.223532348871231,-1.2557154893875122,-0.067278116941452
1772650716612356000,2.691356201171875,-2.626425777187943,-2.086219414567948,-0.2691597629800438,-0.2004659175872802,-1.0080950260162354,-0.3484943211078644
1772650716622328000,2.701328125,-4.256843790006637,-1.8840858998954293,-1.905455289530009,-0.2625506520271301,-0.5096032619476318,-0.5320331454277039
1772650716632300000,2.711300048828125,-5.71868744340539,-1.841613370347023,-3.3905706590533256,-0.4411630034446716,0.1630669981241226,-0.6219920516014099
1772650716642273300,2.721273193359375,-6.380021939137578,-1.95678230279386,-4.251604720309376,-0.6538914442062378,0.7728576064109802,-0.6684554219245911
1772650716652245000,2.731244873046875,-6.064034081748128,-1.6757330723166466,-3.888033566229045,-0.8173607587814331,1.1892585754394531,-0.695650577545166
1772650716662217200,2.74121728515625,-5.339216417142748,-1.5465893905311825,-2.3485651136189696,-0.8856863975524902,1.4260402917861938,-0.6890850067138672
1772650716672189000,2.75118896484375,-4.776324759984016,-2.135848830133676,-0.0046185997113585,-0.9070593118667604,1.4429326057434082,-0.6003293395042419
1772650716682161200,2.7611611328125,-4.322825789958238,-3.6020430799573657,2.7633181734040377,-0.8504608869552612,0.9538463354110718,-0.4451330304145813
1772650716692134100,2.771134033203125,-3.3072271899342534,-4.749073764964938,5.491879506203532,-0.6080682277679443,0.0622863657772541,-0.3433690965175628
1772650716702106000,2.781106201171875,-2.234924705913663,-4.073020423528551,7.144263267114758,-0.181230217218399,-0.7343394756317139,-0.4384603202342987
1772650716712078000,2.791078125,-1.2264993585199118,-2.577905784168839,6.883030497741699,0.2480718791484832,-1.0688530206680298,-0.9066592454910278
1772650716722050300,2.80105029296875,0.0030424364358186,-2.0857196483522653,4.954668818268179,0.5287647843360901,-0.882401168346405,-1.7862828969955444
1772650716732023000,2.81102294921875,0.6177507900714874,-2.111889862397313,2.5214196345761417,0.6674934029579163,-0.0945853516459465,-2.870709180831909
1772650716741995000,2.8209951171875,-0.1584866806477308,-1.6262655693143606,0.2206258875660598,0.7078782320022583,1.032227635383606,-3.8405487537384033
1772650716751967200,2.83096728515625,-2.129616073223948,-0.6321119083791971,-1.405249659517407,0.6855819821357727,2.032733678817749,-4.390419006347656
1772650716761939000,2.84093896484375,-4.609525593543053,0.1541615109249949,-2.073108588582277,0.6757444143295288,2.5475356578826904,-4.428630352020264
1772650716771912200,2.850912109375,-6.269866450938582,0.7275783614903688,-1.8254970789350569,0.7499470114707947,2.618275880813598,-4.002332210540772
1772650716781884200,2.86088427734375,-6.822305687665939,0.6946256476983428,-1.1551422414012251,0.7906656861305237,2.309445142745972,-3.10233211517334
1772650716791856000,2.870856201171875,-6.824957663479447,-0.0425122770369052,-1.0834595455899834,0.7662594318389893,1.5555977821350098,-1.973057985305786
1772650716801828000,2.880828125,-6.099823772531748,-0.5844613916710019,-1.3813678486704826,0.6818786859512329,0.713976263999939,-0.7559077739715576
1772650716811801000,2.890801025390625,-4.958562903097271,-0.8395812311217188,-1.803489537527412,0.5291978120803833,-0.0098917353898286,0.3312411606311798
1772650716821773000,2.90077294921875,-3.160636698785424,-1.036151850970089,-2.2645066280983386,0.3594699800014496,-0.4803467690944671,1.0519386529922483
1772650716831745000,2.9107451171875,-0.7615168714493513,-1.1723778922319412,-2.262770451955497,0.20355786383152,-0.6404997110366821,1.4134975671768188
1772650716841717000,2.920717041015625,1.5098597885489462,-1.210903729981184,-1.996738027215749,0.0699899643659591,-0.602575421333313,1.4649306535720823
1772650716851690000,2.93068994140625,3.3440181667149065,-1.2186503985852002,-1.5688633277900517,-0.0105578787624835,-0.4734991788864136,1.278568983078003
1772650716861662200,2.940662109375,4.68165091855526,-1.2266361366420984,-0.8647715672839432,-0.0544920600950717,-0.2983573377132416,0.9366320371627808
1772650716871634000,2.950634033203125,5.37106818395555,-1.2640662881091236,-0.1276792169897817,-0.0439241044223308,-0.1694038808345794,0.5357192754745483
1772650716881606100,2.960606201171875,5.496874245750904,-1.0955296303510664,0.4489843421455472,-0.0112599004060029,-0.1084475815296173,0.1268553286790847
1772650716891579100,2.9705791015625,5.070982244575023,-0.7151335981979966,0.8296895863782614,0.0568965151906013,-0.0801680088043212,-0.2043052911758422
1772650716901551000,2.980551025390625,4.150230504459143,-0.3348866191267967,1.0729602172769606,0.1263159364461898,-0.1196322441101074,-0.4347032606601715
1772650716911523000,2.990523193359375,2.911375522235036,-0.0617851327836513,0.9572399345576764,0.1538050770759582,-0.2090931534767151,-0.5410451889038086
1772650716921495300,3.000495361328125,1.5190180775165556,0.1775862256541848,0.7346095022361725,0.1661523729562759,-0.334065169095993,-0.5441984534263611
1772650716931467000,3.010467041015625,0.1409030931621789,0.3787950266972184,0.5217454443106427,0.1664397269487381,-0.477117657661438,-0.4803563356399536
1772650716941440000,3.02043994140625,-1.1158785908967257,0.5636795926660298,0.1574099913269281,0.1431288719177246,-0.5673115253448486,-0.3861680924892425
1772650716951412200,3.030412109375,-2.18729727782011,0.8187652375862002,-0.1354759900795295,0.1190672144293785,-0.6000322103500366,-0.2652134299278259
1772650716961384000,3.040384033203125,-3.006960048767924,1.139300383016467,-0.3334006548853591,0.1247630417346954,-0.6091984510421753,-0.1261199116706848
1772650716971356200,3.050356201171875,-3.5053035381704567,1.5100912592172622,-0.5758143766937777,0.136132076382637,-0.5403104424476624,0.0007040796335786
1772650716981329200,3.0603291015625,-3.6409921115547417,1.7847741695329546,-0.8951990003820508,0.1322180330753326,-0.4166869521141052,0.1053589507937431
1772650716991300900,3.07030078125,-3.344546574503183,1.871727645842731,-1.155674448581785,0.1000899374485015,-0.2981469929218292,0.1920067518949508
1772650717001272800,3.08027294921875,-2.7468244269818065,1.9313845344260332,-1.352140292881429,0.0527956523001194,-0.1710364669561386,0.2609691023826599
1772650717011244800,3.090244873046875,-2.0125866076022385,1.972488698230684,-1.2497550002925095,0.0177625678479671,-0.0537122450768947,0.3245227634906769
1772650717021217800,3.1002177734375,-1.231047523343563,2.005892078399658,-0.8410106063377112,0.0166923683136701,0.0094129703938961,0.412928432226181
1772650717031190000,3.11018994140625,-0.373165204116702,1.9833882779076693,-0.2846526252640411,0.0523118823766708,-0.0117556974291801,0.5333224534988403
1772650717041161700,3.12016162109375,0.5260989268124103,1.9506509604319928,0.2843522906105965,0.0904239267110824,-0.1184280291199684,0.657724142074585
1772650717051134000,3.130134033203125,1.4945242722511292,1.759433392049372,0.822124484886229,0.1096298471093177,-0.2476379424333572,0.7877234220504761
1772650717061107000,3.14010693359375,2.445422728827596,1.5080109458118676,1.235427491993457,0.132502406835556,-0.3932444155216217,0.874782145023346
1772650717071078700,3.15007861328125,3.576313010895252,1.5223475142002103,1.4651120075449346,0.1981317549943924,-0.5723835229873657,0.9272408485412598
1772650717081051000,3.16005078125,4.642715330961346,1.577278251044452,1.740509495870769,0.2112003862857818,-0.6697299480438232,0.8813856244087219
1772650717091022800,3.17002294921875,5.455349810707569,1.2648513010069726,1.9364596457332373,0.1732772588729858,-0.7749634385108948,0.765569269657135
1772650717100995800,3.179995849609375,6.21073095588088,1.070765191450715,1.841537090240419,0.1154447793960571,-0.863222599029541,0.624446451663971
1772650717110967800,3.1899677734375,6.6525529321163885,1.0774462766498327,1.7566259334132075,0.0445671454071998,-0.7815751433372498,0.4581539034843445
1772650717120939800,3.199939697265625,6.913461876362562,1.0906289988279343,1.8286910526707767,0.0297567229717969,-0.6504344344139099,0.2203738242387771
1772650717130911700,3.209911865234375,7.346832835116982,1.270365388253331,1.9025702356129883,0.0746006295084953,-0.4552878439426422,-0.0703371092677116
1772650717140885000,3.219885009765625,7.490266323539614,1.5915794558584688,1.877018007335812,0.1327666342258453,-0.0928925424814224,-0.4971519112586975
1772650717150856700,3.229856689453125,7.594365580439567,2.106759806032479,1.315064069418609,0.2225878685712814,0.4933658838272095,-0.9297438263893129
1772650717160829000,3.239828857421875,6.497890778192877,1.329775608599186,2.0009788796558974,0.3751617670059204,1.0853575468063354,-1.2833282947540283
1772650717170801000,3.24980078125,5.531804104834794,0.9367135716184972,1.7788102926924825,0.4885261356830597,1.5795552730560305,-1.5023661851882937
1772650717180772900,3.25977294921875,4.234687487778067,1.2201195943549277,1.0914335932090875,0.5321305990219116,1.9775692224502563,-1.483004450798035
1772650717190745900,3.269745849609375,2.5780308718532323,1.3263485567599531,0.4227076720513403,0.5370613932609558,2.152592658996582,-1.168291449546814
1772650717200717800,3.2797177734375,0.7964888161092996,0.9965496161609888,0.0391454309523105,0.5398966073989868,2.100993394851685,-0.5513218641281128
1772650717210689800,3.289689697265625,-0.6569330459028482,0.755463562759757,-0.1738878095276653,0.5204600691795349,1.811446070671081,0.2826757729053497
1772650717220661800,3.299661865234375,-1.7252029134064912,0.4309662357002496,-0.1840548736790195,0.4840937256813049,1.3194772005081177,1.204090237617493
1772650717230635000,3.309635009765625,-2.478907065278292,-0.3198641143009066,0.2383371930845081,0.468655377626419,0.699822723865509,2.0085198879241943
1772650717240606700,3.319606689453125,-2.654478736239672,-1.423200911271572,1.081735206015408,0.500180721282959,0.0598717667162418,2.537924289703369
1772650717250579000,3.329578857421875,-2.4876526817917823,-2.697863704457879,2.0293281913056966,0.5594126582145691,-0.5827324986457825,2.6708149909973145
1772650717260550700,3.339550537109375,-2.501117143520713,-4.2824540320813655,2.7381802250161766,0.6494356393814087,-1.1424658298492432,2.3735268115997314
1772650717270524000,3.34952392578125,-3.176338710308075,-6.330453898370266,3.348072118280828,0.7930091023445129,-1.5977580547332764,1.7019221782684326
1772650717280495900,3.359495849609375,-4.892549338963628,-8.076073576861619,3.081664284357428,0.9917632937431335,-1.869100570678711,0.8010059595108032
1772650717290467800,3.3694677734375,-8.250997597569226,-8.459516429364681,1.1395101533096283,1.1377217769622805,-1.739298939704895,0.0167082026600837
1772650717300439800,3.379439697265625,-13.672753766232727,-7.712980269426107,-2.324101995752752,1.117224097251892,-1.0388647317886353,-0.2674254477024078
1772650717310412800,3.389412841796875,-20.39292828220129,-7.174768295493721,-6.118518536129593,0.8552541732788086,-0.0338828191161155,0.0625284686684608
1772650717320384800,3.399384765625,-25.82074477381706,-6.521269900214672,-8.78606192112565,0.5056377649307251,0.8980635404586792,0.9169747829437256
1772650717330356700,3.409356689453125,-27.771883517766,-5.708756416499615,-8.575988845625519,0.3344814479351043,1.3556318283081057,1.976656675338745
1772650717340329000,3.419328857421875,-25.945390559661387,-5.355555557525157,-5.883594512489438,0.3735199272632599,1.2657146453857422,2.8402388095855717
1772650717350301700,3.4293017578125,-21.57050841925144,-5.670992210772633,-2.708818229192495,0.51274573802948,0.7867334485054016,3.243574619293213
1772650717360274000,3.43927392578125,-16.443714855605364,-6.348793857181072,-0.60131520357728,0.6791213154792786,0.2216775566339492,3.195319652557373
1772650717370246000,3.449245849609375,-12.084846276885273,-7.095500697511434,0.2478399846408516,0.837251603603363,-0.2522415518760681,2.799901962280273
1772650717380217900,3.4592177734375,-8.782993181204795,-7.598489966893196,0.0847144652113318,0.9498637318611144,-0.4818739593029022,2.175032615661621
1772650717390190800,3.46919091796875,-6.666932170602679,-7.520819282713532,-0.5423109336838126,1.0837953090667725,-0.4414021670818329,1.47342050075531
1772650717400162800,3.479162841796875,-5.612146054050326,-6.680667850488424,-1.002676793804392,1.2577965259552002,-0.1812037229537964,0.843969464302063
1772650717410134800,3.489134765625,-5.23542637232244,-5.425239919126033,-1.6480483620554207,1.361877679824829,0.1761035472154617,0.4148700535297394
1772650717420107000,3.49910693359375,-5.123440161564946,-3.766418818643689,-3.0898174879357216,1.3038992881774902,0.4450252652168274,0.1679083704948425
1772650717430080000,3.509080078125,-4.014689815112948,-1.7488392250597475,-4.445863556084037,1.128791332244873,0.5993687510490417,0.2322279661893844
1772650717440051700,3.5190517578125,-3.474536643984913,-2.222367422157526,-4.695741403228045,0.7913993000984192,0.594463586807251,0.4039466083049774
1772650717450024000,3.52902392578125,-1.3022305990695953,-0.9198644358873368,-5.8791305188179015,0.2986881732940674,0.484621524810791,0.6209068894386292
1772650717459995600,3.53899560546875,0.6858347307384014,0.4337590812891721,-6.0945583993494505,-0.157024085521698,0.4002698063850403,0.8225472569465637
1772650717469968000,3.5489677734375,2.138742213487625,1.243987084415555,-5.1656140004277225,-0.4910918176174164,0.4491412043571472,0.940125286579132
1772650717479940900,3.55894091796875,3.9035254421323535,2.92466579644084,-3.923557299552858,-0.67589271068573,0.6646171808242798,0.909192144870758
1772650717489912800,3.568912841796875,5.595401839998364,4.414645995521545,-2.7472277470856903,-0.7792931199073792,0.9599740505218506,0.7859452962875366
1772650717499884800,3.578884765625,6.854413475066423,5.3919385380268094,-2.025187876630574,-0.8520376682281494,1.210181713104248,0.667582094669342
1772650717509857000,3.58885693359375,7.774954787302017,6.084380119684338,-1.5126505883112549,-0.9130222201347352,1.2829240560531616,0.6255214214324951
1772650717519829800,3.598829833984375,8.416321430760622,6.657801938685775,-1.157980533567071,-0.935580551624298,1.2027033567428589,0.6787426471710205
1772650717529801700,3.6088017578125,8.764659652134776,6.718773416998982,-0.2700524009708315,-0.8852148652076721,0.9289759397506714,0.7644160389900208
1772650717539774000,3.61877392578125,9.092936497732996,6.88308427375555,0.5250291421564296,-0.8058311939239502,0.5577682256698608,0.8786309361457825
1772650717549746000,3.628745849609375,9.112651836550237,6.834503490459919,1.1305187453415244,-0.7056667804718018,0.1452280580997467,0.973481297492981
1772650717559719000,3.638718994140625,8.913000786343217,6.723917794150114,1.6208675096631049,-0.5668313503265381,-0.2183071225881576,1.055466651916504
1772650717569691000,3.64869091796875,8.572972128152847,6.797149619099497,2.013673964447528,-0.4039641618728637,-0.5015215277671814,1.1152753829956057
1772650717579662800,3.658662841796875,8.218914944609999,6.87127810062766,2.2148814503163097,-0.2439302206039428,-0.6922000646591187,1.1450122594833374
1772650717589634800,3.668634765625,7.922150258606671,6.775683052700757,2.1815467514693734,-0.111162319779396,-0.8366320729255676,1.135756492614746
1772650717599608000,3.678608154296875,7.701119151240586,6.797974379485845,1.8995600940115749,-0.0320519357919693,-0.9600786566734314,1.1132031679153442
1772650717609579800,3.688579833984375,7.3764903067559,6.911707726171612,1.3958530317492783,-0.0194743573665618,-1.048820734024048,1.088930368423462
1772650717619552000,3.698552001953125,6.93983608854711,7.098369530946016,0.885806975723803,-0.0556048564612865,-1.105564832687378,1.0869320631027222
1772650717629523700,3.708523681640625,6.488569407618045,7.382800805076957,0.6892422741595655,-0.098683625459671,-1.159371852874756,1.114173173904419
1772650717639496700,3.71849658203125,6.079491178599,7.668079635947942,0.7592782987423241,-0.1320919096469879,-1.2194013595581057,1.1628214120864868
1772650717649469000,3.728468994140625,5.765431074401736,7.96779031227529,0.9667595311183482,-0.1676861196756363,-1.275465965270996,1.2258355617523191
1772650717659440600,3.738440673828125,5.564492322471738,8.131988356307149,1.0479778247769922,-0.2175221890211105,-1.2845746278762815,1.2797081470489502
1772650717669412900,3.748412841796875,5.4153720205843445,8.10095024396479,0.8964994154561311,-0.3019353449344635,-1.1748145818710327,1.2971326112747192
1772650717679385900,3.7583857421875,5.411913989084959,8.099581878221034,0.6781142925541848,-0.4043344259262085,-0.950175166130066,1.2686927318572998
1772650717689357800,3.76835791015625,5.609700998985767,8.209453873303532,0.5684685805082321,-0.5167655944824219,-0.6915702223777771,1.198206067085266
1772650717699329800,3.778329833984375,6.029384793171286,8.19485543910861,0.469989282381907,-0.6352021098136902,-0.5113516449928284,1.089335322380066
1772650717709302000,3.788302001953125,6.472939876809716,8.09332515591383,0.4395809923756867,-0.7612279653549194,-0.3944577276706695,0.9665162563323976
1772650717719273700,3.798273681640625,6.725819828379154,7.919667209619283,0.5612196322932839,-0.8681926727294922,-0.3311401307582855,0.8409007787704468
1772650717729247000,3.8082470703125,6.850205501982569,7.764417026674747,0.7632626922033726,-0.9485650062561036,-0.3165092766284942,0.7097571492195129
1772650717739219000,3.818218994140625,6.847196967816353,7.544947761797904,0.9511629527315496,-0.9912680983543396,-0.3262391984462738,0.5605561137199402
1772650717749191000,3.82819091796875,6.638553048336505,7.2226920761853455,1.101581331605464,-0.982418656349182,-0.322564035654068,0.4253831505775451
1772650717759163000,3.838162841796875,6.06714432272315,6.730307787448168,1.381053668154776,-0.9380185008049012,-0.3345945179462433,0.308254063129425
1772650717769135900,3.848135986328125,5.556159962934255,6.071501348888874,1.5579706162452698,-0.8782555460929871,-0.315972089767456,0.1910685747861862
1772650717779107800,3.85810791015625,4.885962361788749,5.240518727025389,1.401460788628459,-0.8803027868270874,-0.1317950338125229,0.1321360915899276
1772650717789079800,3.868079833984375,3.845234581205248,3.561891102311015,1.4264679502435027,-0.9193865656852722,0.0397410281002521,0.1154029220342636
1772650717799051800,3.8780517578125,3.452302015823125,1.5640888068646193,1.7898495731011033,-0.9542458057403564,0.0407297760248184,0.0504321493208408
1772650717809024800,3.888024658203125,3.657197980946302,-0.0619037907272577,2.424252515026927,-0.9254485368728638,-0.1255444288253784,-0.1462345719337463
1772650717818997000,3.8979970703125,4.051704079255462,-1.6911626966387032,3.0277538304716347,-0.8006628155708313,-0.4959912300109863,-0.546538233757019
1772650717828968700,3.90796875,4.220283699372411,-3.109398094457388,3.332081060683727,-0.6043635606765747,-0.8570471405982971,-1.1433573961257937
1772650717838941000,3.91794091796875,3.139189421609044,-4.145293632578849,2.3589126123711464,-0.5347309112548828,-0.8985011577606201,-1.7655662298202517
1772650717848914000,3.927913818359375,0.6004115327358246,-4.649296462917327,0.213688635648787,-0.5727618932723999,-0.5737635493278503,-2.2390894889831543
1772650717858886000,3.937885986328125,-2.5813766751497984,-4.630369644129276,-1.3478785437837242,-0.6246254444122314,0.0007523666135966,-2.457529306411743
1772650717868857900,3.94785791015625,-5.716888285028934,-4.393292241847515,-1.9264083534486591,-0.6636953353881836,0.6587323546409607,-2.350209474563598
1772650717878830000,3.957830078125,-8.295105619364977,-4.752618305703997,-1.5315825216658412,-0.7575526833534241,1.21443510055542,-1.9250956773757932
1772650717888802800,3.967802734375,-9.812399357306957,-5.958703821748495,-0.2035181008987128,-0.8759831786155701,1.3118380308151243,-1.349266767501831
1772650717898774800,3.97777490234375,-9.2976892549932,-6.856347073477506,1.85153124551028,-0.8797253966331482,0.7949825525283813,-0.9274091720581056
1772650717908746800,3.987746826171875,-6.931284533300995,-6.755576668739319,3.812299110808968,-0.7364092469215393,-0.0834818929433822,-0.884931743144989
1772650717918718700,3.99771875,-4.323070704630017,-6.36190877481997,4.803477555325627,-0.5387452840805054,-0.8864634037017822,-1.217662692070007
1772650717928692000,4.00769189453125,-2.864956300887465,-5.840001454478502,4.709142152070999,-0.3285603523254394,-1.3405141830444336,-1.798337459564209
1772650717938663700,4.01766357421875,-2.974611438348889,-4.918112819287181,3.892258198186755,-0.0886648818850517,-1.3405908346176147,-2.4346694946289062
1772650717948636000,4.027635986328125,-4.451618174088001,-3.687296182090044,2.939607344985008,0.1899954974651336,-1.0785990953445437,-2.9378042221069336
1772650717958608000,4.03760791015625,-6.543440815490484,-2.58338743045032,2.0979124827101825,0.5075380802154541,-0.7468771934509277,-3.2057948112487797
1772650717968580600,4.04758056640625,-8.870750375112891,-1.6481851401776075,1.3764426672279837,0.8119669556617737,-0.3930418789386749,-3.1526777744293213
1772650717978552800,4.057552734375,-11.265993068754671,-0.7690648026108742,0.371733162019588,1.0347262620925903,-0.0677357912063598,-2.7422444820404053
1772650717988524800,4.06752490234375,-12.926154477930067,0.174603702712059,-0.8081623758334666,1.157449722290039,0.1008098274469375,-2.026983499526977
1772650717998496800,4.077496826171875,-13.211784606456757,0.8903881660342216,-1.8801530904911457,1.2110124826431274,0.0375735759735107,-1.16038978099823
1772650718008469800,4.0874697265625,-12.039044310653209,1.1664806508868932,-2.3435060766637323,1.2195359468460083,-0.1950069367885589,-0.3457727432250976
1772650718018441700,4.097441650390625,-9.749611184960605,1.176397064745426,-2.254947941636294,1.2272478342056274,-0.4257128834724426,0.265845239162445
1772650718028413700,4.10741357421875,-6.980460944402218,1.1861229244679212,-1.9491306189969184,1.235053300857544,-0.5914121270179749,0.6618812680244446
1772650718038386000,4.117385986328125,-4.207009791779518,1.2468150013178587,-1.6955650232508777,1.235154390335083,-0.6717312932014465,0.8593215346336365
1772650718048357600,4.127357666015625,-1.585769892796874,1.3806816199719905,-1.4051333396613597,1.2364352941513062,-0.6627537608146667,0.8813866376876831
1772650718058331000,4.137330810546875,0.7700415386885404,1.501607508510351,-1.0997190448649228,1.2370525598526,-0.593138575553894,0.7497118711471558
1772650718068302800,4.147302734375,2.742159357780218,1.6358341926485298,-0.8178649277456105,1.2261879444122314,-0.4846805334091186,0.5199580192565918
1772650718078274800,4.15727490234375,4.281712273803353,1.7777233742386105,-0.5731153103355318,1.1887129545211792,-0.3793904185295105,0.2400036454200744
1772650718088247800,4.167247802734375,5.348691516974568,1.9300012633740904,-0.3854819571152329,1.1404061317443848,-0.2877103090286255,-0.0370007865130901
1772650718098219800,4.1772197265625,5.9523804639458655,2.2087650132626293,-0.171893859231472,1.0878576040267944,-0.2248001098632812,-0.2746489346027374
1772650718108191700,4.187191650390625,6.345108446666598,2.522062316393852,0.095237831987068,1.0363270044326782,-0.1999666690826416,-0.4690786004066467
1772650718118163700,4.197163818359375,6.59930357248783,2.7598370532900094,0.3484178624816239,0.9884783029556274,-0.174341395497322,-0.6359816789627075
1772650718128135700,4.2071357421875,6.793474145457148,2.975874005630612,0.5552313516639172,0.9502414464950562,-0.1379208117723465,-0.7783201336860657
1772650718138108700,4.217108642578125,6.93687080900073,3.2296412614285943,0.7568290058940649,0.9189108610153198,-0.0988876670598983,-0.8971337676048279
1772650718148081000,4.227080810546875,6.968475907576083,3.3951661701500413,0.825508428236097,0.873016357421875,-0.0843920782208442,-0.9577646255493164
1772650718158052600,4.237052490234375,6.9612091314435,3.419343164551258,0.8406807167962193,0.8214645385742188,-0.1078177988529205,-0.9675579071044922
1772650718168024800,4.24702490234375,6.985386125844717,3.385459015128016,0.8996578064218163,0.7770896553993225,-0.1393546909093856,-0.976842761039734
1772650718177997800,4.256997802734375,7.114536821892857,3.281080356764793,0.8801102253869175,0.7693678736686707,-0.1490039527416229,-1.0389684438705444
1772650718187969800,4.2669697265625,7.277301033729314,3.2569857799500226,0.8615048936381936,0.7956783175468445,-0.1128158494830131,-1.1727133989334106
1772650718197941800,4.276941650390625,7.21785223493874,3.121103729820251,0.6544738161824644,0.814000129699707,-0.0445838198065757,-1.3598378896713257
1772650718207913700,4.286913818359375,6.545671351021528,2.726244580289721,0.1611485933333635,0.8253536820411682,0.0385829731822013,-1.537659764289856
1772650718217886700,4.29688671875,5.141922743716836,2.045284177589416,-0.3242608879551291,0.8216356039047241,0.0858136191964149,-1.6704329252243042
1772650718227858700,4.306858642578125,3.188518392923474,1.4653390942990778,-1.028558034840226,0.791076123714447,0.1696155816316604,-1.6909184455871582
1772650718237830700,4.31683056640625,1.05525782571733,0.9170254130691288,-1.3887771020136772,0.7900090217590332,0.1862193197011947,-1.6134428977966309
1772650718247802600,4.326802734375,-0.7785311346143484,0.2549047353953123,-1.508742328826338,0.8208012580871582,0.0467045679688453,-1.5046943426132202
1772650718257775900,4.33677587890625,-2.4361364295661447,-0.7778525047004222,-1.6626906353920696,0.8284569382667542,-0.216882437467575,-1.400504231452942
1772650718267747600,4.34674755859375,-4.081493068319559,-1.8766691938981408,-2.1174688315734267,0.8200381994247437,-0.5147330164909363,-1.3178067207336426
1772650718277719800,4.3567197265625,-5.656538738006353,-2.4886308791741727,-2.8473557622671124,0.7785487771034241,-0.8131624460220337,-1.2806907892227173
1772650718287691800,4.36669189453125,-7.35041770786643,-2.9702564580097794,-3.8420214643776416,0.6560050249099731,-1.0225049257278442,-1.2195088863372805
1772650718297664800,4.376664794921875,-9.31570305058956,-3.410431251560152,-5.103823606947064,0.4268548786640167,-1.101830244064331,-1.081895351409912
1772650718307636700,4.38663671875,-10.858582480686902,-3.5247651944875718,-6.238843536165357,0.131734549999237,-1.042052984237671,-0.9255824089050292
1772650718317609000,4.39660888671875,-11.530096425127985,-3.51236573164165,-6.795612911051512,-0.1555746048688888,-0.7885589599609375,-0.8156223297119141
1772650718327580700,4.40658056640625,-11.258487807691097,-3.2404727443054315,-6.44104076372385,-0.3561820089817047,-0.3604196012020111,-0.7644084095954895
1772650718337553700,4.4165537109375,-10.417693985909224,-2.73106776266247,-5.217673273488879,-0.4348562955856323,0.1422806680202484,-0.7191683650016785
1772650718347526000,4.42652587890625,-9.260832227239012,-2.2728785889938474,-3.676163085918129,-0.4368821680545807,0.5665765404701233,-0.6140518188476562
1772650718357497600,4.43649755859375,-7.972628984478115,-1.8127552323922516,-2.373893762273341,-0.3952604830265045,0.8996738195419312,-0.4202306270599365
1772650718367469800,4.4464697265625,-6.464597580400109,-1.3124459958747028,-1.4678208281122147,-0.3504804968833923,1.1341979503631592,-0.1733665019273758
1772650718377442800,4.45644287109375,-4.629707380828261,-0.8000742733806371,-0.6168484344042837,-0.3062664866447449,1.2335656881332395,0.113167367875576
1772650718387414800,4.466414794921875,-2.66130770547688,-0.4086924445718526,0.1990687202744185,-0.2669332027435303,1.220456838607788,0.4216857850551605
1772650718397386800,4.47638671875,-0.6025029520571231,-0.1786132306143641,0.9808775613851844,-0.2345485687255859,1.1474419832229614,0.688865065574646
1772650718407358700,4.486358642578125,1.5748866797327994,-0.1021758876219391,1.7893885314606128,-0.2170364260673523,0.999718189239502,0.8917223215103149
1772650718417331700,4.496331787109375,3.828349497377872,-0.1547343423768878,2.5381436826229096,-0.2030154913663864,0.7906880974769592,1.0007507801055908
1772650718427303700,4.5063037109375,5.903522032752632,-0.2893903578430414,3.15630685288757,-0.2312266230583191,0.5717490911483765,1.0101016759872437
1772650718437275600,4.516275634765625,7.532032750645279,-0.6529749559268355,3.5772058680817485,-0.2935622930526733,0.3965347707271576,0.9305012226104736
1772650718447247600,4.52624755859375,8.799573729127644,-1.0406745890915394,3.654285016109049,-0.4756815135478973,0.3051228523254394,0.7532681226730347
1772650718457219800,4.5362197265625,9.643454411008952,-1.231297698712349,2.914679532216489,-0.6341567039489746,0.3661167919635772,0.5445374846458435
1772650718467192600,4.546192626953125,9.764465639743207,-1.388558636957407,3.7222219495207063,-0.7023813128471375,0.4859723448753357,0.3353983461856842
1772650718477164800,4.556164794921875,9.582261983421445,-1.7782330773264168,4.420676507857442,-0.7344734072685242,0.6003240346908569,0.1667157858610153
1772650718487136800,4.56613671875,9.211624836477636,-1.9619971148326991,4.403239343105256,-0.774456262588501,0.7081101536750793,0.0514003932476043
1772650718497108700,4.576108642578125,8.710676133012772,-1.690150304725766,3.89422569886744,-0.8346714377403259,0.7859964370727539,0.0060722641646862
1772650718507081700,4.586081787109375,8.068084331673383,-1.4441732644125818,3.207353441774845,-0.9077693223953248,0.8275271058082581,0.0269780792295932
1772650718517054000,4.596053955078125,7.241998249679804,-1.232733576734364,2.7227041312038898,-0.95814710855484,0.811694860458374,0.12164007127285
1772650718527025700,4.606025634765625,6.380412399759888,-1.0611670497611163,2.405751228174567,-0.9742289185523988,0.7693727016448975,0.245912492275238
1772650718536998000,4.615997802734375,5.358420299306512,-1.115335277800262,1.9721204494401807,-1.0158874988555908,0.7555951476097107,0.4388279616832733
1772650718546971000,4.625970947265625,3.6319191627830265,-1.348028473648429,1.2770719001546502,-1.0485458374023438,0.6925085783004761,0.7066652178764343
1772650718556942600,4.635942626953125,1.9688509262502192,-1.4941452098056671,0.8344912875715643,-1.0229347944259644,0.5092746019363403,1.023630976676941
1772650718566914800,4.645914794921875,-0.0732400082558393,-2.0528060975268483,0.8448406129546463,-0.9060291647911072,0.2895475327968597,1.380850076675415
1772650718576886500,4.655886474609375,-2.434153146794438,-3.090795977579057,1.3849639734663068,-0.6603150963783264,0.0535935908555984,1.7348607778549194
1772650718586859800,4.66585986328125,-5.023903682535886,-3.9996681870698927,2.1507180440939964,-0.2887935042381286,-0.0828476101160049,2.0734193325042725
1772650718596831700,4.675831787109375,-8.059347482988239,-5.139352600967884,2.7610785777837035,0.1255407631397247,-0.0910058766603469,2.376431941986084
1772650718606803700,4.6858037109375,-11.477947720217704,-6.592801350986957,2.9799340946763757,0.5365096926689148,-0.0603904426097869,2.66044020652771
1772650718616775700,4.695775634765625,-14.944019902718066,-7.7303341398090115,2.701253931418061,0.9203113317489624,0.0449423566460609,2.915778636932373
1772650718626749000,4.7057490234375,-18.185343418633938,-8.326345391759276,1.3237854282736778,1.134852409362793,0.21696737408638,3.207073926925659
1772650718636720600,4.715720703125,-21.02579480834007,-8.475361648750305,-0.948801484297216,1.1197673082351685,0.3169796168804168,3.583287715911865
1772650718646692900,4.72569287109375,-23.149044853663444,-8.236340711185335,-3.073219696617126,0.9975476264953612,0.2598393559455871,4.031800746917725
1772650718656664800,4.735664794921875,-23.98410217761993,-7.619195485791564,-3.945015390384197,0.901648759841919,0.1567631065845489,4.433043003082275
1772650718666637600,4.745637451171875,-23.126847050380704,-7.043407522180676,-4.00437300375998,0.8470593094825745,0.1377129852771759,4.614032745361328
1772650718676609800,4.75560986328125,-20.89672068465948,-6.793213448694348,-4.2133173674911255,0.772750198841095,0.2339219450950622,4.538204669952393
1772650718686581800,4.765581787109375,-18.189087865859268,-6.448441395369172,-4.6972322263076896,0.6829124689102173,0.4660017788410187,4.309654712677002
1772650718696553700,4.7755537109375,-15.396770684725045,-5.906013849568367,-4.91050526689291,0.5810533761978149,0.7749865055084229,3.991223812103272
1772650718706526700,4.785526611328125,-12.36258419085741,-5.309133413568139,-4.640360292267799,0.4613067507743835,0.9732354283332824,3.558568239212036
1772650718716499000,4.7954990234375,-8.72171950507462,-4.554892086079716,-4.156717236129939,0.3634008467197418,1.17016339302063,3.1383345127105717
1772650718726470700,4.805470703125,-6.372620138448476,-5.314748330840468,-2.370004353619367,0.3652970194816589,1.191746473312378,2.5421650409698486
1772650718736443000,4.81544287109375,-3.108526572319865,-4.395981042540073,-1.8158678114548323,0.2611922025680542,1.3001245260238647,1.8408660888671875
1772650718746415900,4.825415771484375,-1.3801245706111192,-3.6206267843961712,-1.9088629060164093,0.133856326341629,1.4946690797805786,1.116796851158142
1772650718756387600,4.8353876953125,-0.4961328276157379,-2.8696617020994424,-1.8801602508842945,0.0071522565558552,1.6964629888534546,0.4927066266536712
1772650718766359800,4.84535986328125,-0.1808086948320269,-1.1987743162482976,-1.8187918822079896,-0.079842559993267,1.856472134590149,0.0593131221830844
1772650718776331800,4.855331787109375,-0.0537608162820339,0.6894277867943048,-1.92512430498749,-0.1242383867502212,1.9484305381774905,-0.202832892537117
1772650718786304800,4.8653046875,0.5084790989696979,2.568808869999647,-2.1695862645626067,-0.1645016521215438,2.01318359375,-0.3754581809043884
1772650718796276700,4.87527685546875,1.293614746415615,4.224402825129032,-2.5345962192744014,-0.2116557955741882,2.111049175262451,-0.480193167924881
1772650718806248700,4.885248779296875,1.916746645003557,5.588092393767833,-2.847933269894123,-0.2569460272789001,2.170196294784546,-0.5025623440742493
1772650718816220700,4.895220703125,2.37148538595736,6.683366588053107,-2.8981805250972505,-0.2932725548744201,2.1347548961639404,-0.4166240692138672
1772650718826194000,4.90519384765625,2.7855191915571687,7.528381826922297,-2.958847467505932,-0.3089886605739593,2.035815715789795,-0.269181877374649
1772650718836165600,4.91516552734375,3.251044699463248,8.40336199594438,-3.0927272379025816,-0.3159484565258026,1.881190299987793,-0.0921158418059349
1772650718846137900,4.925137939453125,3.810578862887621,9.082065559628605,-3.245123492720723,-0.3264335989952087,1.642479658126831,0.088161788880825
1772650718856109800,4.93510986328125,4.36974536204338,9.810569803792236,-3.4353584798067804,-0.3347586691379547,1.4089635610580444,0.2941119968891144
1772650718866082600,4.94508251953125,4.602781379979849,10.290330173277855,-3.24610753532201,-0.2801913022994995,1.1803629398345947,0.513556718826294
1772650718876054800,4.9550546875,4.582690193587541,10.593687681674956,-2.7652178695455194,-0.1810982674360275,0.9984549283981324,0.7296290397644043
1772650718886026800,4.96502685546875,4.336741502586007,10.951415078163146,-2.3829953526176517,-0.055208247154951,0.9069707989692688,0.9833313226699828
1772650718895998700,4.974998779296875,3.87464363104105,11.434813511890171,-2.2030511656604705,0.0747890397906303,0.8437595963478088,1.2676268815994265
1772650718905971700,4.9849716796875,3.74379489890337,11.62305411028862,-2.0013246243536478,0.1980007141828537,0.8263038992881775,1.5348713397979736
1772650718915944000,4.99494384765625,4.1208489271521564,11.768638639265298,-1.9247050566621124,0.3211840987205505,0.8035287857055664,1.7234787940979004
1772650718925915600,5.00491552734375,4.880930212840438,11.76356148213148,-1.682815431793034,0.4296850264072418,0.6909396052360535,1.8240340948104856
1772650718935888000,5.014887939453125,5.781178094109893,11.381996113938092,-1.6260262076005338,0.4624748229980469,0.4725688099861145,1.8266351222991943
1772650718945859600,5.024859619140625,6.8189832652449605,11.088118381547927,-2.01960583871454,0.3803059458732605,0.2056569457054138,1.7302720546722412
1772650718955832800,5.034832763671875,7.7307187552124255,10.837573594927788,-2.4585867463052278,0.2572517991065979,-0.0520496480166912,1.5297253131866455
1772650718965804800,5.0448046875,8.450284490638971,10.513965910184384,-2.320238890583813,0.1272101700305938,-0.2665558159351349,1.2380318641662598
1772650718975776800,5.05477685546875,8.807171344649792,10.432460177886483,-2.344196981537342,-0.0262620225548744,-0.3866973519325256,0.9063929915428162
1772650718985748700,5.064748779296875,8.82095612437427,10.376533123481272,-2.363013033427298,-0.195067822933197,-0.4399086236953735,0.5627413392066956
1772650718995721700,5.0747216796875,8.646389246541261,10.33360817399025,-2.3600173587426543,-0.3550744652748108,-0.4414806962013244,0.237308531999588
1772650719005694000,5.08469384765625,8.197613213384152,10.33405474871397,-2.1737775787726044,-0.4911729097366333,-0.3722656667232513,-0.0395275950431823
1772650719015665700,5.094665771484375,7.707832969665527,10.2800238833189,-1.9666087002813812,-0.6146817207336426,-0.2713980376720428,-0.2732084393501282
1772650719025638000,5.104637939453125,7.401790752229094,10.141711975693704,-1.7933242634743451,-0.728745698928833,-0.2386896312236786,-0.4536336064338684
1772650719035611000,5.11461083984375,7.238831310081482,9.925291576993464,-1.6014204663932323,-0.8306021094322205,-0.274978905916214,-0.5864751935005188
1772650719045582800,5.124582763671875,7.196179916834831,9.721502111807466,-1.2760256059721111,-0.8971446752548218,-0.4001125693321228,-0.7004965543746948
1772650719055554800,5.134554931640625,7.213740123444795,9.4814494931072,-0.7892329997621477,-0.9051448702812196,-0.5798779726028442,-0.8101991415023804
1772650719065526800,5.14452685546875,7.196002222180366,9.217202928870917,-0.3261133108887821,-0.870814859867096,-0.7854945063591003,-0.9449697136878968
1772650719075499800,5.154499755859375,6.91268270868361,8.82543122396171,-0.0841615805689245,-0.8214021325111389,-0.924185574054718,-1.0680460929870603
1772650719085471700,5.1644716796875,6.179475401395559,8.29157452262938,0.1433254249382764,-0.7218260169029236,-1.004926681518555,-1.1504591703414917
1772650719095443700,5.174443603515625,5.23537025822103,7.184092588678002,0.727395479204133,-0.5845882892608643,-1.073795199394226,-1.1758341789245603
1772650719105416000,5.184416015625,4.24219917858243,5.529196552684903,1.2633385583564638,-0.48676797747612,-1.1426762342453003,-1.120565414428711
1772650719115389000,5.194388916015625,3.3145077023312446,3.671859543505311,1.6810248951144515,-0.4555604755878448,-1.22246515750885,-0.9911509156227112
1772650719125360600,5.204360595703125,2.548076463094353,1.1353338174730538,2.3452825848169625,-0.4596886336803436,-1.4228376150131226,-0.852260410785675
1772650719135332900,5.214332763671875,2.340875728160143,-1.6527952643215655,3.35567674806565,-0.429269790649414,-1.7378089427947998,-0.9729055166244508
1772650719145304800,5.224304931640625,3.7023487897932528,-3.9243881974190473,4.113503240564465,-0.410815417766571,-2.0925354957580566,-1.4955178499221802
1772650719155277800,5.23427783203125,4.344118168833852,-6.058818392926455,4.230053105975688,-0.4348759651184082,-2.385511875152588,-2.270623207092285
1772650719165249800,5.244249755859375,3.3626609078645706,-7.517216289785503,3.6741628520116207,-0.4386675059795379,-2.660590887069702,-3.12910795211792
1772650719175222000,5.254221923828125,1.0682242747962474,-7.071886013168096,2.527713474023342,-0.3816122114658355,-2.779583692550659,-3.849750280380249
1772650719185193700,5.26419384765625,-2.97459098008275,-5.920115440157056,0.9939169295698403,-0.3501951694488525,-2.5621798038482666,-4.187497138977051
1772650719195166700,5.274166748046875,-8.160441712853313,-5.533841163620353,-0.8102372093461453,-0.4102108776569366,-1.9602313041687007,-4.015403270721436
1772650719205139000,5.284138916015625,-12.529731732344626,-5.766722867777943,-1.8462663107194008,-0.5797996520996094,-1.121343016624451,-3.4805829524993896
1772650719215110700,5.294110595703125,-14.208191014754773,-6.22842910965681,-2.089775938005745,-0.7933484315872192,-0.4317260384559631,-2.948392868041992
1772650719225083000,5.304082763671875,-12.468218986761569,-6.650918608912825,-1.2826844793394208,-0.9332682490348816,-0.0917876362800598,-2.7313930988311768
1772650719235055900,5.314055908203125,-9.21048326522708,-6.719268507039547,0.2026801887698471,-0.9200140237808228,-0.0792367532849311,-2.8167600631713867
1772650719245026800,5.32402685546875,-6.460421171498298,-6.386650417366623,1.5843931976161896,-0.7659762501716614,-0.3478120267391205,-3.125030517578125
1772650719254999800,5.333999755859375,-4.849554246845841,-5.985322948604821,2.195313703276217,-0.5871126055717468,-0.7651900053024292,-3.511198043823242
1772650719264971800,5.3439716796875,-4.963897834384441,-5.512163584819436,1.800458791529387,-0.4435397684574127,-1.0572391748428345,-3.822021484375
1772650719274943700,5.35394384765625,-6.534736700031161,-4.619409274175763,0.8016198953874408,-0.365535020828247,-1.1462547779083252,-3.994298219680786
1772650719284916000,5.363916015625,-8.759314199453591,-3.758147833904624,0.0001562865402549,-0.2578250765800476,-0.9559531807899476,-3.9475369453430176
1772650719294888700,5.373888671875,-11.737851871335506,-2.63124399112463,0.1289102383557707,0.0608178824186325,-0.3368945121765136,-3.5614724159240723
1772650719304861000,5.38386083984375,-14.213202705436943,-1.62759068043828,1.488854994443059,0.5996251702308655,0.3509057164192199,-2.963961124420166
1772650719314833000,5.3938330078125,-14.05169930731654,-1.0345724728241563,2.217004287689179,1.0736438035964966,0.7626504898071289,-2.2875735759735107
1772650719324804900,5.403804931640625,-12.471639608860016,-0.7337438983827829,1.7654915230445565,1.3935688734054563,0.845353364944458,-1.4625805616378784
1772650719334777900,5.41377783203125,-10.775747545611855,-1.1489321347147226,0.9647064710460602,1.5319533348083496,0.656341552734375,-0.5337496995925903
1772650719344749800,5.423749755859375,-8.654691210940479,-1.4366715104803442,-0.2556502200003713,1.5153509378433228,0.2067773789167404,0.3394840061664581
1772650719354721800,5.4337216796875,-5.865058154323696,-1.4434581018805503,-1.1641976545162498,1.4241269826889038,-0.3275642096996307,0.9893248081207277
1772650719364693800,5.44369384765625,-2.7498019814878703,-1.6307745711714028,-1.5361962990716098,1.2724425792694092,-0.7270090579986572,1.3231942653656006
1772650719374667000,5.4536669921875,0.0778279205679893,-1.7700769511386751,-1.7472540016949176,1.0981266498565674,-0.9258478879928588,1.3517528772354126
1772650719384638700,5.463638671875,2.362656182813644,-1.5863286957234144,-1.8849585910767317,0.92833411693573,-0.9361617565155028,1.1709694862365725
1772650719394611000,5.47361083984375,3.897534092763066,-1.2028408350348472,-1.8187834066405888,0.7789193391799927,-0.8314128518104553,0.8871345520019531
1772650719404582700,5.483582763671875,4.735788751456141,-0.74380176653862,-1.7710912427477536,0.6270169019699097,-0.6522380709648132,0.5883060097694397
1772650719414555000,5.493554931640625,4.915246908462048,-0.2473988898098468,-1.6841943189308046,0.4832868278026581,-0.4294082224369049,0.3627113401889801
1772650719424528000,5.50352783203125,4.63036204534471,0.2486468440443277,-1.3923955847717822,0.3742197453975677,-0.2161047160625457,0.237950250506401
1772650719434499800,5.513499755859375,4.307141314092278,0.7715320695072412,-1.1050557297177612,0.2868062853813171,-0.0064649460837244,0.1929598748683929
1772650719444471800,5.523471923828125,4.170612198230624,1.3074743449419737,-0.8571898069180548,0.215705469250679,0.1839095205068588,0.2128715217113495
1772650719454444000,5.533444091796875,4.21053095164299,1.7909183713763952,-0.4765543399859219,0.1940129548311233,0.3027752637863159,0.2874612212181091
1772650719464416800,5.543416748046875,4.441914526197314,2.208235436430573,0.19909973646719,0.2194485515356063,0.2899278998374939,0.4061686992645263
1772650719474388700,5.553388671875,4.788323240813613,2.3949597850471736,0.9172606831297276,0.2852125763893127,0.1580521613359451,0.5721015930175781
1772650719484361000,5.56336083984375,5.12540883128941,2.530094231680035,1.4716525152295827,0.3765568733215332,-0.0335841253399848,0.7463786005973816
1772650719494332700,5.573332763671875,5.476045977255701,2.6923347119033334,1.8645323275111612,0.4769183695316314,-0.234931081533432,0.9236780405044556
1772650719504306000,5.583305908203125,5.758983797958493,2.741055780452489,1.992309543249011,0.4868407845497131,-0.445451021194458,1.0815608501434326
1772650719514278000,5.59327783203125,6.055128890758753,2.870089572122693,1.2025079498186706,0.4971631467342376,-0.6059566736221313,1.2637912034988403
1772650719524249900,5.603249755859375,5.89433276412487,2.997137158411741,1.763639027045667,0.599316418170929,-0.6794447302818298,1.3878343105316162
1772650719534221800,5.613221923828125,6.095657885023951,2.7092355778217314,2.5177386079758404,0.7638879418373108,-0.7670376896858215,1.3797069787979126
1772650719544194800,5.62319482421875,6.451582616004347,2.344306871652603,2.87325680398196,0.941682755947113,-0.8520029187202454,1.1935003995895386
1772650719554166800,5.633166748046875,6.570138268280029,1.8878052126795053,2.9510113670527933,1.0674173831939695,-0.8371427059173584,0.8238885402679443
1772650719564139000,5.643138916015625,6.062367025318742,1.365031630897522,2.3454046037614344,1.1385791301727295,-0.6649246215820312,0.3698387742042541
1772650719574110700,5.65311083984375,4.5623172676444055,0.9719774849623442,1.556637467945367,1.1635257005691528,-0.4488502144813537,-0.0451691076159477
1772650719584083700,5.663083740234375,2.2051631893783807,0.6538257275372743,0.5371554506167769,1.1196194887161257,-0.3179555535316467,-0.3036211729049682
1772650719594056000,5.673055908203125,-0.8199374962359667,-0.0214145439505577,-0.6552553219489753,0.996311366558075,-0.2964705228805542,-0.3458034992218017
1772650719604027600,5.683027587890625,-3.894253171396256,-0.8569026605397463,-1.4986653175786138,0.8411798477172852,-0.3800106942653656,-0.1945735067129135
1772650719613999900,5.692999755859375,-6.439748970347643,-1.1403174511045218,-1.7935069265648722,0.735999584197998,-0.5183090567588806,0.0524793229997158
1772650719623972900,5.702972900390625,-7.935077544718981,-1.3209826458126306,-1.584411025533825,0.6881545782089233,-0.7083650231361389,0.2514241337776184
1772650719633944800,5.71294482421875,-8.192369467511773,-1.804671002396941,-1.452393980269134,0.6276774406433105,-0.884731113910675,0.2722680270671844
1772650719643917800,5.722917724609375,-7.451635856372118,-2.198944460994005,-1.78745858631134,0.5085593461990356,-0.9877973198890686,0.0828999653458595
1772650719653889800,5.732889892578125,-6.437396854263544,-2.3440654641121625,-2.4502841973841187,0.3245941400527954,-0.973788559436798,-0.2550735473632812
1772650719663861800,5.74286181640625,-5.603070767191052,-2.328867310458421,-2.957110852971673,0.108333483338356,-0.9065735340118408,-0.6458364725112915
1772650719673833700,5.752833740234375,-4.986210788479447,-2.0836586241692303,-2.986731207470596,-0.0797532051801681,-0.7536585330963135,-1.0140036344528198
1772650719683807000,5.762806884765625,-4.628885543051362,-1.533435894447565,-2.7311551486849783,-0.2150268703699112,-0.52654629945755,-1.324061393737793
1772650719693778700,5.77277880859375,-4.363035635271668,-0.7420370949536561,-2.385131341733038,-0.3121302425861358,-0.259716659784317,-1.5101884603500366
1772650719703751000,5.7827509765625,-4.141627511286735,-0.0432756626248359,-2.163659797123074,-0.380935400724411,-0.0030750134028494,-1.5560007095336914
1772650719713723000,5.792722900390625,-3.675224636024237,0.5280471382707357,-1.807698241263628,-0.4127345979213714,0.193620964884758,-1.4931386709213257
1772650719723695900,5.80269580078125,-2.7733301565915345,0.919526582235098,-1.2843674639903009,-0.4077973663806915,0.2784703373908996,-1.3552294969558716
1772650719733667800,5.812667724609375,-1.7247925790399312,1.1917793427944183,-0.6243088334128261,-0.3698245286941528,0.2787087261676788,-1.15609872341156
1772650719743640000,5.82264013671875,-0.6169184309005737,1.4648124400764704,0.0901562178738415,-0.3055078387260437,0.2231565117835998,-0.9184651970863342
1772650719753611800,5.83261181640625,0.6673527331084013,1.5687188047528269,0.6685432580672204,-0.2446420788764953,0.1439296305179596,-0.6810458302497864
1772650719763584800,5.842584716796875,2.022670779243112,1.5833073020756243,1.172693241791427,-0.1939743757247924,0.0687390118837356,-0.4614574909210205
1772650719773557000,5.852556884765625,3.316835560756921,1.5251207783058285,1.7073247268885372,-0.1490266919136047,-0.0027717100456357,-0.2747398912906647
1772650719783528700,5.86252880859375,4.462563346472383,1.4076163886487485,2.2104788314431905,-0.1168189644813537,-0.0777354314923286,-0.114377923309803
1772650719793501000,5.8725009765625,5.498325029081106,1.2537830867648123,2.4038227443300184,-0.2514289617538452,-0.186208039522171,-0.0130178583785891
1772650719803474000,5.882473876953125,6.4672448800385,1.2038108491107822,1.3717152003146706,-0.373225450515747,-0.1878927499055862,0.1303944289684295
1772650719813446000,5.89244580078125,6.592399784448743,0.8267378239005804,2.550966631577909,-0.4051429629325866,-0.17451111972332,0.2542335391044616
1772650719823417900,5.90241796875,7.237541270270944,0.4355196612209081,3.24658362840116,-0.4569757878780365,-0.1524103432893753,0.3047949969768524
1772650719833389800,5.912389892578125,8.125664998504519,0.6052993047773838,2.9147324314475056,-0.5840255618095398,-0.0725381150841713,0.2827131450176239
1772650719843362800,5.92236279296875,8.634895792624354,0.852934341430664,2.601642633587122,-0.7196131944656372,0.076908104121685,0.2209523022174835
1772650719853334800,5.932334716796875,8.77213159545064,0.7873726127177476,2.7609692721903323,-0.7880581021308899,0.2529285252094269,0.1289607584476471
1772650719863306800,5.942306640625,8.654847862806916,0.8844172749310731,3.063420479397476,-0.7937849760055542,0.4026796817779541,0.0549062453210353
1772650719873279000,5.952279052734375,8.168546108853816,0.8286673306584358,3.2711966761320825,-0.7592130899429321,0.4988523125648498,0.0420369282364845
1772650719883252000,5.962251953125,7.53150901903212,0.3587584931015968,3.476758411687612,-0.6862885355949402,0.4812924861907959,0.0659736841917038
1772650719893223700,5.9722236328125,6.700196726822853,-0.3342120808660984,3.553979598534107,-0.5908718705177307,0.3581150770187378,0.1167566180229187
1772650719903196000,5.98219580078125,5.383612023708224,-1.168094515824318,3.005595774677396,-0.5279245972633362,0.1357776075601577,0.2028776556253433
1772650719913168000,5.99216796875,3.46497561943531,-2.402325345379114,2.3517177324309944,-0.4569573402404785,-0.1388138979673385,0.3372051417827606
1772650719923140900,6.002140869140625,0.8150619991540908,-3.905478329765797,1.911909872496873,-0.3181557953357696,-0.3792166411876678,0.5234248042106628
1772650719933112800,6.01211279296875,-2.6210809090286493,-5.626251736292243,1.311058048647642,-0.1902491450309753,-0.4716126322746277,0.7673854231834412
1772650719943085000,6.0220849609375,-6.438696830946206,-7.386828160896897,-0.0843244429804384,-0.1751295924186706,-0.3241150677204132,1.055501103401184
1772650719953056800,6.032056884765625,-9.872976867866516,-9.027027563017606,-1.965880678267777,-0.2460182905197143,0.008159558288753,1.317326307296753
1772650719963029800,6.04202978515625,-12.536865237486362,-10.10632034431696,-3.409692123630643,-0.3256134986877441,0.3321035504341125,1.5536386966705322
1772650719973001700,6.052001708984375,-14.831298363423349,-10.795675065875052,-4.187110620827973,-0.4064114689826965,0.5203878879547119,1.845459222793579
1772650719982973700,6.0619736328125,-17.144209395337104,-10.82835568472743,-4.297890086144209,-0.4211126565933227,0.5578598976135254,2.268735647201538
1772650719992945400,6.0719453125,-19.073461301648617,-10.163633884644508,-3.928424905589223,-0.369712084531784,0.4489514231681824,2.748653650283813
1772650720002918400,6.08191845703125,-19.917765761899947,-9.721016374117136,-3.5192502304583786,-0.3082447350025177,0.2650148868560791,3.170888900756836
1772650720012890400,6.091890380859375,-19.654875872969622,-9.644387307944893,-3.372560078327357,-0.2508491575717926,0.1804182231426239,3.40594482421875
1772650720022862300,6.1018623046875,-18.177936357247827,-9.697857616847752,-3.572245907586813,-0.2277627289295196,0.1659221053123474,3.338253259658813
1772650720032834300,6.111834228515625,-15.750152745485304,-10.11071828701496,-3.857674960583448,-0.2201428711414337,0.1764239221811294,2.9730043411254883
1772650720042807300,6.121807373046875,-13.081384787130355,-10.31811132965088,-4.11524803840518,-0.2101442962884903,0.247831791639328,2.3507392406463623
1772650720052779500,6.131779541015625,-10.512247415828703,-10.051700280857084,-4.462246243347227,-0.2030033022165298,0.4080664813518524,1.5420374870300293
1772650720062751200,6.141751220703125,-8.105351109272242,-9.572737783750892,-4.944796243551373,-0.2504139542579651,0.5946072936058044,0.6431732177734375
1772650720072723500,6.151723388671875,-5.86732668377757,-8.773598160871863,-5.517966133618354,-0.3672028183937073,0.8205557465553284,-0.2714684605598449
1772650720082696400,6.161696533203125,-3.917279826718568,-7.571093425923586,-5.633837661376595,-0.497386634349823,1.1271843910217283,-1.171601414680481
1772650720092668400,6.17166845703125,-2.299620173186064,-5.940334636843204,-5.169882179266214,-0.5987508893013,1.5450438261032104,-2.024089813232422
1772650720102640400,6.181640380859375,-1.10259123930037,-4.156640956023336,-4.458077140969038,-0.6992764472961426,2.0465924739837646,-2.7765769958496094
1772650720112612600,6.191612548828125,-0.6044914955258369,-2.4346038131713867,-3.92905472792536,-0.7172907590866089,2.5395374298095703,-3.3112330436706543
1772650720122585300,6.20158544921875,-0.7070353396773338,-0.4470043473094701,-2.2497256769433616,-0.682013988494873,2.76289963722229,-3.545074939727783
1772650720132557300,6.211557373046875,-0.8828834894925356,1.077518172842264,-1.6723250174388289,-0.6908455491065979,2.6260361671447754,-3.382340669631958
1772650720142529500,6.221529541015625,-1.189832884901762,2.5225802027881143,-1.9349105165950955,-0.6887627243995667,2.1373908519744877,-2.9110398292541504
1772650720152501200,6.231501220703125,-0.9424404248327016,3.927955534511805,-1.8139065943844612,-0.6213969588279724,1.3658397197723389,-2.2258124351501465
1772650720162474500,6.241474609375,-0.5155331091344356,4.492042538934946,-1.2190560567766426,-0.5033521056175232,0.5008731484413147,-1.3960295915603638
1772650720172446500,6.251446533203125,-0.2342646829485893,4.754437337824702,-1.0352132549457251,-0.4068289995193481,-0.169572576880455,-0.5523750185966492
1772650720182418400,6.26141845703125,0.2769984937816858,5.164426836469769,-1.6145919365249572,-0.3660341501235962,-0.4798862338066101,0.1931425780057907
1772650720192390400,6.271390380859375,1.0744546936184167,5.645206612130999,-2.434906887771189,-0.4115894734859466,-0.5350285172462463,0.8281298875808716
1772650720202363400,6.28136328125,1.8940005601882932,5.969512216010689,-3.020819939555228,-0.4967533946037292,-0.4560979902744293,1.3993566036224363
1772650720212335400,6.29133544921875,2.803874347937107,6.218609726431965,-3.044681584396958,-0.5700973272323608,-0.4099847972393036,1.9174392223358157
1772650720222307300,6.301307373046875,3.9222681365251537,6.611331863933802,-2.5919638278767465,-0.6045935153961182,-0.3977832496166229,2.3696885108947754
1772650720232279300,6.311279296875,5.1211751392424105,7.018008877030015,-1.9137822422400117,-0.5785449147224426,-0.4175039529800415,2.727792739868164
1772650720242252300,6.321252197265625,6.457390425500273,7.539183791443705,-1.2411433854222298,-0.526964008808136,-0.5241031050682068,2.973797559738159
1772650720252224500,6.331224609375,7.717883239036798,7.843290072381496,-0.6827441443119198,-0.4616389274597168,-0.7316170930862427,3.0993239879608154
1772650720262196200,6.3411962890625,8.771040293082594,7.921230805674194,-0.2241167253565043,-0.3941254019737243,-0.9547322392463684,3.0894927978515625
1772650720272168400,6.35116845703125,9.536768644747138,8.02778797712028,-0.1419404368532821,-0.3432084918022156,-1.0692349672317505,2.925075054168701
1772650720282141400,6.361141357421875,9.876713131785392,8.232952237790823,-0.4093547444054857,-0.344744861125946,-1.0011998414993286,2.66472601890564
1772650720292113400,6.371113525390625,9.722962832009792,8.205840943503379,-0.7437316239118575,-0.3172969818115234,-0.7485155463218689,2.3509740829467773
1772650720302085400,6.38108544921875,9.63441477998495,8.182613212651013,-0.653795478529483,-0.2957429587841034,-0.4669514894485473,1.9831372499465945
1772650720312057600,6.3910576171875,9.387198845526576,8.530250592279433,-0.9887576471105216,-0.3053346574306488,-0.1399572640657425,1.6379104852676392
1772650720322030300,6.4010302734375,8.842523228538036,8.742565309226512,-1.361892748349905,-0.3437667191028595,0.1352343559265136,1.3517296314239502
1772650720332002300,6.411002197265625,8.100957258227467,8.94535173484981,-1.536328254888207,-0.4107618927955627,0.3054665923118591,1.1846048831939695
1772650720341974500,6.420974609375,7.156330721527338,9.049562635430693,-1.637861314561963,-0.4885424375534057,0.3754424750804901,1.1501736640930176
1772650720351946200,6.4309462890625,6.367810692340135,9.174794696730377,-1.555584890152514,-0.5646087527275085,0.3121708929538727,1.2275265455245972
1772650720361919500,6.44091943359375,5.924458437797427,9.333307096341253,-1.2496931871026753,-0.6055806875228882,0.1488844901323318,1.3448725938796997
1772650720371891200,6.45089111328125,5.800233507713675,9.471425527220964,-0.7610829370114952,-0.6127167344093323,-0.0579261593520641,1.451334834098816
1772650720381863400,6.460863525390625,5.85514875472784,9.421927629080416,-0.2577505532804876,-0.6076777577400208,-0.2624718248844147,1.502649426460266
1772650720391835400,6.47083544921875,6.047883741936087,9.26766587265134,0.200164041230455,-0.5761452317237854,-0.4571920931339264,1.4808346033096311
1772650720401808400,6.480808349609375,6.319362010991573,9.048845427072049,0.7117540387623011,-0.5211144685745239,-0.5472897887229919,1.346069574356079
1772650720411780400,6.4907802734375,6.445619908207655,8.688860022523999,1.11941377928555,-0.431134283542633,-0.6828638911247253,1.0833497047424316
1772650720421752600,6.500752685546875,6.875122501096129,8.62673352895677,1.382194947144389,-0.3309791684150696,-0.6676356792449951,0.6702587008476257
1772650720431724300,6.510724365234375,6.913835970371961,7.855746233850717,1.81466924932003,-0.1960139572620391,-0.5780961513519287,0.1384925246238708
1772650720441697300,6.520697265625,6.48218292145133,7.106839253127575,1.88269503005892,-0.0861828103661537,-0.4560138583183288,-0.4085188806056976
1772650720451669500,6.53066943359375,5.365526331919432,6.3581918001234525,1.6720102524012326,-0.0372281856834888,-0.231528177857399,-0.8123646378517151
1772650720461641200,6.54064111328125,3.450207089370489,4.472757992750406,1.7547198075309394,-0.0689584165811538,-0.2490320652723312,-0.9616894125938416
1772650720471613400,6.550613525390625,1.521475407540798,2.776236983948946,1.5761849028497934,-0.1006812080740928,-0.5054959654808044,-0.9066312909126282
1772650720481586400,6.56058642578125,-0.1435474701911211,2.153785468840599,1.6561016123905776,-0.0114083187654614,-0.8444585800170898,-0.7507199645042419
1772650720491558400,6.570558349609375,-1.4332032498478888,1.140473518449068,2.30477448720932,0.1305739283561706,-1.1314853429794312,-0.7673258781433105
1772650720501530400,6.5805302734375,-1.1158224767953158,-0.5192646968781948,1.8030644439831376,0.1716835498809814,-1.1805425882339478,-1.087934494018555
1772650720511502300,6.59050244140625,-0.9750468094050884,-1.5607593701809643,0.3220224613785744,0.0778190270066261,-0.917897880077362,-1.473050236701965
1772650720521475300,6.600475341796875,-2.1846616686195133,-2.440597500628233,-0.8852971265055238,-0.0295537654310464,-0.5920979380607605,-1.7134119272232056
1772650720531447300,6.610447265625,-4.209377105432749,-3.0160534558057783,-1.0849602324765175,-0.0905658453702926,-0.3077845275402069,-1.6549474000930786
1772650720541419300,6.620419189453125,-6.48928895406425,-3.7978444689989086,-0.2257025697758421,-0.1369565278291702,-0.0296096242964267,-1.2437926530838013
1772650720551391500,6.6303916015625,-8.066155993959308,-5.463215721777082,1.3410162567988038,-0.1801542490720749,-0.0296512953937053,-0.507209837436676
1772650720561364500,6.640364501953125,-7.298845341539383,-7.095310727897286,3.077769030484557,-0.1280138194561004,-0.8276911973953247,0.0461199283599853
1772650720571336200,6.650336181640625,-2.944475243282318,-6.874875832858681,3.852919875010848,-0.0047894297167658,-2.067941188812256,-0.2545469999313354
1772650720581308400,6.660308349609375,2.5265917765170336,-7.153569440120458,3.313583280962705,0.0600071437656879,-2.844200849533081,-1.5614030361175537
1772650720591280400,6.6702802734375,5.584247993299365,-7.842133303561806,1.1277400013431906,-0.0531883761286735,-2.532682180404663,-3.548126220703125
1772650720601253400,6.68025341796875,5.25038370295763,-6.026737493532896,-2.13478339285925,-0.2254118025302887,-0.9845115542411804,-5.655588626861572
1772650720611225300,6.690225341796875,0.9844383226066828,-3.647484980705381,-2.976381662891805,-0.2685321569442749,0.8847187161445618,-7.032840728759766
1772650720621197600,6.700197509765625,-6.20821225105822,-1.2562246346980332,-1.8178326817870136,-0.1898833960294723,2.011077404022217,-7.206238746643066
1772650720631169300,6.710169189453125,-12.93646544406414,0.4778478138625621,-0.0846782248541712,0.017929658293724,2.090261459350586,-6.2615227699279785
1772650720641142300,6.720142333984375,-16.418607302355767,1.8982786758989092,1.45491911483258,0.3009312748908996,1.581987380981445,-4.58210563659668
1772650720651114500,6.730114501953125,-17.005261527895925,1.8844371975511311,2.099583338531852,0.5179052352905273,0.5817966461181641,-2.64168643951416
1772650720661086200,6.740086181640625,-15.699982062649726,1.1823211940973997,1.8660563222080468,0.6984574198722839,-0.5594860911369324,-1.0158618688583374
1772650720671058400,6.750058349609375,-12.641081983286142,1.3477642697542904,1.190511514815688,0.8570623993873596,-1.2798094749450684,0.1267057806253433
1772650720681031400,6.760031494140625,-9.320299730730056,1.0903770698934794,0.5362040681760758,0.967102587223053,-1.562647819519043,0.8720816969871521
1772650720691003400,6.77000341796875,-6.511413692110777,0.735351333579421,-0.2177242843730375,1.0450656414031982,-1.4939085245132446,1.3183621168136597
1772650720700975400,6.779975341796875,-3.975767087000608,0.5891659161001443,-0.7122084314662963,1.105653166770935,-1.1337562799453735,1.49797260761261
1772650720710947300,6.789947265625,-1.5171172123312948,0.4175473666787147,-1.2401000138491391,1.1158908605575562,-0.6156173348426819,1.4325119256973269
1772650720720920300,6.79992041015625,0.8826666318714618,0.0960024596840143,-1.9387218915767968,1.0323634147644043,-0.1071149334311485,1.1926956176757812
1772650720730892500,6.809892578125,2.946099045091868,-0.1889332568377256,-2.530928928938508,0.8896433115005493,0.2662118673324585,0.8768274784088135
1772650720740864300,6.8198642578125,4.568530735331773,-0.2861117745637893,-2.750803559745848,0.7199791669845581,0.4539833664894104,0.5681546330451965
1772650720750836500,6.82983642578125,5.564083157148957,-0.2421031214892864,-2.5728797727003694,0.5562627911567688,0.4719213843345642,0.3198069930076599
1772650720760809500,6.8398095703125,6.044911448127031,-0.1026782841861247,-2.103645619534701,0.4276601076126098,0.3582408726215362,0.163928210735321
1772650720770781200,6.84978125,6.1804801945239305,0.1820984423816204,-1.6417090760312971,0.3345872163772583,0.1965593844652176,0.082307681441307
1772650720780753400,6.85975341796875,6.164564247989654,0.5934855328649282,-1.268482058724761,0.2559888362884521,0.029787715524435,0.0310450252145528
1772650720790725400,6.869725341796875,6.239442671102285,0.904983093097806,-1.0101400423571467,0.19340381026268,-0.0903358533978462,-0.0401042141020298
1772650720800698400,6.879698486328125,6.301123758989572,1.1511544869393109,-0.5447777621887624,0.1700393706560135,-0.1173301860690116,-0.1438788175582885
1772650720810670300,6.88967041015625,6.306210852995514,1.527967692169547,-0.3578612154683098,0.1254140585660934,-0.0768865644931793,-0.2850625514984131
1772650720820642600,6.899642578125,6.104656014993786,1.8562918840408325,-0.4118498856894672,0.0816689580678939,0.0194820463657379,-0.4255466759204864
1772650720830614300,6.9096142578125,5.635162187978625,1.9477526086419816,-0.0864509701477363,0.0794510096311569,0.1088665425777435,-0.5308035612106323
1772650720840587300,6.919587158203125,5.030208920159936,1.9786375762492416,0.5578449316957965,0.1298372149467468,0.1564529687166214,-0.5711837410926819
1772650720850559500,6.9295595703125,4.378400962185859,1.9655045384317635,1.1390958003550766,0.2036012113094329,0.1715601682662964,-0.5338640213012695
1772650720860531500,6.939531494140625,3.746099668714404,1.75566059551239,1.6333412067890167,0.2691660821437835,0.1344841718673706,-0.4045214354991913
1772650720870503400,6.94950341796875,3.2422640116363763,1.3279974930107592,2.235578347516805,0.3694413900375366,-0.1043561697006225,-0.2265256345272064
1772650720880476400,6.959476318359375,2.7317256420493123,0.5516337655633687,3.103094610399008,0.4907763302326202,-0.5870977640151978,-0.0183085221797227
1772650720890448400,6.969448486328125,2.30772047753334,-0.3753647599875926,3.57622416356802,0.622147262096405,-1.3085695505142212,0.0785641968250274
1772650720900420400,6.97942041015625,2.5714094078868626,-0.9780430686116218,3.1550890015304085,0.698584794998169,-2.0329127311706543,-0.2104702740907669
1772650720910392300,6.989392333984375,3.249811358276009,-1.194864449328184,1.3289835814386606,0.5900274515151978,-2.4024322032928467,-0.9796088337898254
1772650720920365300,6.999365234375,3.090973379972577,-1.387888774871826,-1.5924391414277257,0.3108634650707245,-2.2332723140716557,-2.0535967350006104
1772650720930337500,7.009337646484375,1.4702899947047232,-1.245551849514246,-4.275906510134041,-0.058721512556076,-1.5270494222640991,-3.17172908782959
1772650720940309200,7.019309326171875,-1.1694757410496472,-0.7494818580016493,-5.61883473803401,-0.3908645808696747,-0.6117414832115173,-4.068431377410889
1772650720950281500,7.029281494140625,-4.363793760162592,0.1471127614572644,-5.525813339987397,-0.5934447050094604,0.2367556095123291,-4.518993854522705
1772650720960254500,7.03925439453125,-7.471478036439418,1.2034089903116223,-4.4229690027087925,-0.6780533194541931,0.8316069841384888,-4.43565845489502
1772650720970226200,7.04922607421875,-9.537783959269523,2.039888748286665,-2.795294151118397,-0.6088128089904785,1.0337326526641846,-3.903451681137085
1772650720980198400,7.059198486328125,-10.142081393527985,2.429554420827329,-0.9999496338628232,-0.5505058169364929,1.141437530517578,-3.15344500541687
1772650720990171100,7.069171142578125,-9.657163202887771,2.299119237926602,0.0962326151780784,-0.4326545596122741,0.8129141926765442,-2.1769282817840576
1772650721000144100,7.07914404296875,-8.594726863843203,1.905360743114352,0.7408792301554232,-0.2887234985828399,0.1691998988389969,-1.1061201095581057
1772650721010116000,7.0891162109375,-7.205107904177904,1.2032166826099158,1.160889991272986,-0.2004503607749939,-0.4628886878490448,-0.2367041856050491
1772650721020088300,7.09908837890625,-5.013385795652866,0.6975646237596869,1.2478779543742538,-0.1598781645298004,-0.8989064693450928,0.2760033309459686
1772650721030060000,7.10906005859375,-2.539628952744603,0.3807438226774334,1.1797975208386775,-0.1152449175715446,-1.0489270687103271,0.4941310584545135
1772650721040033000,7.119032958984375,-0.5581669667243957,0.0464595533579587,1.2257243555594235,-0.0558028891682624,-1.0161004066467283,0.4823143482208252
1772650721050005200,7.129005126953125,1.107096149504185,-0.2695721431732177,1.347876790218055,0.0425477214157581,-0.9695303440093994,0.3543323576450348
1772650721059977000,7.13897705078125,2.292556810671091,-0.4381374425038695,1.7705220645576714,0.189910814166069,-0.8751817345619202,0.1808639168739318
1772650721069949200,7.14894921875,3.024155513718724,-0.6977706677258014,2.232964804017544,0.3363969326019287,-0.7114419937133789,0.0013291933573782
1772650721079922200,7.158922119140625,3.4817227560967203,-1.0203148148909211,2.401548661918193,0.4573936760425567,-0.5348163843154907,-0.16243577003479
1772650721089894100,7.16889404296875,3.908299232405424,-1.3067623972803353,2.2582177570872006,0.5237951874732971,-0.3654879331588745,-0.3055510520935058
1772650721099866000,7.1788662109375,4.150087296596169,-1.5360080830231309,1.9489277899011967,0.4945749640464782,-0.2755817472934723,-0.461484432220459
1772650721109838000,7.188838134765625,4.718447740554809,-1.3988409615188837,1.1766175756283104,0.3586006164550781,-0.1855261027812957,-0.5752761363983154
1772650721119811000,7.19881103515625,4.447184575554728,-1.6894000708803534,1.4790084309503435,0.2041439414024353,-0.1027345433831214,-0.5795465111732483
1772650721129783000,7.208782958984375,4.1534675866842266,-2.4943086325496435,1.797634527888894,0.0715939551591873,-0.1200044751167297,-0.4813585579395294
1772650721139755000,7.218755126953125,3.978745226028561,-2.500924251297116,2.0723601083025334,-0.0405943691730499,-0.1382149010896682,-0.3003773093223572
1772650721149727200,7.228727294921875,3.737690152287483,-2.6492244689732787,2.322028696610033,-0.2118993997573852,-0.0107851969078183,-0.1315557956695556
1772650721159700200,7.2387001953125,3.754707922583818,-3.0031773153588173,2.452099722373485,-0.3168103694915771,0.0986853763461113,-0.0436509698629379
1772650721169672000,7.248671875,4.213797259962559,-2.24027454250902,3.4120307957112788,-0.3209389448165893,0.079415313899517,-0.0641744881868362
1772650721179644200,7.25864404296875,4.711316573500633,-2.368622982263565,3.996144981379807,-0.2444231361150741,0.2176419049501419,-0.1415275931358337
1772650721189616000,7.2686162109375,4.462314340147376,-2.983259731967747,4.1532255946218966,-0.1357910484075546,0.4167430102825165,-0.2124038338661193
1772650721199589000,7.278589111328125,3.7848289200812575,-2.832867510448396,3.68293915592432,-0.0471695736050605,0.5912516713142395,-0.1979247480630874
1772650721209561000,7.28856103515625,2.564136202013493,-2.367100887262821,2.621483644610643,-0.0270298887044191,0.7764105200767517,-0.072153203189373
1772650721219533300,7.298533203125,1.145426756942272,-2.142428793045878,1.2573080460205674,-0.0457636304199695,0.9424008131027222,0.1286131888628006
1772650721229505000,7.308505126953125,-0.2791699926018715,-2.229676868388057,0.1180117546573281,-0.0621910206973552,1.1014283895492554,0.3738073706626892
1772650721239478000,7.31847802734375,-2.043696031615138,-2.2858882926926016,-1.085371078299731,-0.1493858397006988,1.4111194610595703,0.6578316688537598
1772650721249450000,7.328449951171875,-4.222209698998928,-2.166365548950433,-2.319654076433181,-0.2795020937919616,1.661060094833374,0.9980459809303284
1772650721259422000,7.338421875,-6.044058046168089,-2.3901383562400937,-2.6563842776000497,-0.4202823936939239,1.7452833652496338,1.355974555015564
1772650721269394200,7.348394287109375,-7.347530169731378,-3.029178310316801,-1.651700600952655,-0.4938316941261291,1.6923874616622925,1.6168421506881714
1772650721279367000,7.358366943359375,-8.040140678215026,-3.338175578166544,-0.0550036194173619,-0.3726594448089599,1.440244197845459,1.6946872472763062
1772650721289339100,7.368339111328125,-8.707533743333816,-3.66111778473854,1.6879066174522042,-0.0827292427420616,1.0183378458023071,1.6115680932998655
1772650721299311000,7.37831103515625,-10.263149905407428,-4.3658086071163416,2.6783926957905293,0.2034724205732345,0.7126350998878479,1.45403254032135
1772650721309283000,7.388282958984375,-12.67901862297058,-4.869499010504782,2.098342398560047,0.3404112160205841,0.5057253837585449,1.3377035856246948
1772650721319256000,7.398256103515625,-14.98329042135477,-4.663255137903988,0.5202072384253144,0.37441286444664,0.331323504447937,1.334523320198059
1772650721329228300,7.408228271484375,-17.124382412838933,-4.1441149441882965,-1.3156691957049071,0.3579719364643097,0.3472086191177368,1.4663031101226809
1772650721339200000,7.418199951171875,-18.640346948003767,-3.6794355317175382,-2.9278724835276604,0.2335237562656402,0.4957752227783203,1.6556240320205688
1772650721349172200,7.428172119140625,-18.486902937698364,-3.584009995138645,-3.831331143537164,0.0459040366113185,0.5912219285964966,1.7578887939453125
1772650721359145200,7.438145263671875,-16.81832558235526,-3.595775543995201,-3.695254447618127,-0.0809111669659614,0.6153392791748047,1.6998018026351929
1772650721369117000,7.448116943359375,-14.440470661365984,-3.264275644697249,-2.760902636694908,-0.1230627298355102,0.5884293913841248,1.5049116611480713
1772650721379089200,7.458089111328125,-11.963932078784705,-2.8722178163230416,-1.6650396827362477,-0.0862069800496101,0.528045654296875,1.2202898263931274
1772650721389060900,7.468060791015625,-9.613265608972313,-2.512534025070071,-0.7424354466214775,0.0499465204775333,0.4940141439437866,0.9023181796073914
1772650721399034000,7.4780341796875,-7.426577402961254,-2.13657860571295,-0.0297432456596521,0.2241191118955612,0.4537809789180755,0.5664560198783875
1772650721409006000,7.488006103515625,-5.110799875700473,-1.97238406881243,0.2002732372259721,0.3626593351364136,0.3385569155216217,0.2252450287342071
1772650721418978000,7.49797802734375,-2.8166905748903748,-1.872426734022796,-0.0782360173116903,0.4290447533130646,0.1237687021493911,-0.080229140818119
1772650721428950000,7.507949951171875,-0.7706991258144378,-1.7042054258242247,-0.557550150000304,0.4080376923084259,-0.0645928606390953,-0.3678833246231079
1772650721438923000,7.517923095703125,0.7520978857189416,-1.577017262020707,-1.2259088452808558,0.3102362751960754,-0.0879778116941452,-0.6475613117218018
1772650721448895000,7.52789501953125,1.5501508824050425,-1.3518386795863508,-2.1325952351652084,0.1389611512422561,0.0697360858321189,-0.8482463955879211
1772650721458867200,7.5378671875,1.6305460231125353,-0.9396484560266136,-2.926485120822489,-0.0442603304982185,0.2488488554954528,-0.9038771390914916
1772650721468839200,7.547839111328125,1.6542980700999497,-0.4705412902414798,-3.086540658222139,-0.2087389677762985,0.317143052816391,-0.7932620644569397
1772650721478812000,7.55781201171875,1.8548516221046447,-0.0829661602392792,-2.726239319592714,-0.3348612189292907,0.3024773001670837,-0.5513133406639099
1772650721488784100,7.5677841796875,2.0346201602339744,0.3909934140130877,-2.286517238245904,-0.4038940966129303,0.2695568203926086,-0.2375643700361251
1772650721498756000,7.577756103515625,2.4119477447271347,0.9437786876991392,-1.7532681474179028,-0.4152623116970062,0.2363093793392181,0.0773038268089294
1772650721508728000,7.58772802734375,3.02610255613327,1.5162264009714126,-1.2554432750619948,-0.3768408298492431,0.2512957453727722,0.3875405192375183
1772650721518701000,7.597701171875,3.5117864704489707,2.1001862728610634,-0.9456742191221564,-0.3199653029441833,0.2433682978153228,0.7216809391975403
1772650721528673300,7.60767333984375,4.107180467283725,2.617474408969283,-0.8844893172539771,-0.2884994745254516,0.2253322452306747,1.0691914558410645
1772650721538645000,7.61764501953125,4.677520686882734,3.08789002700448,-1.0266063162505623,-0.2802045047283172,0.1886879503726959,1.4058080911636353
1772650721548617200,7.6276171875,5.30387213203907,3.481203116136789,-1.265685559874028,-0.3067165911197662,0.1158988997340202,1.7154759168624878
1772650721558590200,7.637590087890625,6.04662818891704,3.933459684886038,-1.535966874229908,-0.3580833971500397,0.0054695922881364,1.98464834690094
1772650721568562000,7.64756201171875,6.655167498528957,4.32133116748631,-1.672433592379838,-0.4335004389286041,-0.1737478822469711,2.202887773513794
1772650721578534100,7.6575341796875,7.232409168079495,4.65794563331902,-1.8127867965742943,-0.5163213014602661,-0.3825996220111847,2.352845430374145
1772650721588505900,7.667505859375,7.682695605799555,5.088118088293076,-1.5732292679145932,-0.5404996275901794,-0.5025861859321594,2.400831937789917
1772650721598479000,7.67747900390625,8.051760388860107,5.541330058071017,-1.0358788061823696,-0.510432779788971,-0.5055844187736511,2.3331310749053955
1772650721608451000,7.687451171875,8.422022857272625,5.901304941225051,-0.6626677901625633,-0.4628615379333496,-0.3882944881916046,2.1617746353149414
1772650721618423000,7.697423095703125,8.623777017238735,6.261252351850271,-0.6694497053876519,-0.429093450307846,-0.1683101952075958,1.9381099939346316
1772650721628395000,7.70739501953125,8.540770232728123,6.507405625513195,-0.8894083612166345,-0.4180057048797607,0.0764090940356254,1.7159240245819092
1772650721638368300,7.7173681640625,8.178777580010891,6.701435328707099,-1.1082130247049031,-0.420267254114151,0.3144882321357727,1.556259274482727
1772650721648340000,7.727340087890625,7.622760484796762,6.947052595797181,-1.194218406509608,-0.4026242196559906,0.5333724021911621,1.46196711063385
1772650721658312200,7.737312255859375,7.169058685675263,7.324543846419453,-1.194314121969044,-0.3780275285243988,0.6851270198822021,1.438299298286438
1772650721668284200,7.7472841796875,6.935161082473397,7.557510306251048,-1.2391764692634344,-0.3719853460788727,0.6855988502502441,1.4881250858306885
1772650721678257000,7.7572568359375,6.772539493978023,7.671057190454006,-1.299717154943943,-0.3953561782836914,0.5870016813278198,1.578422784805298
1772650721688229000,7.76722900390625,6.63735127133131,7.707700867718458,-1.3873457540363072,-0.4388933479785919,0.2790883183479309,1.7138359546661377
1772650721698201000,7.777201171875,6.655586600723862,7.953028211951255,-1.3419994226172565,-0.5011333227157593,0.0179901309311389,1.7958840131759644
1772650721708173000,7.787173095703125,6.730232968646288,7.710497220438718,-1.0836596712719648,-0.5604478120803833,-0.1532208621501922,1.7887953519821167
1772650721718146000,7.79714599609375,6.915396059295535,7.51103146367073,-0.7719046291466802,-0.5978572368621826,-0.220068871974945,1.6971032619476318
1772650721728118300,7.8071181640625,7.010438734036684,7.361568631955981,-0.3622012539666145,-0.6050205826759338,-0.2303559929132461,1.5880893468856812
1772650721738090000,7.817090087890625,6.741405520045757,6.320887028601765,0.3891510740820318,-0.6294888854026794,-0.2384304255247116,1.456739068031311
1772650721748062200,7.827062255859375,6.556165857028961,4.968701435273886,1.0164047287750988,-0.6448162794113159,-0.4234515428543091,1.277556538581848
1772650721758035200,7.83703515625,6.688408673873544,4.328472271412611,1.452360370260477,-0.6364877820014954,-0.8321788907051086,0.9473280906677246
1772650721768007200,7.847007080078125,7.126634671443701,3.293350640273094,1.950462452122569,-0.5276051759719849,-1.4811457395553589,0.3679416477680206
1772650721777979100,7.856979248046875,7.695261657384037,2.374260111367702,2.548182261556387,-0.3690498769283294,-1.9519963264465328,-0.5413960814476013
1772650721787952000,7.8669521484375,7.826769145691395,1.6984411632090806,2.726893984109163,-0.1911273002624511,-1.8113794326782229,-1.752496361732483
1772650721797924000,7.876924072265625,6.990716965478658,1.1140274100720882,2.0680289472304283,-0.017766423523426,-1.3116986751556396,-2.985583543777466
1772650721807896000,7.88689599609375,5.05272996404767,1.2508113774776457,0.4385453657176345,0.0269421860575675,-0.619925320148468,-3.966229677200317
1772650721817868000,7.896867919921875,2.491244568803906,1.1838690080612897,-1.0176942571289838,-0.1255035400390625,0.1339287757873535,-4.750829219818115
1772650721827841000,7.906841064453125,0.2866431049615144,0.746845372018218,-1.6935788178697226,-0.2456655651330948,0.4940027892589569,-5.155426025390625
1772650721837813200,7.916813232421875,-2.749400414949656,0.461907901930809,-1.5365236313298345,-0.427979439496994,0.7011545896530151,-4.86864709854126
1772650721847785000,7.926784912109375,-6.766570356440544,-0.5088081847935915,-1.1436454264834524,-0.5881745219230652,0.820137619972229,-4.086683750152588
1772650721857757200,7.936757080078125,-7.257028061029315,-2.2548095560789108,-0.1661751162584871,-0.6662048697471619,0.0183474235236644,-3.3126628398895264
1772650721867730200,7.946730224609375,-5.319340919327735,-2.3764105673998595,0.5601536835622042,-0.6600341200828552,-1.085472822189331,-2.9485528469085693
