time,seconds_elapsed,acc_z,acc_y,acc_x,gyro_z,gyro_y,gyro_x
1772650554870376400,0.06637646484375,0.6219125859260559,-0.0920575214505195,0.8080350231267511,0.2600548863410949,-0.0056685376912355,-0.1232621222734451
1772650554880348400,0.076348388671875,0.7157745264500379,-0.1122109594240784,1.0572190427877008,0.2685088217258453,-0.0285283140838146,-0.2358001172542572
1772650554890321400,0.0863212890625,0.613570289516449,-0.1195633680135011,0.9104840286016463,0.256678432226181,-0.1166604980826377,-0.3086239993572235
1772650554900293400,0.09629345703125,0.4156067540049553,-0.2314128006488084,0.6361651292927563,0.2403814643621444,-0.1832850575447082,-0.3563039004802704
1772650554910266400,0.106266357421875,0.4239981502532958,-0.2976476063176989,0.5286037492401897,0.2035371214151382,-0.2226987183094024,-0.3900823891162872
1772650554920238600,0.116238525390625,0.5368599748015404,-0.2487389062419533,0.5020508194878697,0.1567112952470779,-0.2873435020446777,-0.4255586266517639
1772650554930211300,0.12621142578125,0.6565028377920389,-0.1602118970051407,0.5724442061409354,0.1138669475913047,-0.3630408942699432,-0.468371033668518
1772650554940183300,0.136183349609375,0.6605033056050539,-0.0926370749041438,0.6775080702893436,0.0963313654065132,-0.4471344947814941,-0.4968445003032684
1772650554950156500,0.146156494140625,0.4086877683967351,-0.0029389760613441,0.745665660714358,0.098708376288414,-0.5187659859657288,-0.4793198406696319
1772650554960128300,0.156128173828125,0.0521428596913814,0.1393082251861691,0.6727491853244603,0.109901376068592,-0.5629574060440063,-0.4105152189731598
1772650554970101200,0.166101318359375,-0.239207400047779,0.2874170119434595,0.5465640610836446,0.110552117228508,-0.5432830452919006,-0.2893173694610595
1772650554980073500,0.176073486328125,-0.4892079967886209,0.2316936634168028,0.3731524907656013,0.0908162295818328,-0.4288132190704345,-0.1433936953544616
1772650554990046200,0.186046142578125,-0.5908411558359861,0.1847021951392292,0.1505782456107437,0.0459209643304348,-0.2682425081729889,-0.0004634610086213
1772650555000018400,0.196018310546875,-0.5281687188237906,0.1119859184965491,-0.1010264253258705,-0.039712980389595,-0.1645960211753845,0.123871274292469
1772650555009991400,0.205991455078125,-0.3280108881384134,0.0653095075175166,-0.2287982342362403,-0.139917179942131,-0.1556941121816635,0.1952061355113983
1772650555019963400,0.21596337890625,-0.1313303781747818,0.0599783756226301,-0.095159140727669,-0.1840854287147522,-0.1623472273349762,0.2456810176372528
1772650555029936400,0.225936279296875,-0.0612894582211971,0.079100424721837,0.2547587510533631,-0.1811530292034149,-0.1162358075380325,0.2979756891727447
1772650555039908400,0.235908447265625,0.1050485204488038,0.1733028492465615,0.5631741273619234,-0.1556887030601501,-0.0374358035624027,0.3276901841163635
1772650555049881300,0.24588134765625,0.4291016108721494,0.3667243574142456,0.7332301036417483,-0.1304660439491272,-0.014578721486032,0.3350326716899872
1772650555059853300,0.255853271484375,0.7079904484450816,0.4662856786236167,0.8695946765914558,-0.103292740881443,-0.0233106929808855,0.3133947551250458
1772650555069826300,0.265826416015625,0.9664192663133144,0.3666074530363082,0.9410765891335904,-0.0932632535696029,-0.0361928306519985,0.2778802514076233
1772650555079798500,0.275798583984375,1.0020388612270354,0.1680696247681975,0.8867876573242247,-0.0814750418066978,-0.0070629082620143,0.2692974209785461
1772650555089771300,0.285771240234375,0.7830927434414625,0.1429065419390797,0.8093969591297209,-0.0729777663946151,0.0280326176434755,0.2590067386627197
1772650555099743500,0.295743408203125,0.8128899158120155,0.181685185405612,0.75740680578202,-0.0876491144299507,0.0045707020908594,0.1925331801176071
1772650555109716500,0.305716552734375,0.8427443713277578,0.161324826683104,0.7535641588792205,-0.0613674968481063,0.0841722711920738,0.1149783954024314
1772650555119688200,0.315688232421875,0.5651315450400114,0.3027253479734063,0.9231750217400492,0.0555894821882247,0.286949098110199,0.0575920715928077
1772650555129661400,0.325661376953125,0.257283154964447,0.6389855935409665,1.0208595892921088,0.2112145572900772,0.487063854932785,0.025325009599328
1772650555139634400,0.335634521484375,-0.0275830034524202,0.8602668762758374,0.9230668851904572,0.3607963025569916,0.6454843878746033,0.0183118414133787
1772650555149606400,0.3456064453125,-0.1995440827012062,1.0589555111914872,0.7244444473788142,0.5443383455276489,0.6446081399917603,-0.0370002128183841
1772650555159579400,0.355579345703125,-0.0192296011269092,1.6127911707133054,0.5649032892420888,0.7716549038887024,0.4260076284408569,-0.1252709478139877
1772650555169551400,0.36555126953125,-0.0617243425071239,1.588817882190645,0.9573856266386808,1.00523841381073,0.2353397458791732,-0.2171614468097686
1772650555179524400,0.3755244140625,-0.1710778666734695,1.1289774341836571,1.4727400182053445,1.2050915956497192,0.147803246974945,-0.3027615547180176
1772650555189496300,0.385496337890625,-0.2538601947784423,0.789389797759056,1.489680923873186,1.3591363430023191,0.1608694195747375,-0.3757917582988739
1772650555199469300,0.39546923828125,-0.3411550318717956,0.5499588180884719,1.3374644095361232,1.504701018333435,0.3134137094020843,-0.4356369972229004
1772650555209441500,0.405441650390625,-0.5008867441445589,0.2204918859228491,1.1705424934983253,1.648210048675537,0.5612760782241821,-0.4957190752029419
1772650555219414500,0.41541455078125,-0.6677431937307119,-0.2346060437321663,0.7358037535220384,1.7077114582061768,1.1299078464508057,-0.4278990030288696
1772650555229386200,0.42538623046875,-1.1330524285376071,-1.1613564397409557,0.323096374220401,1.5580289363861084,1.6926144361495972,-0.204024851322174
1772650555239359500,0.435359375,-1.3735428541332482,-0.7541390361577271,-1.1713890273250638,1.0901362895965576,1.6428359746932983,0.0998841598629951
1772650555249331500,0.44533154296875,-1.2130150230467318,-0.2934405100166797,-2.503518943965435,0.5568509697914124,1.450535774230957,0.5224080085754395
1772650555259304200,0.45530419921875,-1.1420821226894855,-0.5498582803234457,-1.839956396920234,0.085834190249443,1.3268409967422483,1.0198713541030884
1772650555269276400,0.4652763671875,-0.8402841186940669,-0.5427168841361999,-0.9022530836120248,-0.353798359632492,1.1797174215316772,1.4024730920791626
1772650555279249400,0.47524951171875,0.1799433101743459,-0.1640747099131345,-0.0662903352484107,-0.5749536752700806,0.810499370098114,1.491117238998413
1772650555289221400,0.485221435546875,1.4913380434304475,-0.1536900940209627,0.9789749426342548,-0.6488543152809143,0.4504194557666778,1.3534183502197266
1772650555299194400,0.4951943359375,2.245021152514219,0.0996785178482532,1.4571594411052762,-0.5660638809204102,0.2854744493961334,1.107850432395935
1772650555309166300,0.505166259765625,2.554620185649395,0.4315817372500896,1.9447307766027748,-0.3505663275718689,0.1017696484923362,0.7543798685073853
1772650555319139600,0.5151396484375,2.539004098844528,0.4726245262563228,2.352494269761443,-0.0579027719795703,-0.0578024312853813,0.4325529038906097
1772650555329111300,0.525111328125,1.7490110744953151,0.5465075085908174,2.2635367601528764,0.1003394499421119,-0.0506433993577957,0.2051035016775131
1772650555339084300,0.535084228515625,0.7921341280311346,0.8931418486565351,1.1337352962352334,0.1444374173879623,0.0889776051044464,0.1331920325756073
1772650555349056500,0.545056396484375,-0.1631903282940387,0.8047060248345136,0.2920215831294656,0.0803494751453399,0.2431473284959793,0.1796637177467346
1772650555359029200,0.555029296875,-0.6241103882312774,0.447538015794754,-0.2338032029166817,-0.0520724765956401,0.273633062839508,0.2807628810405731
1772650555369001500,0.56500146484375,-0.4499778101623058,0.012659575086832,-0.2857663221269846,-0.2127488702535629,0.1596637070178985,0.3427492678165436
1772650555378974500,0.574974365234375,0.081741294619441,-0.2318114445775747,-0.0861349995337426,-0.3770310282707214,-0.0248222593218088,0.3463274836540222
1772650555388946200,0.5849462890625,0.6356950275629758,-0.1821025340348482,0.0729918787136673,-0.5478768348693848,-0.2854446768760681,0.2938965260982513
1772650555398919400,0.59491943359375,1.0014993475228549,0.0449415500104427,0.0582246638230979,-0.7090135216712952,-0.6401712894439697,0.2757822573184967
1772650555408891400,0.604891357421875,0.8287187685847281,0.0487047019362449,-0.0407749318502843,-0.8628600239753723,-0.9159817099571228,0.3045941591262817
1772650555418864400,0.614864501953125,0.5702887816727161,0.0025900164932012,-0.2217848483428358,-0.9964199662208556,-1.0721321105957031,0.3540163040161133
1772650555428836400,0.62483642578125,0.5234036963790655,0.051738955065608,-0.2700884221322834,-1.1008282899856567,-1.1682013273239136,0.3826946020126343
1772650555438809300,0.634809326171875,0.6789952401071786,0.1752566136628389,-0.4990113056614995,-1.2228604555130005,-1.4098480939865112,0.3782982528209686
1772650555448781600,0.644781494140625,0.8261281675696373,0.3418815925806761,-0.9679609427973628,-1.3743716478347778,-1.7579175233840942,0.4039625823497772
1772650555458754300,0.65475439453125,0.9099977063894272,0.402432799655199,-1.17795174684152,-1.5109974145889282,-2.178205966949463,0.4458000361919403
1772650555468726300,0.664726318359375,1.2057318803012371,0.6326315483391285,-1.0538444517880678,-1.4897048473358154,-2.5099215507507324,0.4294862449169159
1772650555478699500,0.674699462890625,1.2391466586470603,1.2232605227291584,-0.4360086137816309,-1.230321764945984,-2.1211087703704834,0.2480770647525787
1772650555488671200,0.684671142578125,0.4214174861103296,2.323262330058217,0.7268173139899968,-0.6580944061279297,-1.4453829526901243,-0.4607381522655487
1772650555498644200,0.694644287109375,2.080393484893441,4.259306380727887,1.684550731153041,0.4160833656787872,-0.6702550053596497,-1.2365787029266355
1772650555508616400,0.704616455078125,1.560983826586604,4.3598172577470535,2.7246666634485126,1.1634142398834229,0.3576816916465759,-1.6276170015335083
1772650555518589400,0.71458935546875,-0.5600993960916996,0.3194529031515121,1.3410767548143865,1.2813999652862549,0.6530693769454956,-1.7484216690063477
1772650555528562400,0.7245625,-0.2647837398529052,-0.0093897596359252,-1.004079281013459,0.9959530234336852,0.1737430989742279,-1.721247673034668
1772650555538534400,0.734534423828125,-0.0954652840673923,0.2921031239330768,-1.83295207111612,0.7184337377548218,-0.3392152786254883,-1.5263136625289917
1772650555548507400,0.74450732421875,-0.8967781593322753,-0.1569283452898263,-1.7796490816041826,0.6003536581993103,-0.8853569626808167,-1.2161511182785034
1772650555558479400,0.754479248046875,-1.228300270462036,0.1571688760474324,-2.0958754239246247,0.5994154810905457,-1.4491981267929075,-0.846248209476471
1772650555568452400,0.764452392578125,-1.2940870401024818,0.650213674519956,-1.7257381893269716,0.6706557273864746,-1.8154693841934204,-0.4829603731632232
1772650555578424600,0.774424560546875,-1.379804252615571,1.2635606766745446,-1.066032317709923,0.7418782114982605,-1.832909107208252,-0.1922110766172409
1772650555588397300,0.784397216796875,-1.1885989591926336,2.022675455418229,-0.8873192069176584,0.8099773526191711,-1.5836169719696045,-0.0074066291563212
1772650555598369300,0.794369384765625,-0.6507622483134269,2.5150913083374498,-0.7758220217861235,0.8630427122116089,-1.1032825708389282,0.0807003229856491
1772650555608342500,0.804342529296875,-0.4147591972649097,2.93909033537358,-0.7793245500143617,0.9036215543746948,-0.5857744216918945,0.0964382961392402
1772650555618314200,0.814314208984375,-0.5929390048980713,2.936830573748052,-0.9121387370061128,1.1794935464859009,-0.442178338766098,0.06191973015666
1772650555628287200,0.824287353515625,-0.7264788758158683,3.0857685048058627,-0.2666416426792741,1.6143577098846436,-0.5306670069694519,0.0086200078949332
1772650555638259500,0.834259521484375,-1.1361433802902698,2.676311213341356,-0.1925999809180386,1.9122737646102903,-0.585568368434906,-0.0155825335532426
1772650555648232400,0.844232421875,-1.6134902588933706,2.033177267949283,-1.0769709872882811,1.839978098869324,-0.7117428779602051,-0.0608605928719043
1772650555658204400,0.854204345703125,-1.4604945768773554,1.137903375700116,-1.9934072753578425,1.4320074319839478,-1.0338332653045654,-0.1666818261146545
1772650555668177400,0.864177490234375,-0.6942571066468953,-0.1574070687174797,-2.363929271489382,0.9851568937301636,-1.330807328224182,-0.3007415235042572
1772650555678149400,0.8741494140625,0.3109796738386154,-0.663041299650073,-2.345097437508404,0.7129672169685364,-1.5871962308883667,-0.4354311525821686
1772650555688122400,0.884122314453125,1.177316517677903,0.0805818954512476,-2.2474878348886964,0.6052367091178894,-1.7904052734375,-0.5357285141944885
1772650555698094300,0.89409423828125,1.6317285108953714,0.6941013315632939,-1.590100030955672,0.5913755297660828,-2.0251832008361816,-0.6170920729637146
1772650555708067300,0.9040673828125,1.7832950368911027,1.000860465097427,-0.9224687001015992,0.6105479598045349,-2.1976304054260254,-0.6661962270736694
1772650555718039300,0.914039306640625,1.8500164570331568,1.5314695628106594,-0.9873649506431073,0.5426852703094482,-2.252998352050781,-0.706135630607605
1772650555728012300,0.92401220703125,1.682597112867236,1.5948668069660663,-0.7803375995144247,0.5716058611869812,-1.6288095712661743,-0.9008873105049132
1772650555737984500,0.933984619140625,1.7156313674628734,0.8697443141952157,0.1169965862654149,0.6277762055397034,-0.1655167788267135,-1.482693433761597
1772650555747957500,0.94395751953125,2.902558009529113,1.285927406783402,0.2220826622456312,0.7399863004684448,0.1121221333742141,-1.6070382595062256
1772650555757929200,0.95392919921875,3.627442894151807,1.6273136170625686,0.5523332921348512,0.7441104650497437,0.1081580147147178,-1.7790135145187378
1772650555767902500,0.96390234375,4.324430887067318,0.3500631454706192,0.7517851665079593,0.6968356370925903,-0.1555974781513214,-1.8636103868484497
1772650555777874400,0.97387451171875,4.578019279167056,-0.4053369966641068,1.1603453630022704,0.6454308032989502,-0.408966064453125,-1.8471758365631104
1772650555787847200,0.98384716796875,4.771491348478198,-0.5792044940561056,1.294381639134884,0.6152516007423401,-0.5419295430183411,-1.8083399534225464
1772650555797819400,0.9938193359375,5.027691968902945,-0.763089527593553,1.3462215703569351,0.5858359336853027,-0.7048265933990479,-1.7445282936096191
1772650555807792400,1.00379248046875,5.388752309206128,-1.1114780178502202,1.5507967790931465,0.4640974402427673,-0.904412567615509,-1.6519179344177246
1772650555817764400,1.013764404296875,5.615134714472293,-1.6710010753586888,1.9076582064017653,0.1410826295614242,-0.7460982799530029,-1.451587438583374
1772650555827737300,1.0237373046875,5.470056965973973,-2.9693633085623383,2.4565888504862783,-0.2232191115617752,-0.579466700553894,-1.23911714553833
1772650555837709300,1.033709228515625,5.5986891911059615,-4.05366515019536,3.549799097979069,-0.4584444165229797,-0.6095532178878784,-1.1377815008163452
1772650555847681800,1.043681884765625,5.171685429295898,-5.5638546090900896,3.965019483014941,-0.5436136722564697,-0.4669822454452514,-1.024062991142273
1772650555857653800,1.05365380859375,4.387459297910333,-6.4556088027805085,4.005785793167353,-0.490322470664978,0.0271206907927989,-0.7721192240715027
1772650555867627000,1.063626953125,3.5507319949150085,-6.944916752812266,4.540515185680985,-0.4493084847927093,0.2456061542034149,-0.5260987877845764
1772650555877598700,1.0735986328125,2.9978976213902238,-5.974940670800208,3.6845515595570206,-0.6204589009284973,0.1629605442285537,-0.39302459359169
1772650555887571700,1.08357177734375,2.579804895788431,-3.874567935456336,1.4404022214412688,-0.8087939023971558,0.2560570836067199,-0.1109806820750236
1772650555897544000,1.0935439453125,0.9871043269455432,-3.716904553890228,1.793790127420425,-0.8075200915336609,0.3803377449512481,0.2069797068834304
1772650555907516700,1.1035166015625,-0.9810849205255509,-4.324876000486314,3.0309155093729494,-0.6384117603302002,0.3457764983177185,0.5664348006248474
1772650555917489000,1.113489013671875,-3.257546920964121,-4.931080437409878,3.694133626894653,-0.4242206215858459,0.2117609232664108,1.036304593086243
1772650555927462000,1.1234619140625,-6.020860710453987,-5.604481218510866,3.8362159929692745,-0.1199621260166168,0.0103280367329716,1.6071938276290894
1772650555937433600,1.13343359375,-9.485210891467332,-6.601294454044103,3.87128613730669,0.234474778175354,-0.197555661201477,2.27356481552124
1772650555947406800,1.14340673828125,-13.948614195895194,-7.907561761283874,3.0718966313198206,0.5308514833450317,-0.5427711009979248,3.0718672275543213
1772650555957378800,1.15337890625,-18.745649735474583,-9.52070481417477,0.8016942757979035,0.5786563158035278,-0.905294954776764,4.008729934692383
1772650555967351800,1.163351806640625,-23.271831859898565,-11.439729340982437,-2.597932673153281,0.3623766005039215,-1.1173131465911863,4.857882499694824
1772650555977324800,1.17332470703125,-26.208897703707212,-12.841263194847109,-6.19107290020883,0.0427479855716228,-1.0767532587051392,5.354619979858398
1772650555987296800,1.183296875,-26.99960150667429,-13.718118510091305,-9.22055457738638,-0.2397216856479644,-0.6469026207923889,5.407655239105225
1772650555997269800,1.193269775390625,-27.18263167694807,-13.707816896307468,-11.495659902518987,-0.4930817484855652,0.1380944848060608,5.299451351165772
1772650556007241700,1.20324169921875,-28.104172521615027,-12.727178550505638,-13.124976091575622,-0.7163816690444946,0.9160424470901488,5.393343448638916
1772650556017214700,1.213214599609375,-29.17899604854584,-10.474363383114335,-13.42433313215971,-0.8298102021217346,1.4051344394683838,5.8081583976745605
1772650556027187000,1.22318701171875,-28.912187524867058,-7.77888452796638,-12.285367680186033,-0.857508659362793,1.5159813165664673,6.343938827514648
1772650556037159700,1.23315966796875,-26.119355964469907,-5.55055673609972,-10.16697150463462,-0.907420575618744,1.1148567199707031,6.705909252166748
1772650556047132000,1.2431318359375,-21.51612684072256,-4.642305581116676,-7.731448823052644,-0.9542927742004396,0.4200670421123504,6.697850704193115
1772650556057105000,1.25310498046875,-16.54191102594137,-4.798826514649391,-5.213431398135423,-0.9945070147514344,-0.2977030575275421,6.170386791229248
1772650556067076600,1.26307666015625,-12.071221071636677,-4.902520113357902,-3.0136159995257854,-0.9229945540428162,-0.6554555296897888,5.200720310211182
1772650556077049900,1.2730498046875,-8.725067061936855,-4.636543948850036,-1.352089293346554,-0.7223045825958252,-0.4737688302993774,3.874200105667114
1772650556087021800,1.283021728515625,-5.817911203223466,-3.82318758457005,-0.5269439993344247,-0.4992778301239013,-0.1240580305457115,2.4103853702545166
1772650556096994800,1.292994873046875,-3.787368375431001,-2.871131774652004,-0.1648848572522401,-0.3414666354656219,0.0313914790749549,1.0546468496322632
1772650556106966800,1.302966796875,-3.3202798559919,-1.3493956703484058,-0.0740272131107747,-0.179256796836853,0.0592714920639991,0.0827898979187011
1772650556116939800,1.312939697265625,-5.356903465002775,0.8281815929681062,0.6963901731528341,0.186196818947792,0.0719393566250801,-0.307963490486145
1772650556126912000,1.322912109375,-7.500403102150559,2.977081043332815,1.2655148794822395,0.4771049618721008,0.0493774972856044,-0.2798057496547699
1772650556136884700,1.332884765625,-7.787059066593646,4.646474975755811,-0.180625739480555,0.5542109608650208,0.139248788356781,-0.08533825725317
1772650556146856700,1.342856689453125,-6.376854415017366,5.338647092822193,-1.9101529458269475,0.4000817835330963,0.3106174767017364,-0.0066948025487363
1772650556156830000,1.352829833984375,-4.011728042697906,6.418969801691175,-3.4454853215456005,0.1811544746160507,0.6977207064628601,0.0574104152619838
1772650556166801700,1.3628017578125,-2.6822429414778948,6.359650766760111,-3.0237276436954734,-0.1134377121925354,1.0550800561904907,0.1158167123794555
1772650556176774700,1.372774658203125,-0.8434756082117557,7.54176737819612,-3.4343308903247114,-0.4946609735488891,1.329395055770874,0.1876006126403808
1772650556186747000,1.382746826171875,0.7614350383847951,8.967151478725672,-3.630496436503529,-0.8503042459487915,1.5536574125289917,0.2981061637401581
1772650556196719900,1.392719970703125,1.7735417046397923,9.775228441298008,-2.7854773982420564,-1.138317346572876,1.6592339277267456,0.4664483070373535
1772650556206691800,1.40269189453125,2.9498972683310507,11.025237854743002,-1.7509768216103314,-1.275004744529724,1.7856016159057615,0.5900945663452148
1772650556216664800,1.412664794921875,4.311750853714346,12.35396833820343,-0.4389057234626263,-1.2620970010757446,1.935313582420349,0.6425321698188782
1772650556226636800,1.42263671875,5.463022245031595,13.391314659655093,0.7026474069166928,-1.1401325464248655,1.934497952461243,0.7248548269271851
1772650556236609800,1.43260986328125,5.943626664125919,13.707735063242913,1.7532494427174328,-0.9250093698501588,1.8585957288742063,0.911958634853363
1772650556246581800,1.442581787109375,5.739416927701234,13.56909348527193,2.465655369517207,-0.6833387613296509,1.481498122215271,1.218755125999451
1772650556256554800,1.4525546875,6.222470493513345,14.116880512279272,2.237480527876317,-0.4561455547809601,0.9379826784133912,1.5335530042648315
1772650556266526700,1.462526611328125,6.819950064450502,13.959528388619422,1.830903614153713,-0.2703997492790222,0.4029629826545715,1.7501037120819092
1772650556276499700,1.472499755859375,7.383438518458604,13.428404911643266,1.154489914972335,-0.1797771453857422,-0.1225697845220565,1.8240418434143064
1772650556286472000,1.482471923828125,8.01564453486204,13.139121521306038,0.0246573983293026,-0.1825872361660003,-0.5235641002655029,1.702752947807312
1772650556296445000,1.49244482421875,8.543439159676431,12.820248463869094,-1.0507346492044627,-0.2488765120506286,-0.691883385181427,1.3731310367584229
1772650556306416600,1.502416748046875,8.644718098458647,12.515298717844486,-1.8435506220199167,-0.3381563723087311,-0.6487605571746826,0.9360517263412476
1772650556316390000,1.512389892578125,8.153456091749668,12.117358553433418,-2.346083672066778,-0.4462090730667114,-0.4587751924991607,0.5008129477500916
1772650556326361900,1.52236181640625,7.298899117553233,11.70891569970846,-2.7934569988191127,-0.5885452628135681,-0.2159802168607711,0.1403058022260666
1772650556336334600,1.53233447265625,6.351224299198389,11.429736354756354,-3.0947397467687723,-0.7448307871818542,0.0203673467040061,-0.1245109513401985
1772650556346306800,1.542306884765625,5.554027627080679,11.234449929499624,-3.1044331655263897,-0.8978214263916016,0.1986698806285858,-0.2968333661556244
1772650556356279800,1.55227978515625,5.063982594946027,11.087800401639935,-2.932114358881116,-1.0330060720443726,0.2691344618797302,-0.4058048725128174
1772650556366251800,1.562251708984375,4.8086339151754975,10.922841310107708,-2.5451556072115897,-1.13826322555542,0.1777134090662002,-0.4374283254146576
1772650556376224800,1.572224853515625,4.661581651733815,10.736332065546511,-1.982875213818997,-1.2019463777542114,-0.0146579016000032,-0.4171052277088165
1772650556386196700,1.58219677734375,4.649059731552004,10.527912602472306,-1.358928930108249,-1.2221217155456543,-0.199962630867958,-0.418327659368515
1772650556396170000,1.592169921875,4.76259024914205,10.234094491314888,-0.902005027135089,-1.2082769870758057,-0.3483486175537109,-0.470250517129898
1772650556406141700,1.6021416015625,4.670601116752624,10.088854830253124,-0.3593735562600195,-1.1137605905532837,-0.3616865873336792,-0.5266292095184326
1772650556416114700,1.61211474609375,4.211867168682813,10.128718054085969,0.2017762256674468,-0.9613838791847228,-0.3315534591674804,-0.5361444354057312
1772650556426087000,1.6220869140625,3.7758629388153553,10.06360816079378,0.5841725647922605,-0.7806458473205566,-0.2885012328624725,-0.4918896555900574
1772650556436059600,1.6320595703125,3.568845159232616,9.912379488450288,0.8510386638771742,-0.5813301205635071,-0.2513405680656433,-0.4220559597015381
1772650556446032000,1.642031982421875,3.687275139302015,9.612600423061847,0.9674697252143174,-0.3872274458408355,-0.2745519280433655,-0.3594823479652405
1772650556456004900,1.6520048828125,4.11735348625183,9.268822641471028,0.8298952650181949,-0.2492759376764297,-0.4145425856113434,-0.3053213655948639
1772650556465977900,1.661977783203125,4.71571480845958,8.804169240224361,0.3716899439323693,-0.1664911210536956,-0.6227837800979614,-0.2701109945774078
1772650556475949800,1.67194970703125,5.3201440524041645,8.462146193346381,-0.1667450981661677,-0.0935617759823799,-0.7027632594108582,-0.3264371156692505
1772650556485922800,1.6819228515625,5.796332993143797,8.364632160055637,-0.5694825798563659,-0.0486965999007225,-0.6841410398483276,-0.4716385006904602
1772650556495894800,1.691894775390625,6.155723938930034,8.161903602099418,-0.914182517793402,-0.0524679012596607,-0.6371727585792542,-0.6464657187461853
1772650556505867800,1.70186767578125,6.232910638985038,7.86228703379631,-1.1424777709435672,-0.0593161880970001,-0.6170616745948792,-0.8138440847396851
1772650556515839700,1.71183984375,6.111852063977718,7.737272414639592,-1.136365571673587,-0.0800550207495689,-0.6566349267959595,-0.923309564590454
1772650556525813000,1.72181298828125,5.664854146409034,7.465185658296942,-1.0945788324322552,-0.1086015403270721,-0.7151707410812378,-0.9769991040229796
1772650556535784700,1.73178466796875,5.16021068007946,7.008430316823721,-1.0368246356651187,-0.1488294005393982,-0.7515357136726379,-1.0190011262893677
1772650556545757700,1.7417578125,4.7734167635828255,6.426137793624401,-0.6081111473277211,-0.1193550676107406,-0.7460071444511414,-1.088441014289856
1772650556555730000,1.75172998046875,4.362481800781191,5.886043074685335,0.1595613972071558,-0.0077465148642659,-0.7314814329147339,-1.1947728395462036
1772650556565703000,1.761702880859375,3.899930632510781,5.125575420027971,0.7107854859910905,0.1088431179523468,-0.7123064994812012,-1.3499783277511597
1772650556575675000,1.7716748046875,3.224119867658615,4.0271693574577565,0.9864728971742092,0.1843253523111343,-0.6546282768249512,-1.5019699335098269
1772650556585647900,1.78164794921875,1.959689130151272,2.175154420083761,1.3920713212534783,0.1629714220762252,-0.678369402885437,-1.548997163772583
1772650556595619600,1.79161962890625,0.2970259672880173,-0.4052712379515171,1.6982814426027235,0.0753182545304298,-0.8665962815284729,-1.4521992206573486
1772650556605592800,1.8015927734375,-2.044897808620333,-2.6782611783653496,2.6492721075072883,0.0779164880514144,-1.1918309926986694,-1.199061632156372
1772650556615564800,1.811564697265625,-3.698042617031932,-4.767722351333498,4.011507677945494,0.2341393828392028,-1.6318309307098389,-1.0085537433624268
1772650556625537800,1.821537841796875,-4.09157957804799,-6.22775807852745,4.295703389754891,0.4071213901042938,-2.034970760345459,-0.9940176010131836
1772650556635509800,1.831509765625,-4.645982223802805,-7.158817277646064,3.395459307877719,0.4391456246376037,-2.009734869003296,-1.0927172899246216
1772650556645482800,1.841482666015625,-5.614621504253149,-8.704963016062974,1.7106167541712525,0.3105326890945434,-1.5813599824905396,-1.2811616659164429
1772650556655455000,1.851455078125,-6.093631932154297,-9.826300456887482,0.3507140836600214,0.1264640390872955,-0.9225767254829408,-1.574849247932434
1772650556665427700,1.861427734375,-5.76626401809454,-10.163416442501545,0.4170443125274032,-0.0094969980418682,-0.2543081641197204,-1.926636815071106
1772650556675399700,1.871399658203125,-4.968624862906337,-11.03613334276676,1.773104482266307,-0.0194452367722988,-0.0628103837370872,-2.376185417175293
1772650556685373000,1.881373046875,-3.566486028885841,-11.218539243662356,2.914028959353268,0.0772546753287315,-0.251493752002716,-3.005507230758667
1772650556695344600,1.8913447265625,-2.6647645679324863,-10.0797596696496,2.476179686141014,0.1221840679645538,-0.3412289321422577,-3.7466399669647217
1772650556705317600,1.901317626953125,-3.2770763818204403,-8.999933804386854,0.9150819508511572,0.0466435551643371,-0.2455937266349792,-4.421575546264648
1772650556715289900,1.911289794921875,-5.302653988420963,-7.711627685773372,-0.240021839969512,-0.0223906375467777,-0.0676711350679397,-4.806036949157715
1772650556725262800,1.921262939453125,-8.24511730735898,-5.9844198622852565,-0.2223937922877259,-0.0015983625780791,0.0491260699927806,-4.748420238494873
1772650556735234800,1.93123486328125,-11.317546730381247,-4.492853855317831,0.0914041264425497,0.0926852598786354,-0.0169323086738586,-4.257118225097656
1772650556745207800,1.941207763671875,-13.3398638738811,-3.187695970624685,0.1363775694285985,0.2173214107751846,-0.1943947523832321,-3.470841884613037
1772650556755179800,1.9511796875,-14.158335973739623,-2.068345319703221,0.0901169087767601,0.3520163893699646,-0.3581684827804565,-2.4685206413269043
1772650556765152800,1.96115283203125,-14.146562533837557,-1.45274673922956,-0.1966763269788585,0.4254639446735382,-0.5687896609306335,-1.444293737411499
1772650556775124700,1.971124755859375,-12.826161487305164,-0.9871446589559316,-0.5577410329299047,0.4657724797725677,-0.7854000329971313,-0.5462228059768677
1772650556785097700,1.98109765625,-10.607840125668048,-0.4641717552095651,-0.4877495781412347,0.5429869890213013,-0.9173102974891664,0.200820118188858
1772650556795069700,1.991069580078125,-8.11880037343204,0.1498603065997362,-0.0557185627536848,0.6655118465423584,-0.9847599267959596,0.7885395884513855
1772650556805042700,2.001042724609375,-5.502221451997757,0.7168044540196656,0.4516290114354342,0.834191083908081,-1.0023596286773682,1.1977752447128296
1772650556815015000,2.011014892578125,-2.901253356671333,1.1337947713375092,0.8907460395611823,0.9939924478530884,-0.9175627827644348,1.4053643941879272
1772650556824988000,2.02098779296875,-0.4872305592358112,1.3402747907817365,0.9304518808752298,1.1115317344665527,-0.71741783618927,1.4187846183776855
1772650556834960000,2.0309599609375,1.5620868193924426,1.6043927602022885,0.8266792255811393,1.1891417503356934,-0.4959083497524261,1.3126733303070068
1772650556844933000,2.04093310546875,3.215378342798352,1.9386808289140465,0.7817877983227371,1.2401503324508667,-0.2834407687187195,1.144600749015808
1772650556854904800,2.05090478515625,4.44830101236403,2.290202941021323,0.8631434546254575,1.2708704471588137,-0.0553372912108898,0.9319299459457396
1772650556864877800,2.0608779296875,5.339954083767533,2.55121709920764,0.9749570122297851,1.2823169231414795,0.1851574778556823,0.6979885697364807
1772650556874850000,2.07085009765625,5.88055090700984,2.7008412589639423,1.0718970450248568,1.2812756299972534,0.3746158182621002,0.4999548494815826
1772650556884822800,2.08082275390625,6.0594169433414935,3.2560441151857376,1.0084143876083194,1.260192632675171,0.5224400162696838,0.3300201892852783
1772650556894795000,2.090794921875,6.224985106682777,3.825417535579205,1.1869495845504103,1.2857598066329956,0.7151399850845337,0.1625624597072601
1772650556904768000,2.10076806640625,6.2313663321524855,3.778049050682783,1.7131139778144655,1.3552558422088623,0.9338476061820984,-0.0122519843280315
1772650556914740000,2.110739990234375,6.139816175702214,3.944267202365398,1.788973228657991,1.4327905178070068,1.1269617080688477,-0.1686296015977859
1772650556924713000,2.120712890625,6.058149115362763,4.30445309792161,1.6494553062438964,1.520027995109558,1.20907461643219,-0.3260384202003479
1772650556934686000,2.13068603515625,6.029469548845291,4.42567650810182,1.4630768484555183,1.5898771286010742,1.182362079620361,-0.4948817789554596
1772650556944658000,2.140657958984375,5.992193418896198,4.208209815219044,1.2695398972146212,1.6292258501052856,1.0083386898040771,-0.6811200976371765
1772650556954631000,2.150630859375,5.813870403400063,3.8109856901228425,0.908763488419354,1.6477996110916138,0.7258320450782776,-0.8835062384605408
1772650556964603000,2.160602783203125,5.175307126924396,3.451926752769946,0.2699325009182095,1.6450577974319458,0.2891865372657776,-1.0983234643936155
1772650556974575900,2.170575927734375,3.759631350460648,2.910965187868476,-0.3650136079736054,1.609088897705078,-0.152520015835762,-1.1378129720687866
1772650556984547800,2.1805478515625,0.3203144884169101,2.195797979661822,-0.8168370460025965,1.5656367540359497,-0.5299345254898071,-0.928177297115326
1772650556994520800,2.190520751953125,-2.1455992397755383,1.187104336720705,-1.4878370495721698,1.5578504800796509,-0.917661726474762,-0.6936918497085571
1772650557004493000,2.2004931640625,-3.443954458716512,0.3451531615972518,-1.8090607617884875,1.5607160329818726,-1.3528236150741575,-0.5542587637901306
1772650557014465800,2.2104658203125,-4.380359110516309,-0.7328536715447902,-2.6353321372210976,1.5113908052444458,-1.6418581008911133,-0.6519371271133423
1772650557024438000,2.22043798828125,-4.841926236185431,-1.996813868930936,-4.321626935562491,1.3740979433059692,-1.732521653175354,-1.0300394296646118
1772650557034411000,2.230410888671875,-5.69899139381051,-3.231082107886672,-5.916705339452624,1.164249062538147,-1.5398305654525757,-1.5870469808578491
1772650557044382700,2.2403828125,-7.40375533030033,-4.00049294745624,-7.061732283422351,0.9493781328201294,-1.0861198902130127,-2.0622012615203857
1772650557054356000,2.25035595703125,-9.913603477287293,-3.868900995735824,-7.510438758474588,0.7233194708824158,-0.4855004549026489,-2.223083734512329
1772650557064328000,2.260327880859375,-12.520143235266207,-3.253206261411309,-7.341867321664094,0.5179163813591003,0.0959035530686378,-2.004601001739502
1772650557074301000,2.270301025390625,-14.077358649230003,-2.4679671535909176,-6.398046840649843,0.3681026697158813,0.5767228603363037,-1.4714347124099731
1772650557084273000,2.28027294921875,-13.959655814391374,-1.727159892693162,-4.699445518442988,0.3046823441982269,0.8399137854576111,-0.7831268906593323
1772650557094246000,2.290245849609375,-12.180526665008069,-1.394690856102109,-2.487720486330986,0.353689044713974,0.8121005296707153,-0.1108153387904167
1772650557104218000,2.300218017578125,-9.250417800730466,-1.2138882987499235,-0.2546174428865313,0.4909463822841644,0.5297678709030151,0.4544944763183594
1772650557114190800,2.31019091796875,-6.053150868684053,-1.054780271333456,1.4611439806967972,0.6367275714874268,0.0980222895741462,0.9014101624488832
1772650557124162800,2.320162841796875,-3.131058722123504,-1.285031919248402,2.3601497529506683,0.7884995341300964,-0.3655893802642822,1.1547633409500122
1772650557134136000,2.330135986328125,-0.4608253673911094,-1.082173597432673,2.9030472543507813,0.9180750846862792,-0.6624000072479248,1.244977951049805
1772650557144107800,2.340107666015625,1.563869026634097,-1.2274857392087577,3.0411031413882967,0.9893269538879396,-0.8577964901924133,1.2057281732559204
1772650557154080800,2.350080810546875,3.1231454647809267,-1.5258233736172315,2.7911767789274453,1.0124837160110474,-0.9162999987602234,1.051675796508789
1772650557164053000,2.360052978515625,4.202330694052577,-1.6418658740282055,2.366184064678848,0.9388360381126404,-0.8018341660499573,0.8288823366165161
1772650557174026000,2.37002587890625,4.926942606952786,-1.8055089145258068,1.7964938334211706,0.7925952076911926,-0.5794743299484253,0.5557296276092529
1772650557183998000,2.379998046875,5.583358350983262,-1.8526108574405311,1.4535194771677256,0.5900858044624329,-0.3157068789005279,0.2503929138183594
1772650557193971000,2.389970947265625,6.111796534398198,-1.9380574363186955,1.246264381697774,0.3474478423595428,-0.0785819441080093,-0.049824696034193
1772650557203943000,2.39994287109375,6.434055142620205,-1.837187370598316,1.1771800318166612,0.0365003980696201,0.0547127202153205,-0.2860539853572845
1772650557213916000,2.409916015625,6.684184918698668,-1.451972247725725,0.7669216531023383,-0.2913216948509216,0.1755547225475311,-0.4182157516479492
1772650557223888000,2.419887939453125,6.509458466389775,-1.5454451889321208,1.524006679584086,-0.5096673369407654,0.1826241463422775,-0.4498173296451568
1772650557233860900,2.42986083984375,6.329425724366307,-1.3136258533090353,2.472536361202597,-0.7012186646461487,0.1315465867519378,-0.3994529545307159
1772650557243832800,2.439832763671875,6.481432979866862,-0.7534072147518396,2.8220567780986427,-0.8854508996009827,0.0374653600156307,-0.3190497457981109
1772650557253805800,2.449805908203125,6.739297149589658,-0.3909077815562486,3.2375019118010995,-1.037251353263855,-0.0834429487586021,-0.260459154844284
1772650557263778000,2.459778076171875,7.066980705469846,-0.1067392500147223,3.8002956615433097,-1.136591553688049,-0.1578054875135421,-0.2235383540391922
1772650557273751000,2.4697509765625,7.441623580923676,0.2517149994432926,4.44609064283818,-1.1556802988052368,-0.1975073665380478,-0.2224184870719909
1772650557283722800,2.47972265625,7.780795330023765,0.6432414974197745,5.021074596589804,-1.0963492393493652,-0.2408283203840255,-0.2303752601146698
1772650557293696000,2.489696044921875,7.840871320801972,0.9944327701374888,5.430940761116147,-0.9529635906219482,-0.2709020674228668,-0.1797166168689727
1772650557303668000,2.49966796875,7.1888839146077625,1.032190546123683,5.835002623277902,-0.7668591737747192,-0.388193130493164,0.0042635789141058
1772650557313641000,2.509640869140625,6.170598851978778,0.7723030538797379,5.59186723613143,-0.6015452742576599,-0.5810016989707947,0.2688741981983185
1772650557323613000,2.519613037109375,5.488188834992051,0.5968439033821225,4.680516653828323,-0.4663469493389129,-0.6652260422706604,0.5581177473068237
1772650557333586000,2.5295859375,4.519053295457363,-0.0398746220096945,3.623227614544332,-0.3873493373394012,-0.6118816137313843,0.8036409616470337
1772650557343558000,2.539557861328125,3.703966746383905,-1.3053171669080852,2.2985376386463643,-0.3629304468631744,-0.4691165089607239,0.9798716902732848
1772650557353531000,2.54953076171875,2.804927656382322,-2.8984382992506026,1.2395324430942534,-0.3221800923347473,-0.3068176209926605,1.0794755220413208
1772650557363503000,2.559503173828125,1.4132687153220176,-4.955930801028013,0.6420914506018162,-0.2276273965835571,-0.0992745012044906,1.0914547443389893
1772650557373476000,2.56947607421875,-1.0699106204479931,-7.645739209324121,-0.1156944176256656,-0.1259428560733795,0.2736972272396087,1.1123526096343994
1772650557383447800,2.57944775390625,-5.189065603163838,-10.56177161745429,-1.46673376352787,-0.028419479727745,0.923374891281128,1.2349103689193726
1772650557393421000,2.589421142578125,-10.576530795168877,-13.658826947689056,-3.6114264098525046,-0.0678457170724868,1.7855958938598633,1.504671573638916
1772650557403393000,2.59939306640625,-16.668766304528713,-16.956960146063565,-6.5235027738332745,-0.284440129995346,2.5331456661224365,1.991469144821167
1772650557413365800,2.60936572265625,-22.66156061192751,-19.37017630329132,-8.510490245276689,-0.4170050919055938,2.722459077835083,2.8395090103149414
1772650557423339000,2.619339111328125,-28.37462846188545,-20.696779127073288,-7.933359050363301,-0.2790941894054413,2.1679234504699707,4.079907417297363
1772650557433311000,2.62931103515625,-33.091593854928014,-21.194104379343987,-6.199798058456183,0.043049219995737,1.1679075956344604,5.548072338104248
1772650557443284000,2.639283935546875,-36.00682897520065,-20.11484316222668,-5.627815916869044,0.3501085638999939,0.420732319355011,6.943480014801025
1772650557453256000,2.649255859375,-36.34642684075832,-16.85998913360834,-7.0827324013531205,0.4931360483169555,0.1190747320652008,8.061676025390625
1772650557463229000,2.65922900390625,-33.90523429684639,-12.789849818474051,-9.303702816194296,0.4585172533988952,0.1758664399385452,8.79232406616211
1772650557473201200,2.669201171875,-29.149653049683568,-8.865369851118325,-10.60076857984662,0.3428758978843689,0.3026334345340729,9.132512092590332
1772650557483174000,2.679173828125,-23.058701150393485,-5.384945318138599,-10.197187779200076,0.1756143122911453,0.3288910686969757,9.114981651306152
1772650557493145900,2.689145751953125,-16.589590476483107,-2.735285380357504,-8.415026714774966,-0.0564338378608226,0.0931230187416076,8.806156158447266
1772650557503119000,2.699119140625,-10.002539651846885,-1.3769874416291712,-5.803965679979324,-0.2938988208770752,-0.3334948718547821,8.15296459197998
1772650557513090800,2.7090908203125,-3.4986388195842504,-1.2263041282087563,-2.9374361384257672,-0.5498445630073547,-0.7219254374504089,7.078365802764893
1772650557523063800,2.719063720703125,2.3820365905880925,-1.5830425136595965,-0.61884618409276,-0.796343207359314,-0.7606860995292664,5.61295223236084
1772650557533036000,2.7290361328125,6.580847878342866,-1.168247076037526,0.1786540010161697,-1.0230796337127686,-0.5088128447532654,3.9282076358795166
1772650557543008800,2.7390087890625,9.120241268765923,-0.4398281720697879,0.4925903327032923,-1.1875319480895996,-0.1358977258205413,2.103890895843506
1772650557552981000,2.74898095703125,10.9315810814023,1.169677985623479,0.4729293544217944,-1.3638838529586792,0.3010838627815246,0.2325828522443771
1772650557562954000,2.7589541015625,11.148833839273452,3.622925708988309,-0.1244413493134081,-1.5512168407440186,0.7108513712882996,-1.3682715892791748
1772650557572925700,2.76892578125,8.94852393514514,6.288428528067469,-0.5698157573334872,-1.712044358253479,0.9097383618354796,-2.364978313446045
1772650557582899000,2.77889892578125,5.35538429261148,8.641472248405218,-0.619200696618855,-1.809628963470459,0.799773097038269,-2.7462899684906006
1772650557592871000,2.788870849609375,2.3413344317130744,10.442377176266907,-0.4094418016344308,-1.8270548582077024,0.5459850430488586,-2.6591947078704834
1772650557602844000,2.798843994140625,0.089038027498871,11.768964802479744,-0.2224155474618077,-1.790460228919983,0.212776243686676,-2.2882025241851807
1772650557612816000,2.80881591796875,-0.7068319260597229,12.400851669931413,-0.205433652196452,-1.679421067237854,0.0101781245321035,-1.8969314098358157
1772650557622788900,2.818788818359375,0.2873933388069272,13.140557107067108,-0.6267728854387998,-1.630012035369873,0.0296895056962966,-1.6833490133285522
1772650557632761000,2.828760986328125,1.5988007854141295,13.8797130936265,-1.517480054294318,-1.663792610168457,0.2102864533662796,-1.586583137512207
1772650557642733800,2.83873388671875,2.5356740776389834,13.97734227772951,-1.6174518560007214,-1.6795475482940674,0.2894399464130401,-1.460258722305298
1772650557652705800,2.848705810546875,3.234711404299736,13.683480911952255,-0.93810283401981,-1.592981457710266,0.1336865574121475,-1.2752742767333984
1772650557662679000,2.858678955078125,3.883643514576554,13.619828816252946,-0.0224988594553899,-1.3987377882003784,-0.1615926921367645,-1.0897256135940552
1772650557672650800,2.868650634765625,4.438382552678883,13.592916259407996,0.8494501525767147,-1.128663420677185,-0.5056009292602539,-1.0153803825378418
1772650557682623700,2.878623779296875,4.856378247646987,13.369680335474014,1.4015483207814394,-0.7924821972846985,-0.6918716430664062,-1.062040090560913
1772650557692596000,2.888595947265625,4.746658812777698,13.202634500795602,1.5608609308592971,-0.4608512222766876,-0.7294136881828308,-1.1718952655792236
1772650557702569000,2.89856884765625,4.212107991701364,12.88129826811552,1.235285745435208,-0.1961813420057296,-0.7266173958778381,-1.2894049882888794
1772650557712541000,2.908541015625,3.632333588802814,12.4455921444118,0.5336902221916243,0.0175767410546541,-0.6880667805671692,-1.3884934186935425
1772650557722514000,2.918513916015625,3.1221763274878263,12.225048528301716,0.0718377585087902,0.1942227929830551,-0.5956985354423523,-1.4725353717803955
1772650557732486000,2.92848583984375,2.6373826400101184,12.008144145476818,-0.3347327437393367,0.2829947471618652,-0.4715475440025329,-1.531566500663757
1772650557742459000,2.938458984375,1.7474907330602407,11.511740099704264,-1.1577485514421015,0.2231313288211822,-0.2240646481513977,-1.471173644065857
1772650557752430800,2.948430908203125,0.3534697390437126,10.916708506441116,-2.4709210349604485,0.0562315694987773,0.0556756518781185,-1.3255035877227783
1772650557762403800,2.95840380859375,-0.1039946274816989,10.821690966141222,-3.135235715547204,-0.1289191395044326,0.1577038168907165,-1.093486785888672
1772650557772375800,2.968375732421875,-0.2719248437792063,10.652782844722273,-2.895018553934991,-0.2822620868682861,0.0877846479415893,-0.7959702014923096
1772650557782348800,2.978348876953125,-0.1076134025007486,10.135805966520309,-2.4347261243768035,-0.3913885951042175,-0.0123740639537572,-0.5155893564224243
1772650557792321000,2.988321044921875,0.4994119954168796,9.976904859852793,-1.7593765472956,-0.4250576198101043,-0.054301805794239,-0.3275784254074096
1772650557802294000,2.9982939453125,1.317149351260066,9.940871423441171,-0.8821868124652653,-0.3704406321048736,-0.0127872973680496,-0.2194357961416244
1772650557812266000,3.008265869140625,2.0036422536462544,9.563249239915608,-0.0862893133126199,-0.3068113327026367,0.0029538492672145,-0.1616017967462539
1772650557822239000,3.018239013671875,2.741916781195998,9.201824742475152,0.0602429448429495,-0.2709646224975586,-0.0320912264287471,-0.155830442905426
1772650557832211000,3.0282109375,3.5568738586708903,8.979401888489722,0.0179425204584375,-0.2659629285335541,-0.0308667048811912,-0.2585552334785461
1772650557842184200,3.03818408203125,4.405765354451537,8.607863408792019,-0.0264805951684713,-0.2902221977710724,-0.0155459204688668,-0.4728121757507324
1772650557852156200,3.04815625,5.087074132198096,8.27383837493062,0.0126801794834434,-0.3206099271774292,0.1078910678625106,-0.7573608160018921
1772650557862129000,3.05812890625,5.161753817868233,8.104619872388243,0.0233113540152087,-0.3170532286167145,0.2512549757957458,-1.0183860063552856
1772650557872101000,3.06810107421875,4.9151159755587575,8.539397190809249,-0.0969372928487136,-0.3008412420749664,0.3037797212600708,-1.1770408153533936
1772650557882074000,3.07807421875,4.508728885319829,8.784292573365569,0.058281179783307,-0.253071665763855,0.2036831676959991,-1.2094759941101074
1772650557892046000,3.088046142578125,3.9599902566760776,8.241935754713415,0.5122461964182555,-0.1577909290790558,-0.1297254264354705,-1.0921435356140137
1772650557902019000,3.09801904296875,3.647782502347231,7.926615421321988,0.7577426866728812,-0.0638770386576652,-0.5937619805335999,-0.8807021975517273
1772650557911991000,3.107990966796875,3.5416304045706983,7.584240492266416,0.694794866785407,-0.0037844071630388,-1.0055519342422483,-0.7056019902229309
1772650557921964000,3.117964111328125,3.62695072672069,6.894418153196573,0.4748859318496659,0.0222033839672803,-1.1858868598937988,-0.6563121676445007
1772650557931936000,3.12793603515625,3.76458868060708,6.013174832126498,-0.0022314853791147,-0.0106485718861222,-1.1742392778396606,-0.7803012132644653
1772650557941909000,3.137908935546875,3.846367969149351,5.036503051868081,-0.8030487591467798,-0.1538871228694915,-1.0705838203430176,-1.0368523597717283
1772650557951881000,3.147880859375,3.371106664648652,3.997563908267021,-1.346264824976772,-0.3118932843208313,-0.7763868570327759,-1.2900686264038086
1772650557961854000,3.15785400390625,1.9251818803936245,2.5088328324645754,-1.2135402159646154,-0.4733825027942657,-0.5191909074783325,-1.345538854598999
1772650557971827000,3.167826904296875,-0.1684586240857839,0.2896089690297841,-0.0839970376569777,-0.5242278575897217,-0.539406418800354,-1.001156449317932
1772650557981799200,3.177799072265625,-3.3093180247336624,-3.158781426307559,3.471009054380655,-0.2531343102455139,-1.1808311939239502,-0.3513892292976379
1772650557991772000,3.18777197265625,-4.036626337110996,-5.858291144406795,6.037328445652127,0.2014739215373993,-1.931087613105774,0.2416879534721374
1772650558001744100,3.197744140625,-3.892744520398974,-6.932506184050441,6.242489783713221,0.5643568634986877,-2.293832540512085,0.388267457485199
1772650558011717000,3.207717041015625,-2.3059856165647505,-8.570683724954725,3.728975223173201,0.6410968899726868,-2.128292322158813,-0.0669954121112823
1772650558021688800,3.217688720703125,-0.2778045494675636,-10.147674098968505,0.5333201102375984,0.5094412565231323,-1.6930021047592163,-1.0719295740127563
1772650558031662000,3.227662109375,1.0804676702976226,-10.850109251374006,-1.5736242585815488,0.3453974723815918,-0.9047099351882936,-2.475376844406128
1772650558041634000,3.237634033203125,0.9710837509930134,-10.165677373170851,-2.815152697798609,0.1933024525642395,0.1191400364041328,-3.94380521774292
1772650558051607000,3.24760693359375,-1.368992351222038,-9.27741569777131,-3.2106630047142506,0.0489769764244556,0.955086350440979,-4.992044925689697
1772650558061579000,3.2575791015625,-5.9489575037598605,-8.901614299932122,-2.1649993751637635,-0.0195981692522764,1.264622926712036,-5.313872337341309
1772650558071552000,3.267552001953125,-11.480652887523174,-8.330391452279686,-0.4389927076263353,0.0812131315469741,1.1837999820709229,-4.823400974273682
1772650558081524200,3.277524169921875,-16.563327907979488,-7.411019183823466,1.0011314640585331,0.2705223262310028,0.777119517326355,-3.670379161834717
1772650558091497000,3.2874970703125,-19.561331327831745,-6.442783223477005,0.9454264549061656,0.3662296831607818,0.358319342136383,-2.281439304351806
1772650558101469000,3.297468994140625,-19.3554136184454,-5.309813797047734,-0.3486990905757993,0.3510476350784302,0.065126284956932,-1.1352877616882324
1772650558111442200,3.307442138671875,-16.566757882428167,-4.337722914838791,-1.4207435812473297,0.2922567129135132,-0.0520919524133205,-0.38371342420578
1772650558121414000,3.317413818359375,-13.123517124938964,-3.5385628336936232,-1.9265198509991168,0.212106242775917,-0.0709287077188491,0.098839670419693
1772650558131387000,3.327386962890625,-10.148154575961827,-2.587701201996207,-2.106097250470519,0.1245359107851982,-0.0353826954960823,0.4287291467189789
1772650558141359000,3.337359130859375,-7.579911523151397,-1.6613064875572918,-1.9596110964789983,0.0569798722863197,-0.0003926712088286,0.6570056676864624
1772650558151332000,3.34733203125,-5.257530067580938,-0.953377998432517,-1.4201117130845784,0.0411252751946449,0.0401137396693229,0.7821279168128967
1772650558161304000,3.357303955078125,-3.198356480848789,-0.5163198755979538,-0.5944125845819711,0.0853949263691902,0.1330102086067199,0.8108546137809753
1772650558171277000,3.367277099609375,-1.5273942761957644,-0.1627536904424429,0.0287092675359919,0.1528400033712387,0.2261244356632232,0.7881804704666138
1772650558181249000,3.3772490234375,-0.1547568464696407,0.2526081488907337,0.2475096567079424,0.2006473988294601,0.2400307208299636,0.7766897082328796
1772650558191222000,3.387221923828125,0.9420721760421992,0.6272364112973213,0.1469233032997697,0.2056751847267151,0.1989786177873611,0.7772862911224365
1772650558201194000,3.397194091796875,1.7345388970285651,1.0405161836594343,-0.1216549151989631,0.1676841974258422,0.1855133026838302,0.7738677859306335
1772650558211167000,3.4071669921875,2.30492354029119,1.505479381507635,-0.3165864808697253,0.1107612550258636,0.2036313265562057,0.7826748490333557
1772650558221139000,3.417138916015625,2.690138663163781,2.029244312414527,-0.2930041461597196,0.0621513836085796,0.1980682909488678,0.80930095911026
1772650558231112000,3.42711181640625,2.9041935017764566,2.591666013973952,-0.0491478791264817,0.0542876049876213,0.1932471692562103,0.8542377948760986
1772650558241084200,3.437084228515625,3.048829351726174,3.2028578839212654,0.3569057413743808,0.0987243130803108,0.195098340511322,0.9057369232177734
1772650558251057200,3.44705712890625,3.2109979357570406,3.6846477134078737,0.7579958577163517,0.1452159136533737,0.1858798116445541,0.9564576148986816
1772650558261029000,3.457029052734375,3.4137036973595616,3.9996231788843866,0.5857039756106213,0.1793173253536224,0.1736646890640258,1.014296054840088
1772650558271002000,3.467002197265625,3.510819671243429,4.530205388590693,0.709238914136216,0.2466292679309845,0.2272530794143676,1.049544095993042
1772650558280974000,3.47697412109375,3.782040166145563,4.8845256069839,0.9821439280591904,0.3157919943332672,0.2094478160142898,1.0649160146713257
1772650558290947000,3.486947021484375,4.188085311079025,5.092649886503815,0.7450171336777508,0.3318633735179901,0.0886300429701805,1.0971511602401731
1772650558300919000,3.4969189453125,4.369370098990202,5.350319410437345,0.3764015556894242,0.3053867518901825,-0.049306683242321,1.1323240995407104
1772650558310892000,3.50689208984375,4.4807022297531365,5.492096948346496,0.1784249049680307,0.2690535187721252,-0.1277503669261932,1.1474095582962036
1772650558320864000,3.516864013671875,4.66238390802741,5.625018979626893,0.2882952012837864,0.2495079189538955,-0.1524698436260223,1.1338505744934082
1772650558330837000,3.5268369140625,4.814387071874737,5.643292887464165,0.6309488559491933,0.2773736417293548,-0.0989874452352523,1.079925775527954
1772650558340809200,3.536809326171875,4.882588501441479,5.691451645955443,1.1528883249945938,0.3801621496677398,0.0969565734267234,0.9750266075134276
1772650558350782200,3.5467822265625,4.739655363756418,5.894205338352919,1.772830049239099,0.5895316004753113,0.4416188895702362,0.8149887323379517
1772650558360754000,3.55675390625,4.374477066740393,5.990338146418333,2.4159555190637705,0.8587154150009155,0.8332964777946472,0.5833821296691895
1772650558370727200,3.56672705078125,4.316719289776683,5.933868071177601,2.6984163699045776,1.168530821800232,1.1266382932662964,0.2949985265731811
1772650558380699100,3.57669921875,4.556382032376527,6.0314984243243925,2.779995751960576,1.509363055229187,1.220714092254639,-0.0428207963705062
1772650558390672000,3.586671875,5.0334489249944685,6.109340957939624,2.4353446946665644,1.81981098651886,1.014701247215271,-0.5190933346748352
1772650558400644000,3.59664404296875,6.068920100224018,5.932039102184772,1.1682507292993367,1.9813387393951416,0.587751567363739,-1.1644151210784912
1772650558410617000,3.6066171875,7.047682130759954,5.553486359810829,-0.93684136271663,1.95829176902771,0.0495000556111335,-1.9773322343826292
1772650558420589000,3.616589111328125,7.553511592003702,5.290376106128096,-3.310706556482613,1.7324506044387815,-0.4987771809101105,-2.93503999710083
1772650558430562000,3.62656201171875,7.218736032035946,5.162606050783396,-5.292958523836732,1.390018105506897,-0.837999165058136,-3.9457814693450928
1772650558440534000,3.636533935546875,5.890539801582694,5.192764457681775,-6.131205583745241,1.1334199905395508,-0.9643675684928894,-4.892350196838379
1772650558450507300,3.64650732421875,3.744408062365651,5.474043405261636,-5.565797559851408,1.1153960227966309,-1.2285330295562744,-5.670719146728516
1772650558460479000,3.65647900390625,0.2827712319642305,5.710690599432588,-4.011376160520315,1.3443522453308103,-1.4679484367370603,-5.884485244750977
1772650558470452000,3.666451904296875,-6.6214113593995565,5.120305370670557,-1.879056673556566,1.7940329313278198,-0.7359954118728638,-4.942831993103027
1772650558480425200,3.67642529296875,-10.937129363179206,4.438932295516133,-1.6811466217979787,2.1748809814453125,-0.3954265415668487,-3.928700685501098
1772650558490397000,3.68639697265625,-10.730455282467602,5.257857984361052,-3.349274772068858,2.40346622467041,-0.304698497056961,-2.8912911415100098
1772650558500370000,3.696369873046875,-10.927412271285055,4.013818000714481,-3.890781111371517,2.449016809463501,-0.3883699178695678,-2.095910787582397
1772650558510342100,3.706342041015625,-9.30123204216659,1.682686544716358,-5.132912338787317,2.2918972969055176,-0.656973123550415,-1.5826444625854492
1772650558520315000,3.71631494140625,-7.925078128752112,0.2364268294185399,-5.7930661003023385,2.011051893234253,-0.8993833661079407,-1.1988630294799805
1772650558530287000,3.726287109375,-7.247181205275655,-0.6318617330104113,-5.785224739152193,1.7265108823776243,-1.0768526792526243,-0.928175687789917
1772650558540260000,3.736260009765625,-6.530775979706645,-1.604490375357866,-5.017336579105257,1.4897747039794922,-1.1670385599136353,-0.776892900466919
1772650558550231800,3.746231689453125,-5.4760775414377445,-2.608288939733803,-4.146807252012193,1.2782049179077148,-1.212394952774048,-0.777713418006897
1772650558560205000,3.756205078125,-4.124977405259013,-3.442239471492171,-3.527011804370582,1.0609272718429563,-1.1992169618606567,-0.9242088794708252
1772650558570177000,3.766177001953125,-2.7783342484891413,-4.164518849791587,-2.927524108481407,0.8530430793762207,-1.1347134113311768,-1.1942073106765747
1772650558580150000,3.77614990234375,-1.791694616445899,-4.821940263733268,-2.2119290302515027,0.6472896933555603,-1.0318952798843384,-1.5157214403152466
1772650558590122000,3.7861220703125,-1.3064227900624277,-5.271383236366511,-1.487840264442563,0.4854898452758789,-0.863425076007843,-1.7899566888809204
1772650558600095000,3.796094970703125,-1.2375152580529452,-5.539650142160058,-0.839437438736856,0.3105722367763519,-0.6616422533988953,-1.9912704229354856
1772650558610067200,3.806067138671875,-1.3571394163429735,-5.72230329581499,-0.5874930144518613,0.0972759425640106,-0.4480167925357818,-2.0842320919036865
1772650558620040000,3.8160400390625,-1.4099182358503342,-5.7963885227233165,-0.2621057528153062,-0.0887448266148567,-0.1828598976135254,-2.1002159118652344
1772650558630012200,3.82601220703125,-1.26991998257339,-5.804713867998123,0.5296648026004434,-0.2887210547924042,-0.0816856101155281,-1.930208683013916
1772650558639985200,3.835985107421875,-1.177107843363285,-6.112063660901785,0.8828703377500176,-0.5509042143821716,-0.1451764851808548,-1.650397777557373
1772650558649956900,3.845956787109375,-0.6844295401155949,-6.046881871417164,0.6715875941991806,-0.8439680337905884,-0.2701181769371032,-1.2179946899414062
1772650558659930000,3.85593017578125,-0.6827063695847988,-6.8140358719706535,1.1043290228784084,-1.0688644647598269,-0.3726920783519745,-0.7933131456375122
1772650558669902000,3.865902099609375,-0.0037035306930541,-7.357883805963397,1.494720379345119,-1.2733875513076782,-0.3777590095996856,-0.495245486497879
1772650558679875000,3.875875,1.117774779906869,-7.041319609990715,1.7699679378062485,-1.4328241348266602,-0.1439032852649688,-0.3837811052799225
1772650558689847000,3.885846923828125,2.217550377264619,-6.825089765426516,2.514508832274377,-1.5003546476364136,0.1996799111366272,-0.4296029210090637
1772650558699820000,3.895820068359375,3.259206378608942,-6.319602834010124,3.751388130511344,-1.4479994773864746,0.5613023638725281,-0.5948134064674377
1772650558709792300,3.905792236328125,4.144865178033709,-5.674335675981641,5.186127211624384,-1.324755311012268,0.8335983157157898,-0.8237722516059875
1772650558719765000,3.915764892578125,4.662728191420436,-5.123753465297818,6.411591381877661,-1.1394944190979004,0.9444246292114258,-1.0349079370498655
1772650558729737000,3.925737060546875,4.4689510016828775,-4.736638061761856,7.210684827527404,-0.9619494080543518,0.851542592048645,-1.1708213090896606
1772650558739710200,3.935710205078125,3.5975673958480354,-4.322849755355716,7.057711357343196,-0.7989150285720825,0.6427915692329407,-1.158182978630066
1772650558749682000,3.945681884765625,1.8344430403262373,-3.919681334902346,6.625268619349598,-0.6514989733695984,0.4383952617645263,-0.9431570768356324
1772650558759655000,3.955655029296875,-0.4371411249428987,-3.715964642691612,5.837649922916293,-0.5430514812469482,0.2905443906784057,-0.5259099006652832
1772650558769627100,3.965627197265625,-2.535266665881872,-3.649208735758066,4.822608079992235,-0.5273601412773132,0.229142278432846,-0.0380057357251644
1772650558779600100,3.97560009765625,-3.9257454572469,-4.105351498290896,3.534691252957284,-0.6253163814544678,0.2586559951305389,0.4034903645515442
1772650558789572000,3.985572021484375,-4.701247014907002,-4.55557480764687,2.40517635089606,-0.6358616948127747,0.4021013081073761,0.682485818862915
1772650558799545000,3.995545166015625,-5.443248454025388,-4.7317631492018695,2.117932649692893,-0.6115037798881531,0.6394880414009094,0.8798998594284058
1772650558809517000,4.00551708984375,-6.71875880395174,-5.397003420200944,1.7466422995373605,-0.5730453729629517,0.8667702078819275,1.1056636571884155
1772650558819490000,4.015489990234375,-8.521863872206211,-5.94966711333394,1.2031500471144914,-0.4944928586483001,1.0461305379867554,1.434760332107544
1772650558829462000,4.0254619140625,-10.7454178737998,-6.203160228365659,0.7231605450481176,-0.3727611005306244,1.207160472869873,1.9234235286712649
1772650558839435000,4.03543505859375,-13.34150521134734,-6.415029539632797,0.0508762007564306,-0.2381938397884369,1.36178719997406,2.5397298336029053
1772650558849407200,4.0454072265625,-15.86627854026556,-6.511203848752379,-1.190799830237776,-0.1397141367197036,1.522287130355835,3.1935200691223145
1772650558859380200,4.055380126953125,-18.224099558007715,-6.526081684410571,-2.766814783348143,-0.1071227490901947,1.645470142364502,3.819958209991455
1772650558869352200,4.065352294921875,-20.62303116929531,-6.71083327164948,-4.370452633529902,-0.1800528764724731,1.5930055379867554,4.425040721893311
1772650558879325200,4.0753251953125,-23.621354907143115,-6.967391619470715,-5.691414236554503,-0.31931272149086,1.3616397380828855,5.1100053787231445
1772650558889297200,4.085297119140625,-27.22434549708366,-6.549878155061602,-6.4731871295690535,-0.4131076633930206,1.0565760135650637,5.940918445587158
1772650558899270100,4.095270263671875,-30.07334259681701,-4.976076932477951,-6.915382615292072,-0.4213540256023407,0.7846968173980713,6.774436473846436
1772650558909242000,4.1052421875,-30.3687552836895,-2.082944338420033,-7.822509150159359,-0.4203689396381378,0.8476027846336365,7.464441299438477
1772650558919215000,4.115215087890625,-29.296288549017905,0.4585884021192788,-8.778087288984656,-0.269208014011383,1.4611389636993408,8.071382522583008
1772650558929187000,4.12518701171875,-26.7940204818964,3.661194357106089,-9.314971229183673,-0.0367206968367099,2.1739065647125244,8.534982681274414
1772650558939160000,4.13516015625,-22.258890496385096,7.794068068572878,-10.089522354251146,0.109703928232193,2.7467007637023926,8.870278358459473
1772650558949132300,4.14513232421875,-17.105137614142894,9.12277166402638,-9.623302434340118,0.2339028418064117,2.9185352325439453,9.083100318908691
1772650558959105000,4.15510498046875,-11.51131924394369,8.686753990155458,-7.750261660072207,0.2717959880828857,2.661926746368408,9.033273696899414
1772650558969078000,4.165078125,-5.388291121435165,7.970706491982936,-5.800739703670144,0.1451200544834137,2.1433355808258057,8.656035423278809
1772650558979050200,4.17505029296875,-0.2161053414016961,6.706741618421673,-4.12748149703443,-0.115707129240036,1.5386837720870972,8.003710746765137
1772650558989023200,4.185023193359375,3.1218998486340044,5.182257092192769,-2.1542304361291227,-0.3206222057342529,1.0056403875350952,7.134033679962158
1772650558998995000,4.194994873046875,5.686573810786008,4.389204680272937,0.2291269547339528,-0.3708181083202362,0.7235478162765503,6.033049583435059
1772650559008968200,4.20496826171875,7.744848987373709,3.8647038363069295,2.4618480861887333,-0.2450604289770126,0.6661572456359863,4.682329654693604
1772650559018940200,4.214940185546875,9.340952642658351,3.277874838721752,4.102086943536997,-0.008149828761816,0.7942428588867188,3.179558515548706
1772650559028913000,4.224912841796875,10.261277097272872,2.979613776680827,4.882253862659633,0.2765175700187683,0.9046194553375244,1.6759400367736816
1772650559038885000,4.234885009765625,10.184645108491182,2.885229858109355,4.785301847165822,0.5249188542366028,0.8469909429550171,0.3941988945007324
1772650559048858000,4.244858154296875,8.640338860461116,3.190734899929166,3.5620471696555613,0.6614258289337158,0.676947295665741,-0.4956167340278625
1772650559058830000,4.254830078125,5.986198562395573,4.216117811864614,1.5130464557610452,0.6751416921615601,0.4976567029953003,-1.0113677978515625
1772650559068803000,4.264802978515625,3.442308445075154,5.458171297869086,-0.4249781742665916,0.5943275094032288,0.3689892888069153,-1.213004469871521
1772650559078775000,4.274775146484375,1.3012491868168117,6.558169598066806,-2.0417662325963377,0.4244192838668823,0.3757169246673584,-1.1855957508087158
1772650559088748300,4.284748291015625,-0.3239040373414755,7.503149770510197,-3.4529414827704428,0.1735647022724151,0.5387678742408752,-1.0099117755889893
1772650559098720000,4.294719970703125,-1.1368510901682078,8.271883733731508,-4.5268613388597965,-0.1705131232738495,0.7462431192398071,-0.7696046829223633
1772650559108693200,4.304693359375,-0.9195701291158794,8.98638341794014,-5.264765279531479,-0.5667137503623962,0.9071313142776488,-0.5694180727005005
1772650559118665200,4.314665283203125,0.1691514286555349,9.715625328728557,-5.420023645782471,-0.95600426197052,0.9577332735061646,-0.4829763770103454
1772650559128638000,4.324637939453125,1.537190278545022,10.416201117002965,-4.988253692483902,-1.2618043422698977,0.9157274961471558,-0.4743639826774597
1772650559138610200,4.334610107421875,2.544164842608571,11.247252127927542,-4.026559701126813,-1.44310462474823,0.8561456203460693,-0.4916095435619354
1772650559148583200,4.344583251953125,3.1416298004984853,11.995198154664038,-2.7852766149729487,-1.4679417610168457,0.781744122505188,-0.5198100209236145
1772650559158555100,4.35455517578125,3.481419389235973,12.57696577720642,-1.4095663536727427,-1.3304790258407593,0.6661505699157715,-0.5339974761009216
1772650559168528100,4.364528076171875,3.631313598105311,13.093631689763068,-0.3069934902792796,-1.120535135269165,0.505014955997467,-0.5097514986991882
1772650559178500000,4.3745,3.597458090254664,13.091583525061608,0.2008594213497825,-0.9206407070159912,0.2955310940742492,-0.4634881913661957
1772650559188473300,4.384473388671875,3.2906226766139266,12.794026811897751,0.1764560343141667,-0.7695212364196777,0.0949236676096916,-0.4010724723339081
1772650559198445000,4.394445068359375,2.929614358758926,12.706070296025276,-0.4928729855695739,-0.6880338788032532,-0.0375155359506607,-0.278584361076355
1772650559208418000,4.40441796875,2.451360302183032,12.91029990619421,-1.351957922051847,-0.6840545535087585,-0.1148931458592414,-0.1095045357942581
1772650559218390300,4.414390380859375,2.141457902187109,12.816797446632384,-2.0378144262306392,-0.7292423248291016,-0.1162321269512176,0.0671296492218971
1772650559228363000,4.424363037109375,2.282856231520325,12.62989774144888,-2.184326299185306,-0.791229784488678,-0.1191925033926963,0.2007659971714019
1772650559238335200,4.434335205078125,2.8026801697164774,12.39089492406249,-2.0726634751632806,-0.851137101650238,-0.1820744574069976,0.2912362515926361
1772650559248308200,4.44430810546875,3.2740970737487074,12.06170271718502,-1.8542042641118168,-0.9040874242782592,-0.3134817481040954,0.3427918553352356
1772650559258280000,4.454280029296875,3.899664675050974,11.859621809482574,-1.4876809822276231,-0.919468879699707,-0.4580652415752411,0.292926013469696
1772650559268253200,4.464253173828125,4.637440020906925,11.619820535194874,-1.1271445196680725,-0.9207288026809692,-0.56047523021698,0.1272254586219787
1772650559278225200,4.47422509765625,5.247158311170339,11.308976470434663,-0.9270616539150476,-0.9327796101570128,-0.6087653040885925,-0.125881940126419
1772650559288198100,4.4841982421875,5.680428732159734,11.082670637536047,-0.938451866653189,-0.9497599601745604,-0.6396275758743286,-0.4328797161579132
1772650559298170000,4.494170166015625,5.939711536508798,11.013844354069231,-0.9406451389137654,-0.9659878015518188,-0.6625922322273254,-0.7822122573852539
1772650559308143000,4.50414306640625,5.99800941169858,10.9927571423769,-0.8827737455077469,-0.9644732475280762,-0.6653099656105042,-1.1382745504379272
1772650559318115300,4.514115234375,5.875243448251486,10.899964292389154,-0.7462443373851477,-0.9439843893051147,-0.6743422746658325,-1.497067093849182
1772650559328088000,4.524088134765625,5.5475727518528695,10.761672258508204,-0.503730735398829,-0.8750956058502197,-0.6415334343910217,-1.8129256963729856
1772650559338060000,4.53406005859375,4.901317751830816,10.656536644297836,-0.0144184014528989,-0.7492139339447021,-0.6109185814857483,-2.064015388488769
1772650559348033300,4.544033203125,4.148317364314198,10.547477719163894,0.4826259880498051,-0.5776086449623108,-0.6016380190849304,-2.2319016456604004
1772650559358005000,4.5540048828125,3.388838720694184,10.15329953763485,0.6766745420746505,-0.4205473065376282,-0.6370515823364258,-2.367630243301392
1772650559367978000,4.56397802734375,2.6053353506252166,9.51610228881538,0.5284137796260416,-0.3082319498062134,-0.6039287447929382,-2.449500322341919
1772650559377950200,4.5739501953125,1.4357926818192004,8.512293495306372,0.7291681148998439,-0.2093515545129776,-0.4939222633838653,-2.3625741004943848
1772650559387923200,4.583923095703125,-0.5654688141703605,7.010190312233567,1.4705635509490966,-0.0872299000620842,-0.3556863367557525,-2.0670173168182373
1772650559397895200,4.593895263671875,-1.8814844852253796,5.170348043212294,2.642988204932213,0.0027735158801078,-0.2189331501722335,-1.705536961555481
1772650559407868200,4.6038681640625,-1.6271721627652644,3.118847475326061,3.866391935524344,0.0331758968532085,-0.271903932094574,-1.37334406375885
1772650559417840000,4.613840087890625,-0.8960112666130066,0.4265414049953222,5.589168498566746,0.157369777560234,-0.6259441375732422,-1.1993192434310913
1772650559427813000,4.623813232421875,0.6976157694250344,-2.441761283710598,7.709275569689273,0.3673970699310303,-1.3256419897079468,-1.3222302198410034
1772650559437785000,4.63378515625,2.6160779861748216,-5.440643239963054,9.208362619811297,0.6697756052017212,-2.3602216243743896,-1.9309700727462769
1772650559447758000,4.643758056640625,4.339248516970873,-7.4565464247673745,9.43597602817714,1.136368989944458,-3.449218511581421,-3.141100645065308
1772650559457730000,4.65372998046875,5.160045260384679,-7.734610501953959,7.903177847111225,1.5214812755584717,-4.162404537200928,-4.712252140045166
1772650559467703000,4.663703125,3.207931533923745,-7.107822418946028,2.8401936155527827,1.5222830772399902,-4.09972620010376,-6.17170524597168
1772650559477675300,4.67367529296875,-2.8125381313860416,-5.695800488814712,-3.3094258690223097,1.1841896772384644,-3.2494850158691406,-7.113898277282715
1772650559487648300,4.683648193359375,-10.466159033870696,-4.213194617894292,-7.881821755349636,0.5562271475791931,-1.825248122215271,-7.247780799865723
1772650559497620200,4.6936201171875,-17.371478520309925,-2.403895371174812,-9.68635597962439,0.081022709608078,-0.3975454270839691,-6.593643665313721
1772650559507593200,4.70359326171875,-20.578240425932407,-1.1142337462991476,-7.136041966736316,-0.0413695238530635,0.554008424282074,-5.522380352020264
1772650559517565000,4.71356494140625,-20.03704797488451,-1.576456121006608,-3.153808314070105,0.1153846755623817,0.7233148813247681,-4.425164222717285
1772650559527538200,4.7235380859375,-16.616835041761398,-2.330935348904133,-0.2084226962109096,0.403089702129364,0.2444202005863189,-3.573208808898926
1772650559537510100,4.73351025390625,-12.420128032809496,-2.7648516665816305,1.3057732401125133,0.76731276512146,-0.542768120765686,-3.0015878677368164
1772650559547483100,4.743483154296875,-9.137770495715737,-3.2535096282720564,1.9290708506561816,1.20903480052948,-1.3712091445922852,-2.6411752700805664
1772650559557456100,4.7534560546875,-7.28018155760169,-3.532089838287234,1.9131001051947476,1.6870696544647217,-1.9170498847961424,-2.3650307655334477
1772650559567428000,4.763427978515625,-6.583920709916949,-3.26791926189661,1.1754608068086203,2.136256217956543,-2.063547134399414,-2.080228090286255
1772650559577401000,4.773401123046875,-6.287411459979414,-2.856290471611917,-0.133165557712689,2.4664289951324463,-1.9236266613006592,-1.7996711730957031
1772650559587373000,4.783373046875,-5.975801087021828,-2.6501079738095403,-1.7077493820413947,2.642220497131348,-1.5361071825027466,-1.484085202217102
1772650559597346000,4.793345947265625,-5.837197502973676,-2.491425478328764,-3.2006390388280157,2.6088924407958984,-0.994396150112152,-1.120150446891785
1772650559607318300,4.803318359375,-5.252389782083034,-2.3666946445494887,-4.593415293480455,2.4179224967956543,-0.507544219493866,-0.7390012145042419
1772650559617291300,4.813291259765625,-3.751835582017898,-2.298252099703252,-4.8255000020414585,2.206307411193848,-0.1744493544101715,-0.3974820077419281
1772650559627263000,4.823262939453125,-1.9055846149981024,-2.5909718942299484,-3.5075621307522056,1.9796006679534912,-0.1229041367769241,-0.1895221322774887
1772650559637236200,4.833236328125,0.4570820892095565,-2.401125906461477,-2.96600347674042,1.6832387447357178,-0.2280044555664062,-0.0784688591957092
1772650559647208200,4.843208251953125,2.2732132277756927,-1.9029227023124693,-2.318068853068352,1.4154936075210571,-0.432411640882492,-0.026274362578988
1772650559657181000,4.853180908203125,3.2855975419282912,-1.5036723320856689,-1.190015547992289,1.2376432418823242,-0.6382166743278503,0.0065736407414078
1772650559667153200,4.863153076171875,3.712527069458365,-1.22498281647712,-0.0953740986526012,1.1319562196731567,-0.7967450618743896,0.0049315355718135
1772650559677126100,4.873126220703125,3.927875455012917,-0.856313754735887,0.7410662040948868,1.0877248048782349,-0.8215062022209167,-0.0552013218402862
1772650559687098000,4.88309814453125,4.016639780136942,-0.5075651989951729,1.506525967951119,1.0947911739349363,-0.6698147058486938,-0.1677214652299881
1772650559697071000,4.893071044921875,3.9880420466840265,-0.4664721411064267,1.878239804215729,1.0920439958572388,-0.4027688801288605,-0.3444014489650726
1772650559707043000,4.90304296875,4.052783106663823,-0.4509574688494205,1.7574375420570372,1.0422745943069458,-0.1071177870035171,-0.5676859617233276
1772650559717016300,4.913016357421875,4.018709572148323,-0.4894958738192915,1.485855228105187,0.939543068408966,0.0771207436919212,-0.7910462617874146
1772650559726988000,4.922988037109375,3.65554203043282,-0.6839902719154953,1.2703104431957006,0.7961443662643433,0.1175611093640327,-0.938721239566803
1772650559736961000,4.9329609375,2.74165199277997,-0.9619076341077684,1.013765247116983,0.6218005418777466,0.0164067931473255,-0.965318500995636
1772650559746933200,4.942933349609375,1.38886960260272,-1.0356795572832227,0.8739148778781294,0.457319438457489,-0.2024342119693756,-0.8229962587356567
1772650559756906000,4.952906005859375,-0.7933318133831023,-1.04081282851845,1.004125019851327,0.3196142017841339,-0.4214331209659576,-0.4213071465492248
1772650559766878200,4.962878173828125,-3.017887100973725,-1.2568430588573216,1.243638417108357,0.2557606697082519,-0.6389268040657043,-0.002092563547194
1772650559776851200,4.972851318359375,-3.745375446093082,-1.3194257717594504,1.5452476205334067,0.2342589944601059,-0.8016420602798462,0.3070656061172485
1772650559786823000,4.982822998046875,-4.366846133470535,-1.4794246105358004,1.8653502197653051,0.2646930515766144,-0.8208189606666565,0.4435946941375732
1772650559796796200,4.992796142578125,-4.775303600242734,-1.7019813200339673,1.613250604918599,0.2877199649810791,-0.7512966990470886,0.4522542059421539
1772650559806768000,5.00276806640625,-5.400174451452493,-1.910172819571197,0.9902370720133185,0.2817938923835754,-0.698738694190979,0.3754470646381378
1772650559816741000,5.0127412109375,-6.14748919454813,-2.205068496832252,0.1981508747771382,0.2230390459299087,-0.6694851517677307,0.264421135187149
1772650559826713000,5.022713134765625,-7.180629881003498,-2.5766414633214474,-0.8104469065740704,0.0968235805630683,-0.617303192615509,0.1906499862670898
1772650559836686000,5.03268603515625,-8.384834405606984,-2.6898317891716954,-1.974357414712012,-0.0739321485161781,-0.4407119154930115,0.1703718602657318
1772650559846657800,5.04265771484375,-9.282312237641214,-2.472697104722261,-3.002273352256417,-0.282320499420166,-0.0958994179964065,0.161369040608406
1772650559856630800,5.052630859375,-9.511561138254404,-2.138954102672636,-3.841240835393965,-0.511574923992157,0.3630852401256561,0.1603038609027862
1772650559866602800,5.062602783203125,-9.161385764580965,-1.6230182579562067,-4.260534753479063,-0.7367888689041138,0.8827457427978516,0.2193916887044906
1772650559876575700,5.07257568359375,-8.468084351223707,-0.887448020929098,-4.111821278826892,-0.902015209197998,1.3138258457183838,0.3298489153385162
1772650559886547700,5.082547607421875,-7.091158868914842,0.0551017094969749,-3.15821970077157,-0.969475507736206,1.6184629201889038,0.4988565742969513
1772650559896521000,5.09252099609375,-5.447865007910132,0.6337602601081133,-1.7520587716281413,-0.94455748796463,1.6967040300369265,0.7122281789779663
1772650559906492700,5.10249267578125,-3.587137771770358,1.0413444511771202,-0.4727697799459099,-0.8418713212013245,1.5671948194503784,0.9147107005119324
1772650559916465700,5.112465576171875,-1.6216069298535585,1.413523566865921,0.5191127211868762,-0.6950424909591675,1.2937122583389282,1.0594255924224854
1772650559926438000,5.12243798828125,0.1773655686408281,1.4807611198365689,1.212759002459049,-0.5386483669281006,0.9785262942314148,1.1254820823669434
1772650559936410600,5.13241064453125,1.5647335345089437,1.4175290031149983,1.334582570489496,-0.4379795491695404,0.7012685537338257,1.133033275604248
1772650559946382800,5.1423828125,2.5160394028425217,1.4351082066863774,1.018724769220501,-0.3946850597858429,0.5245826840400696,1.1175874471664429
1772650559956355800,5.15235595703125,3.039488107407093,1.5364879754945635,0.7146481527686118,-0.3640862703323364,0.4516207277774811,1.0744943618774414
1772650559966327600,5.16232763671875,3.492763205549121,1.5504033958613872,0.6745781543172895,-0.3558403253555298,0.4572482705116272,1.0112876892089844
1772650559976300800,5.17230078125,4.05150125015974,1.4312179212495684,0.6710156395301222,-0.3582299053668976,0.474491149187088,0.9032596945762634
1772650559986272800,5.182272705078125,4.73845767840445,1.242469957850873,0.896748933237791,-0.3612110614776611,0.490408331155777,0.7433267831802368
1772650559996245800,5.192245849609375,5.422621845582127,1.059668627896905,1.181393850119412,-0.3726001381874084,0.4935043454170227,0.5614573955535889
1772650560006217700,5.2022177734375,5.99347585992217,0.97919369995147,1.329536246885359,-0.3924468159675598,0.4660426080226898,0.3783581256866455
1772650560016190700,5.212190673828125,6.4273196968853465,0.9793059281542896,1.395415955506265,-0.4353832304477691,0.4041081964969635,0.2135978937149047
1772650560026163000,5.222162841796875,6.778160256469249,0.91806820012033,1.502538359619677,-0.4885516464710235,0.2805274128913879,0.0657226741313934
1772650560036135700,5.2321357421875,7.075875959587097,0.9008461394235492,1.6759611819840967,-0.5334613919258118,0.134094700217247,-0.0906706228852272
1772650560046107600,5.242107666015625,7.365000359970331,0.96237115996629,1.895419194814563,-0.5485628247261047,0.0061308634467422,-0.2670544385910034
1772650560056081000,5.252080810546875,7.54454619525969,0.9686234983593224,2.150453694069385,-0.5370186567306519,-0.087881788611412,-0.4582406282424927
1772650560066052600,5.262052490234375,7.571665088331699,1.033622040231526,2.0907460982121524,-0.5034253001213074,-0.0945285037159919,-0.6032103300094604
1772650560076025600,5.272025634765625,7.197211013448238,0.7939654351115226,2.234419825131446,-0.4308635592460632,-0.1248912885785102,-0.6491953730583191
1772650560085997800,5.281997802734375,6.689412297958135,0.7865496058970689,1.960170191666484,-0.4037334024906158,-0.2083632797002792,-0.5704659223556519
1772650560095970800,5.291970703125,6.293447817534208,0.97894147875607,1.3439612242095171,-0.3974851369857788,-0.3420860767364502,-0.3985483348369598
1772650560105942800,5.30194287109375,6.028078971269727,0.9735624160662292,0.9643192252941428,-0.3891768753528595,-0.5258013606071472,-0.17092265188694
1772650560115915800,5.311915771484375,5.883914245963096,1.015514136610925,0.587066605733335,-0.3818186521530151,-0.7527989745140076,0.0852979943156242
1772650560125887700,5.3218876953125,5.800574868497252,0.98556235820055,0.1388710028126835,-0.3650684356689453,-0.9753185510635376,0.3149844408035278
1772650560135859700,5.331859619140625,5.784871687930822,0.6211033153697848,-0.6342964128114282,-0.3676181137561798,-1.1930187940597534,0.3978034555912018
1772650560145832000,5.34183203125,5.752051952868699,-0.2143088133737444,-1.6622351467095315,-0.426522433757782,-1.3281620740890503,0.3128110766410827
1772650560155805000,5.351804931640625,5.253603249526024,-1.1356623187750576,-3.1117078327044845,-0.6048812866210938,-1.239997625350952,0.0862058773636818
1772650560165776600,5.361776611328125,3.5439860277861355,-1.9416344180226328,-5.201454544615745,-0.9859479665756226,-0.792170524597168,-0.0155772073194384
1772650560175750000,5.37175,-1.1666373027533292,-2.7907977164819835,-6.894864143398404,-1.3767313957214355,0.0052829892374575,0.2587555348873138
1772650560185721600,5.3817216796875,-5.157184025734662,-2.970783112232387,-6.885328253290057,-1.6950188875198364,0.7168554067611694,0.8022803068161011
1772650560195694600,5.391694580078125,-8.061886061555146,-2.871617512342333,-5.998603285938501,-1.908384203910828,1.2102209329605105,1.594592571258545
1772650560205666800,5.401666748046875,-9.8661426379323,-3.820615103733539,-3.892250599402189,-1.9560885429382324,1.2547916173934937,2.27874755859375
1772650560215639800,5.411639892578125,-9.285607772055268,-4.950354462200403,-1.8075564947053788,-1.8923969268798828,0.9386569261550904,2.568885564804077
1772650560225611800,5.42161181640625,-8.663739025270939,-7.120504205864667,0.7438831612117588,-1.5488395690917969,0.3696712553501129,2.4684646129608154
1772650560235584800,5.431584716796875,-9.63474971102774,-10.374204388272762,3.4860882578298447,-1.0945378541946411,-0.2672361135482788,2.238924503326416
1772650560245556700,5.441556640625,-13.034329605966803,-12.757711635935308,3.663952131381631,-0.8068122863769531,-0.7583515048027039,2.149945974349976
1772650560255529700,5.45152978515625,-17.744304117208717,-13.768352321290967,1.1574178581830112,-0.7019779682159424,-1.0055221319198608,2.279299736022949
1772650560265501700,5.461501708984375,-22.391499808454512,-13.26882692862749,-1.9966123550094663,-0.674516499042511,-0.782995879650116,2.6306519508361816
1772650560275474700,5.471474609375,-25.73708332479,-11.938422374475,-5.091358093127608,-0.6806324124336243,-0.1579728722572326,3.0389318466186523
1772650560285448000,5.481447998046875,-26.75976282298565,-10.988335818803307,-6.937392202526331,-0.7014897465705872,0.6278561949729919,3.506960868835449
1772650560295419600,5.491419677734375,-26.127088020026683,-9.900451734769344,-7.670875988668203,-0.8043956160545349,1.2918663024902344,4.080846786499023
1772650560305392600,5.501392578125,-23.827080893349645,-8.397477614080906,-7.210678397786617,-0.9524143934249878,1.5020655393600464,4.645387649536133
1772650560315364900,5.51136474609375,-19.73793877158165,-7.529101373368501,-5.042172914198041,-1.0816872119903564,1.3235929012298584,4.990517139434815
1772650560325337600,5.521337646484375,-14.173664475774764,-6.874032952293753,-2.2373596779756246,-1.192592978477478,0.9004440903663635,4.837123394012451
1772650560335309800,5.531309814453125,-8.321763909187913,-6.82931644321084,0.8430046296991407,-1.1037979125976562,0.5494696497917175,4.19189977645874
1772650560345282800,5.54128271484375,-3.195971047016978,-6.702077718263864,3.3097596310213206,-0.9661129713058472,0.3935631215572357,3.1176559925079346
1772650560355254500,5.551254638671875,0.5021320680305361,-5.578029849436879,3.731144383905828,-0.7700454592704773,0.5633324384689331,1.840239644050598
1772650560365227800,5.561227783203125,1.9700603020399807,-4.550771791279316,3.5221222787633537,-0.5546926259994507,0.8990793228149414,0.6435408592224121
1772650560375199700,5.57119970703125,1.474406782373786,-2.4913953754514453,2.42412114373222,-0.4738613069057464,1.2946593761444092,-0.1877529621124267
1772650560385172700,5.5811728515625,-0.2878220856130123,0.2471960607141256,0.197585569044575,-0.5048900842666626,1.656680703163147,-0.5846171975135803
1772650560395144700,5.591144775390625,-2.153589361746609,2.971992780283093,-1.119800878906995,-0.5405882596969604,1.894141674041748,-0.6134310364723206
1772650560405117700,5.60111767578125,-3.554949320349097,5.573188254624605,-1.335556822349131,-0.4886068105697632,1.9621039628982544,-0.3053546845912933
1772650560415090000,5.61108984375,-4.486283244755864,7.753533229088783,-0.8424516719914972,-0.3263643980026245,1.8013428449630735,0.2632725536823272
1772650560425062700,5.621062744140625,-4.515649039971828,9.404424121093747,-0.2718814064962789,-0.1032730117440223,1.472364902496338,0.9372754693031312
1772650560435034600,5.63103466796875,-3.865031753087044,10.55668276988268,-0.227178597145155,0.0912771970033645,1.1340267658233645,1.6002758741378784
1772650560445008000,5.6410078125,-2.646409996074438,11.490666916537284,-0.9551628360226748,0.1960139870643615,0.8733037710189819,2.13551664352417
1772650560454979600,5.6509794921875,-1.0662252099335192,12.169440622848272,-1.9202086220256984,0.2135622799396515,0.6963229775428772,2.5258054733276367
1772650560464952800,5.660952880859375,0.4870803371101617,12.726886289560792,-2.6386265025913715,0.1624841839075088,0.5524600744247437,2.787352561950684
1772650560474924800,5.6709248046875,1.9214163903802632,13.17080494581461,-2.89922681927979,0.0541691854596138,0.4042145311832428,2.9407382011413574
1772650560484897800,5.680897705078125,3.299613792321085,13.442650879138707,-2.9832284600466488,-0.0957673192024231,0.3282912671566009,2.9365038871765137
1772650560494869800,5.690869873046875,4.570310019963979,13.785513883972166,-2.910783693821728,-0.2448638528585434,0.3544730544090271,2.76601505279541
1772650560504842800,5.7008427734375,5.704280732390284,14.16298642989397,-2.637019651916623,-0.4110645353794098,0.3424747288227081,2.4682059288024902
1772650560514815700,5.710815673828125,6.585402472907305,14.3115718942523,-2.18552617649436,-0.4745764136314392,0.2253196984529495,2.1177237033843994
1772650560524787700,5.72078759765625,6.802499747955799,14.4680086566329,-0.8020986188150941,-0.4141295850276947,0.0722976624965667,1.732606291770935
1772650560534760700,5.7307607421875,6.584810352233052,14.574991360014677,0.4112948090899735,-0.2682989239692688,-0.0102245211601257,1.3235753774642944
1772650560544733000,5.74073291015625,6.132243694621324,14.407199675405025,1.040469641103968,-0.0957308858633041,-0.0092846918851137,0.919825315475464
1772650560554706000,5.750705810546875,5.461158789247274,14.365249708425996,1.285339670023322,0.0894171148538589,0.0758183300495147,0.5659099221229553
1772650560564677600,5.760677734375,4.802349428078532,14.216142850542068,1.2170440593671052,0.2265808284282684,0.2221071124076843,0.2556069195270538
1772650560574651000,5.77065087890625,4.547347077527642,13.954501500368115,0.778317857189849,0.3231697976589203,0.303202360868454,-0.0078260833397507
1772650560584622800,5.780622802734375,4.606549792602658,13.751912058621643,0.5825780621424317,0.3936721980571747,0.2671642005443573,-0.2264553606510162
1772650560594595600,5.790595703125,4.572925755420327,13.515204074174164,0.4327519500732422,0.438512235879898,0.2008614242076873,-0.3629794120788574
1772650560604567800,5.80056787109375,4.171259263962507,13.247941961508989,0.2752555225718766,0.4797619581222534,0.1994864344596862,-0.4264023303985595
1772650560614540800,5.810540771484375,3.730855922353268,12.900589828562737,0.1097460306152701,0.4956082701683044,0.201958954334259,-0.4277171194553375
1772650560624512800,5.8205126953125,3.685684655240178,12.564136690771578,0.0424737716574221,0.4966642260551452,0.1400505751371383,-0.4016463756561279
1772650560634485800,5.83048583984375,4.028863301894068,12.214973709011078,0.1684795938085764,0.5088815093040466,0.0230621229857206,-0.3784811496734619
1772650560644457700,5.840457763671875,4.588486312645673,11.858688912546636,0.3366453724276274,0.5181796550750732,-0.0727285891771316,-0.4056613743305206
1772650560654431000,5.850430908203125,5.1066667214185,11.480292822039129,0.2732502471640706,0.5037612915039062,-0.0762910991907119,-0.4838981330394745
1772650560664402700,5.860402587890625,5.430350394007563,11.152582962673902,0.0251029501397162,0.4637776613235473,-0.0247445479035377,-0.5913992524147034
1772650560674375700,5.870375732421875,5.749793360286951,10.84648521565795,-0.1234315512163564,0.4111549258232116,0.0269179530441761,-0.698441743850708
1772650560684348000,5.880347900390625,6.097199853768944,10.444531723952291,-0.0465360891928896,0.3667472600936889,0.0652861148118972,-0.8327417373657227
1772650560694320600,5.890320556640625,6.652286974656581,10.10672717155218,0.0817903579255566,0.3347125947475433,0.0531916432082653,-1.0119352340698242
1772650560704292900,5.90029296875,7.263301149949431,9.822859961044788,0.2134362317902967,0.3281162083148956,-0.0043701860122382,-1.22382652759552
1772650560714265900,5.910265869140625,7.759964723441004,9.375877241045236,0.2782414430474862,0.3276165425777435,-0.0750894546508789,-1.4677021503448486
1772650560724237600,5.920237548828125,8.176942765799165,8.916448880970478,0.1470068168647587,0.3214997947216034,-0.1323913633823394,-1.7477880716323853
1772650560734210800,5.9302109375,8.516353584352135,8.497849374890327,-0.0093361297525465,0.3158368170261383,-0.2225032448768615,-2.056048393249512
1772650560744182800,5.940182861328125,8.602090670609474,7.862852266463637,0.0317756876355968,0.3858878016471863,-0.3064841628074646,-2.396707057952881
1772650560754155500,5.950155517578125,8.266856845480204,7.222388709324598,0.3739371383372694,0.520073413848877,-0.2877896428108215,-2.7343432903289795
1772650560764127700,5.960127685546875,7.315304893431067,6.203797941747308,0.6624143999233841,0.6188774704933167,-0.2178358733654022,-2.9960718154907227
1772650560774100700,5.970100830078125,5.918421495720744,4.421012607944012,0.8111872766125947,0.6440786719322205,-0.1646336317062378,-3.0998663902282715
1772650560784072700,5.98007275390625,4.277687840592861,2.084087078714371,1.155160580775514,0.5320608019828796,-0.1698105484247207,-3.052422523498535
1772650560794045700,5.990045654296875,2.712039237065613,-0.8446633566915989,2.161087170156091,0.4324710369110107,-0.413771778345108,-2.898963451385498
1772650560804017700,6.000017578125,1.6101462091624736,-4.338532477656006,5.125598800903559,0.7155483365058899,-0.960720419883728,-2.885314702987671
1772650560813991000,6.009990966796875,1.347985219028592,-8.03461343922615,9.034115475451946,1.2848316431045532,-1.651140809059143,-3.3580164909362797
1772650560823962600,6.019962646484375,2.031097831326723,-10.799719957351684,9.863184957170484,1.804330825805664,-2.325838565826416,-4.483964920043945
1772650560833935600,6.029935546875,2.7390847726404663,-11.336652412867544,6.194159760308265,2.249805450439453,-2.949798107147217,-6.15801477432251
1772650560843908900,6.039908935546875,0.7808774054795503,-10.399511848008633,-0.4666260164938867,2.0645930767059326,-2.980110645294189,-7.62584114074707
1772650560853881000,6.049881103515625,-8.390928046306968,-9.195326612627506,-11.229732837849856,1.2607561349868774,-1.9217029809951784,-8.383975982666016
1772650560863853000,6.05985302734375,-17.778686863803863,-7.088184821540117,-19.482378787148,0.0323544442653656,-0.1745949834585189,-8.449967384338379
1772650560873826000,6.069825927734375,-24.470957473802564,-4.318150199362635,-23.601469472455975,-1.180625557899475,1.5818743705749512,-8.13638687133789
1772650560883799000,6.079799072265625,-26.1927742519021,-2.131946854259074,-20.7923507941246,-1.9421426057815552,2.681155204772949,-7.570408821105957
1772650560893771000,6.08977099609375,-25.62344759325981,-1.9631842787906528,-12.536072625803946,-2.1407787799835205,2.844777107238769,-6.6689629554748535
1772650560903744000,6.099743896484375,-24.84734280900955,-1.7466536977142095,-3.8930920186623927,-1.7429462671279907,2.270174741744995,-5.419497489929199
1772650560913716000,6.109716064453125,-24.34407180007696,-1.2484390953883528,3.002071692204475,-0.890661895275116,1.324616551399231,-3.920945405960083
1772650560923689000,6.11968896484375,-23.65251460003853,-1.091009814839065,6.075078038331866,-0.0268895830959081,0.4308516979217529,-2.3552920818328857
1772650560933661000,6.129660888671875,-21.85777520906925,-1.8614479516297575,4.8272266797035925,0.5226740837097168,-0.1704415827989578,-0.963679850101471
1772650560943634000,6.139634033203125,-18.63012132206559,-2.807263113592565,1.5910633230298756,0.767130970954895,-0.3615151643753052,0.1101562529802322
1772650560953606000,6.14960595703125,-14.580358440005778,-3.450751279249787,-0.9045590224668384,0.8506079912185669,-0.2699342668056488,0.8584520220756531
1772650560963579000,6.159578857421875,-10.43058736975193,-3.7855025815591214,-1.738746577851474,0.962470293045044,-0.0348477363586425,1.387313961982727
1772650560973551000,6.169551025390625,-6.784936034214496,-3.9007200293228026,-1.2231930104508997,0.9447982907295228,0.1267004907131195,1.713223934173584
1772650560983524000,6.179524169921875,-3.276663124844432,-3.3809280937001107,-2.1213275528281925,0.803034782409668,0.2283389568328857,1.9322057962417605
1772650560993496000,6.18949609375,-0.8664572553485631,-3.2210151796415447,-2.426729134273529,0.6060482263565063,0.2836612164974212,2.1168291568756104
1772650561003469000,6.199468994140625,0.8097212226480245,-2.880928361523152,-2.2806075758107007,0.4148753583431244,0.2786608636379242,2.246856689453125
1772650561013441000,6.20944091796875,2.59828923150599,-2.0526655200123787,-1.923327338568121,0.2341450452804565,0.1649399995803833,2.3217432498931885
1772650561023414000,6.2194140625,4.0620471940934655,-1.3574044970199466,-1.4034462633572518,0.0650830566883087,-0.0556477680802345,2.338937997817993
1772650561033386000,6.229385986328125,5.047320213958621,-0.8800386214554309,-0.7199275544762611,-0.0563561394810676,-0.2298170924186706,2.2567009925842285
1772650561043359000,6.23935888671875,5.810905708375572,-0.3123290426209569,0.042296624992229,-0.138865664601326,-0.3081380128860473,2.0828750133514404
1772650561053331000,6.2493310546875,6.370936715406179,0.2334790855288505,0.7314137749347835,-0.1886062026023864,-0.3279829323291778,1.8320552110672
1772650561063304000,6.259303955078125,6.70984367609024,0.5252534158989787,1.3416867034062745,-0.2109173685312271,-0.3033971786499023,1.5145840644836426
1772650561073276200,6.269276123046875,6.731264065259695,0.8233920206040144,1.804907587631792,-0.2361181527376175,-0.2534084916114807,1.1531164646148682
1772650561083249200,6.279249267578125,6.34592502374649,1.0348854842960833,2.108792480903864,-0.2458930164575576,-0.1750215590000152,0.8247220516204834
1772650561093220900,6.289220947265625,5.372305616796017,1.176673543599248,2.692354877908528,-0.2077680826187133,-0.1234843134880065,0.5992369055747986
1772650561103194000,6.299194091796875,3.98868735885024,1.3469406784117222,3.195830761763453,-0.1409797370433807,-0.146164059638977,0.5425853729248047
1772650561113166000,6.309166015625,2.57965818079412,1.4176368474036454,3.572825461040437,-0.038477849215269,-0.300519198179245,0.655813455581665
1772650561123138800,6.319138916015625,1.5112053579390048,1.417585409477353,3.928084129327536,0.1217421814799308,-0.515352725982666,0.8389137387275696
1772650561133111000,6.329111083984375,0.910063172841072,1.5033447075664996,4.143534221690893,0.2863035202026367,-0.7094756960868835,0.8941106200218201
1772650561143084000,6.339083984375,1.6747048983126878,1.1785878527879714,3.422588430082798,0.3733941912651062,-0.8720638155937195,0.6543979048728943
1772650561153056000,6.349055908203125,2.5327502991467714,0.9032137453377246,1.94183943907544,0.340411365032196,-0.8357826471328735,0.1786316782236099
1772650561163029000,6.359029052734375,2.5180408057928085,0.6208668762654066,0.2971178102899343,0.2396546453237533,-0.6154457330703735,-0.3880048394203186
1772650561173001000,6.3690009765625,1.6960767721652985,0.6998392906934022,-1.194925751061365,0.0590896606445312,-0.2512771487236023,-0.8848205208778381
1772650561182974200,6.37897412109375,0.2305786879122257,0.9202642488598824,-2.4544565146327018,-0.178831547498703,0.1581140905618667,-1.1831138134002686
1772650561192946000,6.38894580078125,-1.2218944950729609,1.101280741223693,-3.156626586361229,-0.4276621043682098,0.4884208738803863,-1.2596707344055176
1772650561202919000,6.3989189453125,-2.140750630700588,1.4689783275842665,-2.848227868926525,-0.5980178713798523,0.6712706089019775,-1.1604032516479492
1772650561212891100,6.40889111328125,-2.408148352444172,1.8741805919528007,-1.7233607926711438,-0.6447477340698242,0.6858536005020142,-0.9414709210395812
1772650561222864000,6.41886376953125,-2.209786757525801,2.1765449976593256,-0.4233402708664536,-0.5872412919998169,0.5500989556312561,-0.6516998410224915
1772650561232836000,6.428836181640625,-1.754269433414936,2.2679376254603265,0.5868498211774975,-0.4742092490196228,0.3294106125831604,-0.3608318567276001
1772650561242809000,6.43880908203125,-1.1385235534250735,2.224320017530024,1.034456299098581,-0.3533211648464203,0.1183311194181442,-0.1206770315766334
1772650561252780800,6.44878076171875,-0.4418862736433744,2.084194630742073,1.0079457471832634,-0.2575911581516266,-0.0515143275260925,0.0387406535446643
1772650561262754000,6.458754150390625,0.353032516670227,1.7997043199002742,0.8047098242267966,-0.1917929500341415,-0.1863996982574463,0.1047505661845207
1772650561272726000,6.46872607421875,1.0890005208432674,1.450935890415311,0.5164109514148906,-0.1622795015573501,-0.2685787975788116,0.0826977118849754
1772650561282699000,6.478698974609375,1.7243278841376304,1.129859769976139,0.1540786549471318,-0.1633804440498352,-0.2797470390796661,-0.0412130467593669
1772650561292671000,6.4886708984375,2.2560879054516554,0.8875549884349108,-0.1372153080275282,-0.1634372472763061,-0.2190838754177093,-0.2411384284496307
1772650561302644000,6.49864404296875,2.712404855507612,0.7582680987864733,-0.2096619374159723,-0.1354743242263794,-0.1308562755584716,-0.4942473769187927
1772650561312616200,6.5086162109375,3.009415040704608,0.6913306978061795,-0.1805590309198945,-0.0896752476692199,-0.0183963999152183,-0.7687758207321167
1772650561322589000,6.5185888671875,3.120947662475705,0.5845221819475293,-0.2292354200771078,-0.0827014967799186,0.0644609332084655,-1.0287920236587524
1772650561332561000,6.528560791015625,2.9665614028841256,0.3655199500605464,-0.308233991859667,-0.1013933047652244,0.0897738859057426,-1.2012660503387451
1772650561342534100,6.5385341796875,2.50958920378983,0.2012850811496377,-0.3075690616775304,-0.1329848021268844,0.0440644510090351,-1.2664551734924316
1772650561352505900,6.548505859375,2.03843241199851,0.2015823105305433,-0.211259874131903,-0.151533305644989,-0.0119165033102035,-1.2382192611694336
1772650561362478800,6.558478759765625,1.7154700394213198,0.2785822558417916,-0.0160755575427785,-0.1603965759277343,-0.0074975206516683,-1.2063002586364746
1772650561372451000,6.568451171875,1.8069868781238796,0.5147413742348551,0.2193671927418559,-0.1345822811126709,-0.1229630783200264,-1.1225261688232422
1772650561382424000,6.578424072265625,1.9823177260667084,0.5312701919704675,0.3664363342531025,-0.0925200432538986,-0.2787057757377624,-0.957544445991516
1772650561392396000,6.58839599609375,1.8836761500507595,0.4761214284613728,0.560097788656503,-0.0478938892483711,-0.4301221370697021,-0.7378805875778198
1772650561402369000,6.598369140625,1.9841449414938688,0.6419903283149003,0.8946718347027898,0.0078889485448598,-0.5456743240356445,-0.5032688975334167
1772650561412341000,6.608341064453125,2.317180964317917,0.951731108008325,1.3782067542910574,0.1184247136116027,-0.6757994294166565,-0.2756244838237762
1772650561422314000,6.61831396484375,2.861135281294584,1.2529700168162583,1.892199648246169,0.3307835757732391,-0.8700605034828186,-0.0478422045707702
1772650561432286000,6.628285888671875,3.475809148138761,1.8275521117687223,2.6773236052542924,0.5989064574241638,-0.9767780900001526,0.1470610350370407
1772650561442259200,6.63825927734375,4.088929940322041,1.8784221750453116,3.1434576004475354,0.8526881337165833,-1.077143907546997,0.2372567057609558
1772650561452231000,6.64823095703125,4.757871988448501,1.7441724022924898,3.031550300145149,1.066481113433838,-1.1461938619613647,0.2444661259651184
1772650561462204000,6.658203857421875,5.220089686980844,1.6804574704900384,2.6428148941919205,1.1946057081222534,-1.08304762840271,0.137327954173088
1772650561472176000,6.668176025390625,5.568669900417327,1.5391791142746805,1.8714158034145831,1.1947762966156006,-0.8543140292167664,-0.0873613357543945
1772650561482149000,6.678149169921875,5.484725542795657,1.2178832136049866,0.6170917416408658,1.0496596097946167,-0.5012640953063965,-0.3659010827541351
1772650561492121900,6.688121826171875,5.158142641633749,0.9450254728898404,-0.4477141030140221,0.8098105192184448,-0.1180689707398414,-0.635416567325592
1772650561502094000,6.698093994140625,4.948385792475938,0.9413105440199374,-1.1886370992459356,0.5785709023475647,0.3956324160099029,-0.9225292801856996
1772650561512067000,6.708067138671875,4.622890686550736,1.0167746580660342,-1.7975895197033882,0.4137470722198486,0.9871060848236084,-1.2555227279663086
1772650561522039000,6.7180390625,4.2476077596277,0.9687874567493796,-2.056469150079041,0.2921599149703979,1.5871317386627195,-1.6008095741271973
1772650561532012000,6.728011962890625,3.6692210116952655,0.6625497167408466,-2.053634657305479,0.1422436088323593,2.077960968017578,-1.850929856300354
1772650561541984000,6.73798388671875,2.696328749975562,0.2012637461006641,-1.9630698586307465,-0.0525708869099617,2.298304796218872,-1.8790706396102903
1772650561551957000,6.74795703125,0.995333226108551,-0.3227171656444668,-1.7922832299888134,-0.2496360689401626,2.0978996753692627,-1.5848344564437866
1772650561561929000,6.757928955078125,-1.6530010160267352,-0.9137366006568074,-1.1782321712180972,-0.3258525431156158,1.5601967573165894,-0.877090573310852
1772650561571902000,6.76790185546875,-5.021774269291758,-1.217127426801622,-0.272337552765943,-0.2419130504131317,0.7656863331794739,0.27952840924263
1772650561581874000,6.7778740234375,-8.30126881816983,-1.0134560350373387,0.7225086570106446,-0.0768726989626884,-0.1684379279613495,1.740290284156799
1772650561591847000,6.787846923828125,-10.938695881843566,-1.056691657912731,1.6093931988380847,0.1113296151161193,-1.0345107316970823,3.115985631942749
1772650561601819100,6.797819091796875,-12.38311727579832,-2.068143075129389,1.9112047929674385,0.2689261436462402,-1.5609333515167236,3.999427318572998
1772650561611792100,6.807792236328125,-12.069492055886982,-3.583607259556651,1.5175024122565983,0.3432009220123291,-1.7124905586242676,4.086806774139404
1772650561621763800,6.817763916015625,-10.873846685314176,-5.656103269198536,0.4993411952029913,0.2737864255905151,-1.613000750541687,3.413897752761841
1772650561631737000,6.827737060546875,-11.357357347244024,-8.986144348487258,0.1511928703777492,0.3603639602661133,-1.316515326499939,2.5318384170532227
1772650561641709000,6.837708984375,-14.276484214258192,-11.572971105736494,0.4824870179705322,0.4990784525871277,-1.2162513732910156,1.813132405281067
1772650561651681800,6.847681884765625,-18.81314915425181,-10.9765647169888,-1.513409297724068,0.5146427154541016,-1.1140979528427124,1.6538275480270386
1772650561661654000,6.857654052734375,-24.75890698518753,-10.163244593065976,-4.487475669410824,0.4049284756183624,-0.9836317896842957,2.0748090744018555
1772650561671627000,6.867626953125,-29.33915504631996,-9.420399104338884,-6.842940479415654,0.2046731561422348,-0.7323868870735168,2.9383673667907715
1772650561681599000,6.877598876953125,-31.065650337624547,-8.357543663099408,-7.574726229467988,0.0287300944328308,-0.4233033955097198,3.975889444351196
1772650561691572000,6.887572021484375,-28.94205425534248,-7.274956516429781,-6.726161773684621,-0.1179029643535614,-0.2263010591268539,4.811455726623535
1772650561701544000,6.8975439453125,-23.38539978688955,-6.806632902237773,-4.860950962390005,-0.1879153549671173,-0.1864489763975143,5.065503120422363
1772650561711517200,6.90751708984375,-15.934043331980703,-7.377724232465028,-2.334499617256969,-0.2128136605024337,-0.3564655780792236,4.628836154937744
1772650561721489000,6.917489013671875,-8.707163740977645,-8.3390394536376,-0.2664778304196894,-0.1646123081445694,-0.5524467825889587,3.6164491176605225
1772650561731462000,6.9274619140625,-3.5563095027863976,-9.024293169617652,0.9397292661778628,-0.0727593451738357,-0.4574361443519592,2.3191440105438232
1772650561741434000,6.93743408203125,-1.7008680980950592,-8.561490364673734,0.9088283703491092,0.0347039960324764,-0.0886019170284271,1.1648108959197998
1772650561751406800,6.94740673828125,-2.881712205377221,-6.4400564288616176,-0.1502012289918959,0.0752830356359481,0.4678747057914734,0.5190126895904541
1772650561761379000,6.957379150390625,-5.36271244354248,-3.636861879882216,-1.856792088647932,0.0158340893685817,1.155065894126892,0.4159904718399048
1772650561771352000,6.96735205078125,-6.463156733942031,-0.6725432874888181,-3.492038982927799,-0.1392669379711151,1.6912516355514526,0.6777642965316772
1772650561781324000,6.977323974609375,-5.372340688109397,1.970406923520565,-3.764826873277128,-0.2571219205856323,1.8811544179916384,1.1286818981170654
1772650561791297000,6.987297119140625,-3.1526398548126218,3.650121758949756,-2.8472435340642925,-0.3804150223731994,1.814159154891968,1.7058733701705933
1772650561801269000,6.99726904296875,-0.9677911391884088,5.536520027440786,-3.060806789767742,-0.5598082542419434,1.5798486471176147,2.356774091720581
1772650561811242000,7.007241943359375,1.4028677328169346,7.938686382865905,-3.2524539817392824,-0.6756922602653503,1.251073122024536,2.953101634979248
1772650561821214000,7.0172138671875,3.885025908845663,9.419317738842963,-2.610413384541869,-0.7698312997817993,0.8991889953613281,3.4378483295440674
1772650561831187000,7.02718701171875,6.130932027500868,10.308625708425044,-2.2993448633760214,-0.8952848315238953,0.5655605792999268,3.79768967628479
1772650561841159200,7.0371591796875,8.173124668815731,11.014659177583455,-2.074955385492742,-1.0456277132034302,0.2153271734714508,3.999706029891968
1772650561851131600,7.047131591796875,9.989730439156292,11.661443169915676,-1.6302838650450109,-1.1437524557113647,-0.0549107976257801,4.03095006942749
1772650561861103600,7.057103515625,11.483806967639923,12.077606388759612,-0.7878237905513494,-1.1669176816940308,-0.2204017639160156,3.856534242630005
1772650561871076600,7.06707666015625,12.757475489091872,12.348815193223952,0.0538962061647325,-1.1316121816635132,-0.3286662399768829,3.4813454151153564
1772650561881048600,7.077048583984375,13.790755876278876,12.43524493792057,0.7394583305068314,-1.045391082763672,-0.3947373926639557,2.913177251815796
1772650561891021800,7.087021728515625,14.40495277326107,12.368611780583858,1.1363020779833195,-0.9257580041885376,-0.3853365778923034,2.211066961288452
1772650561900993500,7.09699365234375,14.403428340172766,12.19318507105112,1.3189163609325885,-0.7970149517059326,-0.3266119956970215,1.464480996131897
1772650561910966500,7.106966552734375,13.791499388122558,12.143100897455216,1.2255000452842562,-0.6898663640022278,-0.2284233272075653,0.7545174360275269
1772650561920938800,7.116938720703125,12.722750212669371,12.162380767464636,1.0020554470356553,-0.6170563697814941,-0.1370026022195816,0.1428247392177581
1772650561930911500,7.126911376953125,11.472464904892444,12.05686989020109,0.7879794925697148,-0.5830516219139099,-0.0879318639636039,-0.3681210875511169
1772650561940883700,7.1368837890625,10.265574502205848,12.08027882283926,0.5639299872305243,-0.5631543397903442,-0.0593521483242511,-0.7919523119926453
1772650561950856700,7.146856689453125,9.140409612047671,12.35521453887224,0.3738155943168327,-0.5687922835350037,-0.0380861163139343,-1.118059515953064
1772650561960828400,7.156828369140625,7.965743901139497,12.62732116895914,0.1970914288520812,-0.580361008644104,-0.0022008207160979,-1.3274588584899902
1772650561970801700,7.1668017578125,6.690650315320491,12.754209180772303,0.1248860243409872,-0.5878186821937561,0.0216527860611677,-1.3971147537231443
1772650561980773600,7.176773681640625,5.571573805165291,12.773624659860133,0.2410985110240057,-0.5441809296607971,-0.0187034253031015,-1.3386658430099487
1772650561990746600,7.18674658203125,4.827252983188629,12.75464523410201,0.5957512493072077,-0.4583589136600494,-0.1507460922002792,-1.1865909099578855
1772650562000718600,7.196718505859375,4.638977605737746,12.492004351496696,0.9589419892352072,-0.3614853620529175,-0.3539924323558807,-1.030922532081604
1772650562010691600,7.206691650390625,5.040269126403332,12.068319504976271,1.0272550624828785,-0.2874857783317566,-0.5511030554771423,-0.9512708187103271
1772650562020663800,7.216663818359375,5.682330181866884,11.711945861184596,0.8074105345528573,-0.2544063925743103,-0.6361660361289978,-0.9885916113853456
1772650562030636500,7.226636474609375,6.119877549523115,11.418600043714044,0.5327156780710444,-0.2444483339786529,-0.6900638341903687,-1.0762895345687866
1772650562040608800,7.23660888671875,6.230801099485158,11.179605409634112,0.4488982712972909,-0.22010438144207,-0.7244260907173157,-1.1695184707641602
1772650562050581800,7.246581787109375,6.055402447003126,10.74930143723488,0.5563675891522318,-0.1956117451190948,-0.6899024248123169,-1.2750065326690674
1772650562060553500,7.256553466796875,5.897034424299001,10.166078355187176,0.5199640407865866,-0.195826917886734,-0.626451849937439,-1.3966562747955322
1772650562070526700,7.266526611328125,5.827918217974901,9.71054349541962,0.3944941156104207,-0.2197815626859665,-0.6059929132461548,-1.5272308588027954
1772650562080498700,7.276498779296875,5.699636705976724,9.291530732363462,0.2628249522016384,-0.2361115217208862,-0.6091042757034302,-1.65967857837677
1772650562090471700,7.2864716796875,5.281339982235432,8.810790704190731,0.2975567679627798,-0.2055320888757705,-0.6344735026359558,-1.771149754524231
1772650562100443600,7.296443603515625,4.547998819434643,8.375183949208258,0.3481335656475275,-0.1900109201669693,-0.6901754140853882,-1.8223817348480225
1772650562110416600,7.306416748046875,2.93570624589324,7.573503994196653,0.3120559247680008,-0.1915051192045211,-0.7498331069946289,-1.7991602420806885
1772650562120388900,7.316388916015625,1.454081787225604,5.686950827404856,0.5948237226661295,-0.1091103851795196,-0.7971649169921875,-1.734199047088623
1772650562130361600,7.326361572265625,-0.0677870035469532,3.738261814695597,1.4690151524633168,-0.0148089621216058,-0.819693922996521,-1.636881709098816
1772650562140334600,7.33633447265625,-1.4155354912102225,1.7509668847382067,1.7961887129947542,-0.0324271060526371,-0.9292576909065248,-1.575239896774292
1772650562150306800,7.346306884765625,-2.1329501860827205,-0.746209412202239,2.008546684561669,-0.0669419467449188,-1.2635703086853027,-1.7119426727294922
1772650562160278500,7.356278564453125,-2.426902152752876,-2.994717237788439,2.494096743364632,-0.0501589775085449,-1.541950225830078,-2.164097785949707
1772650562170251500,7.36625146484375,-2.925657145565748,-4.44425378279984,2.456484805589914,0.024490462616086,-1.523360013961792,-2.8956174850463867
1772650562180224800,7.376224853515625,-4.206776567545533,-4.905648474511504,1.6837112115889787,0.074557363986969,-1.2429418563842771,-3.6674203872680655
1772650562190196500,7.386196533203125,-6.697519032046198,-5.023606745415925,0.3750959164509549,0.0674401596188545,-0.891882061958313,-4.232859134674072
1772650562200168700,7.396168701171875,-9.842909061861038,-5.1362996431380505,-0.8776675084099173,0.0047469488345086,-0.5803369879722595,-4.48740291595459
1772650562210141700,7.4061416015625,-12.588534634447097,-5.321861377716064,-1.960669665621221,-0.1348473578691482,-0.336820513010025,-4.464793205261231
1772650562220114700,7.41611474609375,-14.183428329420089,-5.308578117772936,-3.031097880202532,-0.2974253296852112,-0.0924099832773208,-4.347240447998047
1772650562230086700,7.426086669921875,-14.347895253521203,-4.949717917862534,-3.3729479086011644,-0.4593579769134521,0.0693884715437889,-4.3629655838012695
1772650562240059600,7.4360595703125,-13.490139775544405,-4.319109399783611,-3.63472954402864,-0.620680570602417,0.2484040260314941,-4.38654088973999
1772650562250031600,7.446031494140625,-13.897454502022264,-3.551542142254114,-2.8610411732703445,-0.5940802693367004,0.5292489528656006,-4.142392158508301
1772650562260004600,7.456004638671875,-15.558798983502388,-3.122663234221935,-0.7389515500284731,-0.3848556578159332,0.7825707197189331,-3.537628412246704
1772650562269976600,7.4659765625,-16.58152407440543,-2.775310224492848,0.7698623096641153,-0.115878514945507,0.8684251308441162,-2.625473499298096
1772650562279949600,7.475949462890625,-16.333917094802857,-2.578570093296468,1.2310150823786854,0.1043992564082145,0.7758384943008423,-1.6079694032669067
1772650562289921500,7.485921630859375,-14.578483293783664,-2.8957696645632383,1.1487520289074629,0.2359331250190735,0.5332316756248474,-0.7424347400665283
1772650562299894500,7.49589453125,-11.42381514801383,-3.2240684297323225,0.8632293793432414,0.3087559640407562,0.2440954744815826,-0.1891784965991974
1772650562309866800,7.50586669921875,-7.915472096017003,-3.2223934822574254,0.6728266344748437,0.3683960139751434,-0.0011610833462327,0.0697984546422958
1772650562319839700,7.51583984375,-4.90657085005343,-3.1626413166061043,0.6788797239687293,0.4216046333312988,-0.1466647386550903,0.0874296426773071
1772650562329811500,7.5258115234375,-2.505781043678522,-3.1351810627505183,0.5636390414599329,0.4529037177562713,-0.111123003065586,-0.1017743647098541
1772650562339784700,7.53578466796875,-0.9018506402909756,-3.082868107189238,0.0709629027698654,0.4329342544078827,0.1987640261650085,-0.4060892462730407
1772650562349756700,7.545756591796875,-0.2179541841387748,-2.834149074691534,-0.4838178281828761,0.372656762599945,0.6111623048782349,-0.6659325957298279
1772650562359729400,7.5557294921875,-0.3607973054528236,-2.353555176991224,-0.7898027624741196,0.3149907886981964,0.8730642199516296,-0.7177302837371826
1772650562369701600,7.56570166015625,-1.149289277589321,-1.859034168486297,-0.3847757085420191,0.3461886644363403,0.9482921361923218,-0.4784079194068908
1772650562379674600,7.575674560546875,-1.911011900743842,-1.2320812503054737,0.2735449192617088,0.4211297333240509,0.8075928092002869,-0.0098481746390461
1772650562389646600,7.585646484375,-2.0040210238307714,-0.4764166120156645,0.3898151274813339,0.4790993630886078,0.4587881565093994,0.58497554063797
1772650562399619600,7.59561962890625,-1.3693746285378932,0.028150281946361,0.2959704851520247,0.5077261924743652,-0.0041787112131714,1.161729097366333
1772650562409591600,7.605591552734375,-0.2432937925785779,0.4581806981012224,0.1601014589006081,0.5088079571723938,-0.4687943756580353,1.6167527437210083
1772650562419564800,7.615564697265625,1.087426987916231,0.9172817259177564,0.124751684771059,0.4845662713050842,-0.8369950652122498,1.909071683883667
1772650562429536500,7.62553662109375,2.1398440372496843,1.2380623705416918,0.1337294752057641,0.434421956539154,-1.0285165309906006,2.0329301357269287
1772650562439509500,7.635509521484375,2.8048820636749268,1.3858330113857984,0.0892026800086721,0.3751511871814728,-1.0026369094848633,1.997243881225586
1772650562449481700,7.645481689453125,3.259274183148145,1.586428356705606,0.2401720620951615,0.3395546376705169,-0.8255853652954102,1.8448554277420044
1772650562459454500,7.655454345703125,3.717825175866485,1.6923983759135006,0.7357229433707893,0.3554134964942932,-0.6178798675537109,1.5790458917617798
1772650562469426700,7.6654267578125,4.282466307041049,1.6847218499362469,1.4039182647831736,0.4039242565631866,-0.4316192865371704,1.2091625928878784
1772650562479399700,7.675399658203125,4.825503509172797,1.5967390305787323,2.0120362802430987,0.4959553778171539,-0.2710583508014679,0.773414671421051
1772650562489371600,7.68537158203125,4.972354697084427,1.5872797128379343,2.3470693221032617,0.6130334734916687,-0.1486206203699112,0.3069366812705993
1772650562499344600,7.6953447265625,4.863489248695969,1.6106874764323234,2.284512620425224,0.7144050598144531,-0.0996525585651397,-0.161260113120079
1772650562509316600,7.705316650390625,4.544048035982251,1.4952549246132374,1.7548767516583204,0.7669543027877808,-0.1255063116550445,-0.6089380383491516
1772650562519289900,7.715289794921875,3.828140238541364,1.3542793507367372,0.94621753221862,0.7696416974067688,-0.1903904974460601,-1.0024977922439575
1772650562529261600,7.725261474609375,2.705865809127688,1.201670037689805,-0.0062146367311477,0.6880346536636353,-0.2621987164020538,-1.298409938812256
1772650562539234600,7.735234619140625,1.2907529272437095,0.9912158539175988,-1.1995066491108386,0.5196844935417175,-0.3170715570449829,-1.4649165868759155
1772650562549206800,7.745206787109375,-0.2049550018340349,0.8220753850474953,-2.187275065988302,0.3136680126190185,-0.3012406826019287,-1.5117610692977903
1772650562559179500,7.755179443359375,-1.482571384128928,0.8730451093062758,-2.5238831020802257,0.138127326965332,-0.215660274028778,-1.4752696752548218
1772650562569151700,7.76515185546875,-2.4128262811273333,0.917635069400072,-2.296597318233549,0.0267840735614299,-0.0808024927973747,-1.3651726245880127
1772650562579124700,7.775124755859375,-2.969029838824272,0.9074646807804704,-1.6148708995968102,0.0081339590251445,0.0521792620420455,-1.1895278692245483
1772650562589096400,7.785096435546875,-2.959687425461411,1.0004165207222104,-0.8156154683183878,0.057020217180252,0.0903694331645965,-0.981680154800415
1772650562599069700,7.795069580078125,-2.4527543868899344,1.0380272894531488,-0.2905940345443785,0.1266030222177505,0.0308930575847625,-0.771800696849823
1772650562609041700,7.805041748046875,-1.6971248199135065,0.8620613584771751,0.0831004541434347,0.2055537849664688,-0.1025913432240486,-0.5838137865066528
1772650562619014700,7.8150146484375,-0.7974825033217668,0.5478600922435521,0.2980507802911102,0.2548920512199402,-0.2952809035778045,-0.4673753082752228
1772650562628986600,7.824986572265625,0.1699602608203888,0.2633274035647511,0.2953333380259573,0.2736356556415558,-0.5246425867080688,-0.4009346663951874
1772650562638959600,7.834959716796875,1.0085632945597172,-0.0068672554209828,0.3409053679596632,0.2932873964309692,-0.816694438457489,-0.3431078493595123
1772650562648931800,7.844931884765625,1.7286714662998914,-0.3258750451534986,0.4133993801537901,0.3200773596763611,-1.1703598499298096,-0.324499636888504
1772650562658904600,7.854904541015625,2.7086984022051093,-0.4751517066463828,0.6632770081020891,0.388597309589386,-1.53362774848938,-0.3963107168674469
1772650562668876500,7.86487646484375,3.656099664315581,-0.4577195103302597,1.1149060926027596,0.523154079914093,-1.858439922332764,-0.5512827038764954
1772650562678849800,7.874849853515625,4.219274814590811,-0.4769570025026798,1.55997041176036,0.690526008605957,-2.076889753341675,-0.7602676153182983
1772650562688821500,7.884821533203125,4.320653706616163,-0.5170104882106185,1.63211824086532,0.799824595451355,-2.0803756713867188,-1.0080130100250244
1772650562698794500,7.89479443359375,4.043564027419686,-0.6236529998525977,1.0275450584053991,0.816027045249939,-1.931835412979126,-1.299626111984253
1772650562708766700,7.9047666015625,3.553275249657035,-0.6983537283107638,0.1658434731513261,0.7150101065635681,-1.5895308256149292,-1.577625393867493
1772650562718739700,7.91473974609375,2.88126621517539,-0.6406283923119306,-0.4642977196767926,0.5770173072814941,-0.947718620300293,-1.6454710960388184
1772650562728711700,7.924711669921875,1.814729455074668,-0.3380158570632338,-1.0702110646992922,0.4091220498085022,-0.4259442985057831,-1.5663411617279053
1772650562738684700,7.9346845703125,1.1528133600622414,-0.2402899345874786,-1.6645704577893017,0.2572880387306213,-0.4458501040935516,-1.611550211906433
