time,seconds_elapsed,acc_z,acc_y,acc_x,gyro_z,gyro_y,gyro_x
1772649416575470800,0.069470947265625,0.6447182919740676,0.3954816653430462,0.0029581922184675,0.0094548966735601,-0.8161295056343079,0.0222250167280435
1772649416585442800,0.07944287109375,0.9469558564305304,0.1534372883036732,0.138623019400984,-0.1581732481718063,-0.7049212455749512,-0.1099796295166015
1772649416595414800,0.089414794921875,1.1297913809150455,-0.0456803856790065,0.480108452270925,-0.303101897239685,-0.5653101205825806,-0.3225078284740448
1772649416605385700,0.0993857421875,1.213771978893876,-0.0899023892432451,0.7913890818174928,-0.4052216112613678,-0.404491662979126,-0.5800634622573853
1772649416615358000,0.10935791015625,1.1007371358662843,0.0080029814526438,1.1009866536479442,-0.4646340012550354,-0.1842091083526611,-0.8032552599906921
1772649416625330000,0.119329833984375,0.5454150371789932,0.1910337362483143,1.320651806423068,-0.4968667924404144,0.0883308127522468,-0.9348353743553162
1772649416635302000,0.129302001953125,-0.2191658980160951,0.3740840725272893,1.376663616502285,-0.4947475492954254,0.3278425633907318,-0.964323103427887
1772649416645273000,0.139273193359375,-0.7231441784352064,0.5534074972376227,1.5665287473626437,-0.4564981758594513,0.4756762385368347,-0.926810085773468
1772649416655244800,0.149244873046875,-0.8503495856344699,0.5593278271973132,1.774803102877736,-0.3887569308280945,0.5098963975906372,-0.8483219146728516
1772649416665217000,0.159217041015625,-0.7441063024431467,0.3793532451018691,1.8413982662916184,-0.3079049587249756,0.4587109982967376,-0.762578010559082
1772649416675187700,0.169187744140625,-0.4714315170794725,0.1957484898105263,1.7061793562456964,-0.2470457702875137,0.3550252914428711,-0.6689655184745789
1772649416685160400,0.179160400390625,-0.231918996605277,-0.0090329090222716,1.3946519853964447,-0.2117522209882736,0.236002504825592,-0.5812748074531555
1772649416695132200,0.189132080078125,-0.1347404788792133,-0.1730807309284806,1.1382677520330995,-0.1831595003604889,0.1160042360424995,-0.5065227746963501
1772649416705103400,0.199103271484375,-0.109992406591773,-0.2523966980971396,0.9365203140687196,-0.137792557477951,0.0338707454502582,-0.4254018068313598
1772649416715075300,0.209075439453125,-0.1967693572908639,-0.2863993593335151,0.6742478263843804,-0.0789941102266311,-0.0179510302841663,-0.3567536473274231
1772649416725047300,0.21904736328125,-0.1926315268337726,-0.3317500746667385,0.1980626850370317,-0.0351534225046634,-0.0502344034612178,-0.3105992078781128
1772649416735019300,0.229019287109375,-0.1449813023865223,-0.3830006616935134,-0.342819750213623,-0.0111176334321498,-0.0921347364783287,-0.2884969711303711
1772649416744990500,0.238990478515625,-0.0683703563928604,-0.4624002154923975,-0.7555143430989235,0.0068864007480442,-0.1351530402898788,-0.2586810290813446
1772649416754962200,0.248962158203125,-0.1365688633501529,-0.5725174175076186,-1.1098020474620165,-0.002929757349193,-0.1361892074346542,-0.2144984751939773
1772649416764934400,0.258934326171875,-0.2163262906759977,-0.7363575880125165,-1.5173840465739368,-0.0486351959407329,-0.1120122298598289,-0.1689120829105377
1772649416774905000,0.268905029296875,-0.1868669719576835,-0.8532844700425862,-1.891689506766945,-0.138471707701683,-0.0965772569179534,-0.1558883488178253
1772649416784877300,0.278877197265625,-0.3502221354246139,-0.9360768811501562,-2.130875133374333,-0.24018394947052,-0.0423110947012901,-0.1150130853056907
1772649416794849300,0.288849365234375,-0.7740162875384092,-1.001271091724932,-2.225495491050184,-0.3056698143482208,0.045442309230566,-0.045290257781744
1772649416804821200,0.2988212890625,-0.9028659548133612,-0.8600247380830347,-2.1354715212538835,-0.333864688873291,0.0978703647851944,0.0341808646917343
1772649416814792400,0.30879248046875,-0.826059778508544,-0.5724184871777892,-1.8617253072664144,-0.3172490894794464,0.0964893400669097,0.1170377433300018
1772649416824764200,0.31876416015625,-0.6070394264429807,-0.3020543168440461,-1.5595584699586034,-0.2551614940166473,0.0538340210914611,0.1939532905817031
1772649416834736400,0.328736328125,-0.2530535545706748,-0.0254288941584527,-1.1842175292380153,-0.164668008685112,-0.0532216727733612,0.2610278129577636
1772649416844707300,0.338707275390625,0.1273912851601839,0.180320765184611,-0.7518944721013308,-0.0571708381175994,-0.2034918516874313,0.3081396818161011
1772649416854679300,0.34867919921875,0.4364157332777976,0.3067182170018553,-0.4882798490930348,0.058494608849287,-0.3377861082553863,0.3400078415870666
1772649416864651300,0.3586513671875,0.5922317334115504,0.3654572600878775,-0.3640923284102231,0.1543127447366714,-0.4005064666271209,0.354203313589096
1772649416874622500,0.36862255859375,0.6334510480284691,0.435392089318484,-0.3954701210357249,0.2267342209815979,-0.3996348083019256,0.3269787728786468
1772649416884594200,0.37859423828125,0.6775280901640653,0.5653682764053345,-0.4492763108294457,0.26247438788414,-0.3151969015598297,0.2459409385919571
1772649416894566400,0.38856640625,0.7957868053197861,0.7968482970714569,-0.4801573329139501,0.3094275295734405,-0.1661648750305175,0.1090549528598785
1772649416904538400,0.398538330078125,1.1628174522042274,1.2447453554369508,-0.3504974452346563,0.3965272903442383,0.0221107620745897,-0.0728727728128433
1772649416914509300,0.40850927734375,1.7352619506061076,1.71899952872172,0.0042553193569183,0.5318707823753357,0.2020602971315384,-0.2573155760765075
1772649416924481300,0.418481201171875,2.156215326336026,2.0707842372879384,0.4763861438121646,0.7046228051185608,0.2944307029247284,-0.4256569445133209
1772649416934453200,0.428453369140625,2.459784431657195,2.342440931650251,0.8299296787444501,0.8792199492454529,0.2431615740060806,-0.5507793426513672
1772649416944424400,0.438424560546875,2.5159604923874137,2.4550240853875875,0.926067162984982,0.9888579845428468,0.1178433448076248,-0.6284885406494141
1772649416954396200,0.448396240234375,2.324685056337714,2.3011061739601195,0.8271805992320179,1.006510615348816,-0.0084645636379718,-0.6362823843955994
1772649416964368400,0.458368408203125,1.9490011473983528,2.030772252634168,0.703708314146474,0.9349169135093688,-0.1159452125430107,-0.603141188621521
1772649416974340000,0.468340087890625,1.5175094265192746,1.7405333151377735,0.6078297731030732,0.8163039684295654,-0.1717504262924194,-0.5774004459381104
1772649416984311300,0.478311279296875,1.2617670712560414,1.530705300439894,0.5804460916150361,0.7122385501861572,-0.1648211479187011,-0.6198732852935791
1772649416994283300,0.488283203125,1.3594517849385737,1.4637855812467633,0.7721298162046819,0.6651514768600464,-0.1249180883169174,-0.7404801249504089
1772649417004255200,0.498255126953125,1.450873931095004,1.3524527198314666,1.0616101173534989,0.6901417970657349,-0.0819847360253334,-0.9222121238708496
1772649417014226200,0.50822607421875,1.398093942543864,1.23681616987288,1.2153688926964998,0.7396275401115417,-0.0712709128856659,-1.1101223230361938
1772649417024198400,0.518198486328125,1.0229209057360886,1.1917268819548188,0.9228127642989158,0.7782976627349854,-0.0554442778229713,-1.226557374000549
1772649417034170400,0.52817041015625,0.2783347108215093,0.8939315377295016,0.4401068063480779,0.7803282141685486,-0.0532408729195594,-1.2459286451339722
1772649417044142300,0.538142333984375,-0.40062195084095,0.5916778989210725,0.0608570581533014,0.7488405704498291,-0.1482739001512527,-1.2010003328323364
1772649417054113300,0.54811328125,-0.8625918120920658,0.339750864162296,-0.3288142404105514,0.6908461451530457,-0.3441387116909027,-1.097883701324463
1772649417064085200,0.558085205078125,-1.3824907152205703,0.0317836700126528,-0.8266692887090146,0.6321372389793396,-0.5475419163703918,-0.9490984678268432
1772649417074057200,0.56805712890625,-2.0289982286989687,-0.4030789886042475,-1.3908264357589184,0.5806022882461548,-0.7318762540817261,-0.7548061609268188
1772649417084028200,0.578028076171875,-2.6837042462021112,-0.7374557585127651,-2.0178836910970506,0.5329455733299255,-0.8825008869171143,-0.5150750875473022
1772649417094000400,0.58800048828125,-3.236268570613861,-0.94635540631935,-2.677002994997799,0.4298472702503204,-0.8706969618797302,-0.2477507442235946
1772649417103972000,0.59797216796875,-3.722820499935746,-1.2965570834778248,-3.3622879828989505,0.2727654874324798,-0.7252398729324341,0.0047994833439588
1772649417113943300,0.607943359375,-3.8189042081624263,-1.56508936220929,-3.979728391847014,0.0943674445152282,-0.5346308350563049,0.2014794200658798
1772649417123915300,0.617915283203125,-3.5026334421783685,-1.7267057191848754,-4.3130812255352735,-0.0928575694561004,-0.3384436964988708,0.3371232748031616
1772649417133887200,0.62788720703125,-2.830342083624005,-1.9108890050165357,-4.47727430113107,-0.270091563463211,-0.1814361065626144,0.39996337890625
1772649417143859500,0.637859375,-1.8966490288704632,-2.003998081346601,-4.422123491795361,-0.4492389559745788,-0.0698366165161132,0.3748908042907715
1772649417153830400,0.647830322265625,-0.9908756621778012,-2.0162664651587603,-4.135653405313193,-0.6028780341148376,-0.0394995287060737,0.2782275676727295
1772649417163802400,0.65780224609375,-0.0915606778442859,-1.833984336773306,-3.68489788877666,-0.6787469387054443,-0.0053921556100249,0.1116324737668037
1772649417173774300,0.6677744140625,0.7486503756135702,-1.3631883411183952,-3.063721800431609,-0.6726870536804199,0.0276276748627424,-0.0876632407307624
1772649417183745300,0.677745361328125,1.3329448862850666,-0.9737916947774587,-2.2828221831202504,-0.6306831240653992,0.0044677588157355,-0.2699020206928253
1772649417193717200,0.68771728515625,1.4060919555604456,-0.7549779711998998,-1.6349822519943118,-0.5966250896453857,-0.0451953113079071,-0.3692687451839447
1772649417203689200,0.697689208984375,0.9964344653487204,-0.4777480798151344,-1.1335849279791117,-0.56716388463974,-0.0692649558186531,-0.3769077658653259
1772649417213661200,0.7076611328125,0.6095616383969783,0.0833204535696655,-0.6706599579602479,-0.5237870216369629,-0.1271658688783645,-0.3204697668552398
1772649417223632400,0.71763232421875,0.3796919755369424,0.6768710875600576,-0.0766171565387398,-0.4514491856098175,-0.2191163003444671,-0.2186502069234848
1772649417233604000,0.72760400390625,0.0540858104526996,1.1629488965641706,0.670571622089669,-0.3323147296905517,-0.2762724161148071,-0.0835390165448188
1772649417243576300,0.737576416015625,-0.1397965932250023,1.557740899142623,1.4257659394539892,-0.171184703707695,-0.2897607982158661,0.0464155226945877
1772649417253547300,0.74754736328125,-0.1298012689113616,1.9354659585207696,2.0858461973413824,0.0022973394952714,-0.2719112336635589,0.0934498757123947
1772649417263519200,0.757519287109375,0.2251654306918382,2.140527051077783,2.686708396454155,0.1527771204710006,-0.234102576971054,0.0503343641757965
1772649417273491500,0.767491455078125,0.6071481475144624,2.1371356550738216,3.123775579378009,0.2935044765472412,-0.2075263857841491,-0.0786382183432579
1772649417283463200,0.777463134765625,0.8997656507104634,2.060188316732645,3.4225589117273687,0.4176426529884338,-0.1734509766101837,-0.2570250034332275
1772649417293434400,0.787434326171875,1.0525491512805225,1.9535054730802768,3.6004715928569437,0.5573922991752625,-0.1253457367420196,-0.4412035048007965
1772649417303406300,0.79740625,0.9769546888530254,1.9606047836914655,3.758129129204154,0.7240116596221924,-0.0947968810796737,-0.5686285495758057
1772649417313378300,0.80737841796875,0.5634878694862127,1.94612018513456,3.819919522684813,0.9169645309448242,-0.0798588842153549,-0.6145300269126892
1772649417323349200,0.817349365234375,0.0487286673337221,1.7988168695412574,3.857871944460273,1.10351824760437,-0.0899602547287941,-0.5853516459465027
1772649417333321200,0.8273212890625,-0.3205406983882188,1.4832383236050606,3.8721161583900447,1.2445915937423706,-0.1404099911451339,-0.5245411396026611
1772649417343293200,0.837293212890625,-0.5115642055034637,1.105142019761726,3.726725690680742,1.3111852407455444,-0.1944535225629806,-0.4562557935714721
1772649417353264400,0.847264404296875,-0.6412573378652334,0.6832607885971665,3.3582167879372835,1.3126132488250732,-0.2001244574785232,-0.4228251278400421
1772649417363236000,0.857236083984375,-0.6792787332236766,0.2858984971392899,3.0011013858675955,1.2763289213180542,-0.1761568039655685,-0.4250091910362243
1772649417373208300,0.867208251953125,-0.6782493901759385,-0.0277242385540157,2.6253879585728046,1.2529919147491455,-0.1393457353115081,-0.459056407213211
1772649417383180300,0.87718017578125,-0.7684107226163148,-0.3274128491800278,2.405227204300463,1.2328006029129028,-0.0600762069225311,-0.5160307288169861
1772649417393151200,0.887151123046875,-0.8763584716379642,-0.6517774167053401,2.19781633374691,1.1744589805603027,0.0729134902358055,-0.5948230624198914
1772649417403123500,0.89712353515625,-1.0299398445874453,-0.8897354012139141,1.8146696877114477,1.0880823135375977,0.2320064753293991,-0.6693210005760193
1772649417413095200,0.90709521484375,-1.155382333767414,-0.9540224338158964,1.408128868215531,1.014001727104187,0.3529073297977447,-0.7235822677612305
1772649417423066400,0.91706640625,-1.3024620697379112,-0.9763571613512932,1.1962437017921357,0.9459661841392516,0.4200315177440643,-0.7040916085243225
1772649417433038300,0.927038330078125,-1.5451730939924715,-1.1629007465735075,1.0008319696553052,0.8943445682525635,0.4176438450813293,-0.6125501394271851
1772649417443010300,0.93701025390625,-1.6565981637358664,-1.2409496164157985,0.7935686178136616,0.9119803309440612,0.4153032004833221,-0.5189146995544434
1772649417452982300,0.946982177734375,-1.4437608842194078,-1.0361594497546551,0.730860086574778,0.9229615926742554,0.3548497259616852,-0.3919697403907776
1772649417462953200,0.956953125,-1.0192214666962622,-1.1210964716754852,0.4248491045268252,0.9111059904098512,0.2416541874408722,-0.3009937703609466
1772649417472925200,0.96692529296875,-0.5265823264151811,-1.3131260870933532,-0.0090409827308729,0.8425757884979248,0.1267949193716049,-0.2403812706470489
1772649417482897400,0.9768974609375,-0.2142459772706031,-1.6014559760980307,-0.475481742318347,0.739981472492218,0.0067444150336086,-0.1824780255556106
1772649417492868000,0.9868681640625,0.0726245067059993,-1.7493628105424344,-0.9833634599167852,0.6512496471405029,-0.0708018690347671,-0.2095174491405487
1772649417502840300,0.99684033203125,0.3830985691100358,-1.7952394494459032,-1.2673469172149896,0.5654838681221008,-0.0475625954568386,-0.2398457825183868
1772649417512812300,1.006812255859375,0.4504080182731151,-1.9337625156037508,-1.545149420855939,0.5066714286804199,-0.0135849304497241,-0.2970719933509826
1772649417522783200,1.016783203125,0.7939005531817674,-2.299712819905579,-2.306696979704499,0.3810794055461883,-0.0783732458949089,-0.373333215713501
1772649417532755500,1.02675537109375,1.2198860778599976,-2.704005275952816,-3.544206100277602,0.2377654165029525,-0.1475656926631927,-0.4600222110748291
1772649417542727200,1.03672705078125,0.948079307502508,-2.92479497577846,-4.735916761749983,0.0254661962389946,-0.0337089076638221,-0.4706442356109619
1772649417552699400,1.046699462890625,0.2390320434808731,-3.0718951700150963,-5.49585600861907,-0.2342306971549987,0.0982452407479286,-0.4098142385482788
1772649417562670300,1.05667041015625,0.0544388616740703,-2.6371476622104644,-5.941289745610952,-0.5211588740348816,0.2350305318832397,-0.311660498380661
1772649417572642300,1.066642333984375,0.1195434942692518,-1.86709443308413,-5.505488929361104,-0.7351988554000854,0.2961935698986053,-0.256953477859497
1772649417582614300,1.0766142578125,0.3904565306574106,-0.885270823020488,-4.112694846791029,-0.8212996125221252,0.2832857668399811,-0.275368183851242
1772649417592585200,1.086585205078125,0.7263672321349381,-0.1644836560402065,-2.199517292445898,-0.8137128949165344,0.2489913254976272,-0.3339419960975647
1772649417602557200,1.09655712890625,0.827441588255763,0.3916243323277681,-0.5957522356878966,-0.7227422595024109,0.167246401309967,-0.4066276550292969
1772649417612529200,1.106529052734375,0.6517763937920331,0.7923788965724408,0.5035836185457184,-0.5904111266136169,0.139221116900444,-0.4465400576591491
1772649417622501400,1.11650146484375,0.019623568880558,0.9871119987953454,0.9754369777664542,-0.4530748128890991,0.1500796228647232,-0.4332450330257416
1772649417632472300,1.126472412109375,-0.6241197405815124,1.1281387914024292,1.0078429443959147,-0.3252350091934204,0.1568551510572433,-0.3786721527576446
1772649417642444300,1.1364443359375,-1.1267319933444262,1.0292330114923416,0.902922726501897,-0.1849415451288223,0.2465565502643585,-0.3328617811203003
1772649417652416300,1.146416259765625,-1.2083493693232537,0.883634673186019,0.8905959635660051,-0.0771528035402298,0.2907538115978241,-0.2692291140556335
1772649417662387500,1.156387451171875,-0.9831628958433866,0.6296292977832257,0.9102082804001868,-0.0051728854887187,0.2724989056587219,-0.234689250588417
1772649417672359200,1.166359130859375,-0.6908715558618307,0.322900559387356,0.8492594523102045,0.0253210943192243,0.2068302184343338,-0.2162360548973083
1772649417682331000,1.176330810546875,-0.3672422438085079,0.0300800078999251,0.775039639236778,0.100146859884262,0.2187984585762024,-0.2406279444694519
1772649417692302600,1.186302490234375,-0.1604331385403871,-0.0891310030119493,0.7526836497176438,0.2260405719280243,0.2154721617698669,-0.2661566138267517
1772649417702273800,1.196273681640625,-0.1465793852329254,-0.1882807842783629,0.7045175116375089,0.2932180166244507,0.2306026369333267,-0.2073388248682022
1772649417712245800,1.206245849609375,-0.6049298869431019,-0.7849338412635027,0.4822978520739823,0.3013104200363159,0.1179298236966133,-0.1040047034621238
1772649417722217700,1.2162177734375,-0.8773737861603498,-0.6174743112176656,-0.2767982037029229,0.1946430653333664,0.0477139838039875,0.0171108022332191
1772649417732188700,1.226188720703125,-0.7747638910353183,-0.7185957213506102,-0.673809288836643,0.1103495508432388,0.1410467773675918,0.1318284720182418
1772649417742161000,1.236160888671875,-0.5244412227332592,-1.0562478596679865,-0.1955165624844841,0.0326989665627479,0.1322847157716751,0.1671121716499328
1772649417752132900,1.2461328125,0.1135889697790145,-0.8790788365125656,0.3530357680732384,-0.0567369051277637,0.037247147411108,0.2175138145685196
1772649417762103800,1.256103759765625,0.7532774508923292,-0.7531241600267589,0.8782466234721242,-0.0773431211709976,-0.0143436063081026,0.2151129841804504
1772649417772075800,1.26607568359375,1.197265080729127,-0.5430099487986415,1.3740212852999567,-0.0306269712746143,-0.0490072891116142,0.1059810295701026
1772649417782047700,1.2760478515625,1.5085376000344752,-0.2791097137819975,1.7467865303136407,0.0547478459775447,-0.0536513105034828,-0.0209327042102813
1772649417792020000,1.28602001953125,1.410302851253748,-0.1162516131170093,1.8207123288765548,0.1475777179002761,-0.0284009277820587,-0.0961586907505989
1772649417801990700,1.29599072265625,1.0805226153552532,-0.1061036920575425,1.6521911609485744,0.218946173787117,-0.0387020371854305,-0.145696148276329
1772649417811963000,1.305962890625,0.7495622297614812,-0.2142004210958257,1.3225949033148583,0.2838894724845886,-0.0835728421807289,-0.1672198176383972
1772649417821934600,1.3159345703125,0.4371849640846252,-0.2633421992750838,0.9888155147776008,0.3333268165588379,-0.1377582997083664,-0.1634812653064727
1772649417831905800,1.32590576171875,0.0725800830423831,-0.2810395493334159,0.5563582002693787,0.35800302028656,-0.1625197976827621,-0.1294889599084854
1772649417841877800,1.335877685546875,-0.3179436676323414,-0.2092597498232498,0.0446485218806192,0.3677195906639099,-0.1471797227859497,-0.0595527589321136
1772649417851849700,1.345849609375,-0.6416238330900669,-0.0970671297734603,-0.4525595702838152,0.3523847162723541,-0.1156780570745468,0.0350750088691711
1772649417861822000,1.355822021484375,-0.845863964653015,-0.0830258910698816,-1.014689960746467,0.299156129360199,-0.041775070130825,0.1347320973873138
1772649417871793000,1.36579296875,-0.8626952724665403,-0.0750287548361346,-1.533606428708881,0.2203938066959381,0.0505299568176269,0.2124297171831131
1772649417881764900,1.375764892578125,-0.4845645548969507,0.0097954908926039,-1.7177737863190472,0.1281405836343765,0.0984751135110855,0.2135993689298629
1772649417891736800,1.38573681640625,0.1306482411295175,0.0619637772861868,-1.6477106545336544,0.0423850826919078,0.1174337118864059,0.1619253307580948
1772649417901707800,1.395707763671875,0.6471288602471351,0.1317339905396103,-1.3239032094344496,-0.0101971682161092,0.1202010065317154,0.0682534351944923
1772649417911679700,1.4056796875,0.9799380885779856,0.2550750504609197,-0.796649413498491,-0.0290015395730733,0.0902152210474014,-0.0415112897753715
1772649417921652000,1.41565185546875,0.9762439102351664,0.4056177133016288,-0.3116124187842011,-0.0270454492419958,0.088598683476448,-0.1026681214570999
1772649417931622700,1.42562255859375,0.6745189714759587,0.4768683743711561,-0.0332994448704645,-0.0407032407820224,0.0746604725718498,-0.1405501216650009
1772649417941595000,1.435594970703125,0.3708709556996822,0.404925347123295,0.054553117437195,-0.0481222756206989,0.0502536669373512,-0.1635387986898422
1772649417951566600,1.445566650390625,0.1470662919670343,0.2766566946066915,0.0341719168560579,-0.0632954612374305,0.0286679752171039,-0.1692582964897155
1772649417961538800,1.455538818359375,-0.0211824887603521,0.1305736780559644,-0.0964128123168833,-0.0817743316292762,-0.0173101685941219,-0.1641689985990524
1772649417971509800,1.465509765625,-0.2346674185305833,0.0084720237364992,-0.2652793230838142,-0.1090020984411239,-0.0659892931580543,-0.1087486520409584
1772649417981481700,1.475481689453125,-0.7183399930238723,-0.0721361386671662,-0.3282426510676741,-0.1303337663412094,-0.0709939077496528,-0.0067570386454463
1772649417991454000,1.485453857421875,-1.1081693316936492,-0.0652355654984712,-0.2640350038448348,-0.1415774375200271,-0.0608965083956718,0.1024969145655632
1772649418001425000,1.4954248046875,-1.1211451331228015,-0.0912361220650374,-0.1543231494938023,-0.1492609232664108,-0.0440536141395568,0.1822780221700668
1772649418011396900,1.50539697265625,-0.8860375696092844,-0.1090126748394221,-0.0751452938878908,-0.1422447860240936,-0.0509975850582122,0.2181595712900161
1772649418021368800,1.515368896484375,-0.4081622832179069,-0.104912728707306,-0.0040761451314203,-0.1352188289165496,-0.084778718650341,0.207450196146965
1772649418031340800,1.5253408203125,0.0447603482246398,-0.0940831089939922,0.038310715427529,-0.1161482036113739,-0.117583230137825,0.172884315252304
1772649418041311700,1.535311767578125,0.3230214092880487,-0.0794818252548575,0.137194100842718,-0.0868758037686348,-0.1410640627145767,0.1312031745910644
1772649418051283700,1.54528369140625,0.4317985948711633,0.002003558374755,0.1887867610391229,-0.0497117117047309,-0.1295769959688186,0.0811032950878143
1772649418061255700,1.555255615234375,0.4958382285833358,0.0587025104679167,0.1930861569997854,-0.0095885246992111,-0.1097095534205436,0.0316601134836673
1772649418071227000,1.565226806640625,0.5658832401901484,-0.0153124276831746,0.1986382564352825,0.022515445947647,-0.1080722957849502,-0.021880330517888
1772649418081198600,1.575198486328125,0.649579760530591,-0.0557164438618347,0.1549692105786874,0.0360147431492805,-0.1188538372516632,-0.0782085880637168
1772649418091170800,1.5851708984375,0.5763888521134853,-0.0862440128661692,0.115584171317378,0.0447211787104606,-0.1463444530963897,-0.1073881238698959
1772649418101141800,1.595141845703125,0.2296574814140796,-0.0266949320388957,0.0292195186130702,0.0590314120054245,-0.1522859632968902,-0.0692356750369072
1772649418111113700,1.60511376953125,-0.3884750014513731,0.0275598052399232,0.0007596866603475,0.0744169130921363,-0.1121000722050666,0.0405588932335376
1772649418121086000,1.6150859375,-0.9134528152793644,0.0386608257731422,-0.040283750799857,0.0764928460121154,-0.0689621940255165,0.153445228934288
1772649418131057700,1.6250576171875,-0.9685860889583824,0.0985567472767084,-0.1167710886801593,0.073106050491333,-0.0429355725646019,0.2347737699747085
1772649418141028900,1.63502880859375,-0.6772293994784355,0.1042117042984813,-0.1223713015737012,0.0824944823980331,-0.0319212675094604,0.2754242420196533
1772649418151000800,1.645000732421875,-0.2826046432256698,0.0855232608435675,0.0344395137171028,0.105236642062664,-0.039854884147644,0.2727872133255005
1772649418160972800,1.654972900390625,0.1247305415183305,0.1003541155548766,0.227323814302124,0.1314267069101333,-0.042611788958311,0.2385368347167968
1772649418170943700,1.66494384765625,0.3941659065693617,0.0301267696511,0.2749619281864724,0.1457506865262985,-0.0403291024267673,0.1821780204772949
1772649418180915700,1.674915771484375,0.561288313615322,0.0098589845828711,0.2049739074639044,0.1557077169418335,-0.0414809174835681,0.1234579756855964
1772649418190887700,1.6848876953125,0.5739607481837272,0.0497313781028613,0.1044498239032924,0.1623674780130386,-0.0648661330342292,0.0935339033603668
1772649418200860000,1.69485986328125,0.363312503144145,0.0557913357289507,0.0524784346215659,0.1665915250778198,-0.0834328904747963,0.0915402546525001
1772649418210830600,1.70483056640625,0.0353717576324939,0.0163464469060301,0.1012140842519234,0.179310142993927,-0.0794335305690765,0.1123569309711456
1772649418220802800,1.714802734375,-0.1804495061308145,0.0169474084738641,0.1703862311474978,0.1889680922031402,-0.0789293944835662,0.1253574043512344
1772649418230774800,1.72477490234375,-0.1869184098839759,-0.0033566169515252,0.1499908467773813,0.1954959779977798,-0.0725815072655677,0.1316268891096115
1772649418240745700,1.734745849609375,-0.0584334842681884,-0.076133099348843,-0.0321354197595035,0.1843578517436981,-0.0763357654213905,0.1225875914096832
1772649418250718000,1.744718017578125,0.0503892940223217,-0.1354155285965651,-0.1788322071272879,0.162270039319992,-0.0794144347310066,0.1123295649886131
1772649418260689700,1.754689697265625,0.0782242264091968,-0.1571369830718263,-0.190250001992099,0.1462814807891845,-0.0646107196807861,0.1106363236904144
1772649418270660900,1.764660888671875,-0.0006394669473171,-0.0849333503927104,-0.1621158126640133,0.1369276940822601,-0.0357347317039966,0.1161572486162185
1772649418280632800,1.7746328125,0.0255354232728481,-0.0371273691281676,-0.1477779291014186,0.1240316107869148,-0.0100141856819391,0.1114181503653526
1772649418290604800,1.784604736328125,0.1571691683083772,0.0269597204549238,-0.1287098021465353,0.1267474889755249,0.0118509344756603,0.0956560596823692
1772649418300576800,1.79457666015625,0.3026654344797134,0.0407569578021764,-0.065224491548608,0.1287693679332733,0.0275902170687913,0.0703030303120613
1772649418310547700,1.804547607421875,0.4361135354608297,0.0050674759900197,-0.0643085274811601,0.1254508793354034,0.0410026647150516,0.0330966338515281
1772649418320519700,1.814519775390625,0.5124573549509048,-0.015500771595817,-0.0760606597337173,0.1186148151755333,0.0487751029431819,-0.011032210662961
1772649418330492000,1.824491943359375,0.5488894352912903,-0.038089236430265,-0.1335869888619985,0.1018753573298454,0.0362999625504016,-0.0579585134983062
1772649418340462600,1.834462646484375,0.4957476276904344,-0.0323712058433331,-0.1623579143241979,0.0946312919259071,0.0226786956191062,-0.0826896876096725
1772649418350434800,1.844434814453125,0.2289028636544942,0.0067569451806135,-0.0656836928584612,0.105089321732521,0.0263332035392522,-0.0732288360595703
1772649418360406800,1.85440673828125,-0.086681673631072,0.0151509352448396,0.0534853968741372,0.1049204915761947,0.0092474278062582,-0.0486768893897533
1772649418370378800,1.864378662109375,-0.263191502225399,-0.0114140685377642,-0.0203909091243986,0.1004458889365196,-0.0009226994588971,-0.0218309313058853
1772649418380350000,1.874349853515625,-0.263836814391613,-0.0522076137569732,-0.0675742558454163,0.0750047117471695,-0.0810585469007492,-0.0243689231574535
1772649418390321700,1.88432177734375,-0.1179986029148101,-0.2592485002206638,-0.0816766958174761,0.1021481156349182,-0.0775816738605499,-0.0190096385776996
1772649418400294000,1.8942939453125,-0.0876467192709445,-0.0262621118458919,0.2850410217934288,0.1153070628643035,-0.0936844795942306,0.0073338197544217
1772649418410264800,1.904264892578125,-0.2845370725929736,-0.0215450384624302,-0.0240326677268138,0.1227008625864982,-0.0945096015930175,0.0260631758719682
1772649418420236800,1.91423681640625,-0.2397434066206216,-0.1488414849460125,0.0702049514088779,0.1292722076177597,-0.1077726781368255,0.0299489945173263
1772649418430208800,1.924208740234375,-0.0846802706807851,-0.0262715737939812,0.0798055042512714,0.1315983831882476,-0.111831247806549,0.0292308125644922
1772649418440179700,1.9341796875,0.0289209740579128,0.0050341582423076,0.0770100831127725,0.1347736716270446,-0.1132666915655136,0.0274646040052175
1772649418450151700,1.944151611328125,0.1062654950231313,0.0500718073046766,0.0259225822597974,0.1345439553260803,-0.1246491968631744,0.0134406872093677
1772649418460124000,1.9541240234375,0.0969330185323953,0.0893481711602769,-0.0249782688806997,0.125376284122467,-0.1400297582149505,0.0173808336257934
1772649418470096000,1.964095947265625,-0.0276280116379261,0.0500145789584144,-0.0526186696427408,0.1117897778749466,-0.149737074971199,0.0328196883201599
1772649418480066800,1.97406689453125,-0.1994429604142904,0.0213907246835529,-0.1051653060957323,0.0995363071560859,-0.1442102193832397,0.0580581985414028
1772649418490038800,1.984038818359375,-0.3246551479697227,0.0380992463676258,-0.0773168383738491,0.0813188031315803,-0.1147933453321456,0.0910604670643806
1772649418500010800,1.9940107421875,-0.3399544239103794,0.0338869076359085,-0.1441014142794534,0.0574891045689582,-0.08562932908535,0.112215556204319
1772649418509982000,2.00398193359375,-0.133021400001645,0.0441908960399217,-0.2218265685927122,0.0304921083152294,-0.0697220042347908,0.0980749651789665
1772649418519953700,2.01395361328125,0.1673831038087606,0.0324333478267304,-0.2339886790188029,0.0141749214380979,-0.0629229545593261,0.0722010284662246
1772649418529926000,2.02392578125,0.3550567159742117,0.0298558802878484,-0.1946394508563913,0.0057766796089708,-0.0508598797023296,0.0413052961230278
1772649418539897600,2.033897705078125,0.4066583083957433,-0.0025110147065483,-0.1148400566854979,0.0003638048656284,-0.0517043657600879,0.0116214361041784
1772649418549868800,2.043868896484375,0.3914817820519208,-0.0120517636531032,-0.0891684580786619,0.0013171131722629,-0.0406984910368919,-0.0016695292433723
1772649418559840800,2.0538408203125,0.2601958275407552,-0.0369580952421762,-0.0415676165979355,0.0166033916175365,-0.0292615480720996,-0.0010695190867409
1772649418569812700,2.063812744140625,0.1552630424261093,-0.0535429174813441,-0.0074398128782399,0.0259898714721202,-0.0117205791175365,-0.0065617696382105
1772649418579783700,2.07378369140625,0.1920446668565273,-0.072993504415173,-0.0267960543258115,0.0256942622363567,-0.0041068675927817,-0.0185931324958801
1772649418589755600,2.083755615234375,0.2494540687739849,-0.084732567123603,-0.0730574364968575,0.0227015111595392,0.0008603339083492,-0.0314670093357563
1772649418599727900,2.093727783203125,0.1986754831731319,-0.0416140678218565,-0.0762221841380931,0.0204098615795373,0.0106391943991184,-0.029103722423315
1772649418609698800,2.10369873046875,0.0702618692278862,-0.0152378646096214,0.0015964754112064,0.0282772481441497,0.0203178487718105,-0.0177013352513313
1772649418619670800,2.1136708984375,0.0003892915785312,0.0041082207701168,0.0753402867370285,0.0356893576681613,0.0260910503566265,-0.0098492708057165
1772649418629642800,2.123642822265625,0.0026490532040596,0.003144124978315,0.0138799563277978,0.0422092601656913,0.0106918662786483,-0.0072673852555453
1772649418639614700,2.13361474609375,-0.0209878429710865,-0.0094273334336467,-0.0491116753019392,0.0524978525936603,0.0007889019325375,0.0070484369061887
1772649418649585700,2.143585693359375,-0.0672100804418325,-0.0655184740930795,-0.0544136359012685,0.0508809462189674,-0.0079067591577768,0.0131815029308199
1772649418659558000,2.153557861328125,-0.0899532426476478,-0.0848744050133973,-0.0867772794926539,0.0484430864453315,-0.0250271558761596,0.016055854037404
1772649418669529600,2.163529541015625,-0.0983446388959884,-0.0891565027793869,-0.0404082356960512,0.0451110005378723,-0.0379499606788158,0.0209034830331802
1772649418679500800,2.173500732421875,-0.1598632296979427,-0.0642868134062737,0.0203356809389777,0.0449437536299228,-0.050298772752285,0.0308858100324869
1772649418689472800,2.18347265625,-0.1723158840358257,-0.0071900393682532,0.0488332784856669,0.0481980368494987,-0.0747052505612373,0.0373442247509956
1772649418699444700,2.19344482421875,-0.1443932733654976,0.0531460636508651,0.0317049604869447,0.0475295819342136,-0.0843323096632957,0.0444665849208831
1772649418709415700,2.203415771484375,-0.1209609598517417,0.0319244667228311,-0.0029321627280674,0.0451894104480743,-0.0852691680192947,0.0509799160063266
1772649418719387600,2.2133876953125,-0.0698468586862087,0.0190430473125539,-0.0758688041231595,0.0357061624526977,-0.0880564302206039,0.056028202176094
1772649418729360000,2.22335986328125,0.0158317753821611,-0.0093149773666635,-0.1627998859380371,0.0295072570443153,-0.0784706845879554,0.0554083697497844
1772649418739331800,2.233331787109375,0.1413046597003936,-0.0712404319364577,-0.1525116065598092,0.024237660691142,-0.0713009238243103,0.0345289222896099
1772649418749302800,2.243302734375,0.2860632592469453,-0.0652188335593789,-0.1514868848882615,0.0157625712454319,-0.0552129074931144,0.0154744246974587
1772649418759274800,2.253274658203125,0.3257838597387075,-0.0402933223458006,-0.1397304874525405,0.0176001526415348,-0.0381002351641655,0.0036939322017133
1772649418769246700,2.263246826171875,0.2990694558143615,-0.0534814513513818,-0.1377517164591699,0.0168544594198465,-0.0275567453354597,-0.0129382219165563
1772649418779217700,2.2732177734375,0.3076502371549606,-0.0483764380962587,-0.1294069723641499,0.0162877384573221,-0.0262009296566247,-0.0357806868851184
1772649418789190000,2.28318994140625,0.3045242140889168,0.0077759312311187,-0.047249479892943,0.0249463487416505,-0.035464733839035,-0.0425394922494888
1772649418799161600,2.29316162109375,0.1702835014253854,-0.0242800529168918,0.0280707139041274,0.030898779630661,-0.046616718173027,-0.0373782850801944
1772649418809133800,2.3031337890625,-0.0452267966926097,-0.0407428927442058,0.0109422315086238,0.0244798138737678,-0.064007468521595,-0.0191061068326234
1772649418819104800,2.313104736328125,-0.2192775416970253,0.0066030880594626,-0.0302663425185717,0.0177390873432159,-0.0716733857989311,0.0088405730202794
1772649418829076700,2.32307666015625,-0.3301461466014385,-0.0053881958443671,-0.0465579356985166,0.0212756544351577,-0.0813655629754066,0.0416588634252548
1772649418839049000,2.333049072265625,-0.3090466599494219,-0.0375503985795192,-0.0391373207110911,0.016766658052802,-0.1043843254446983,0.0523964613676071
1772649418849019600,2.34301953125,-0.1768202097177505,-0.0732522832155227,0.0275267249542288,0.0200979616492986,-0.1184993311762809,0.0628256201744079
1772649418858991900,2.352991943359375,-0.140365917545557,0.0149692220023833,0.134026777651906,0.0289143566042184,-0.118450328707695,0.0726305842399597
1772649418868963800,2.3629638671875,-0.1362596512705087,0.0783943588117137,0.1780563273839652,0.0402352213859558,-0.1321863532066345,0.0803826376795768
1772649418878934800,2.372934814453125,-0.0211702138006687,0.0801719355440232,0.1361265081438236,0.04812803119421,-0.1361190527677536,0.0779996439814567
1772649418888906800,2.38290673828125,0.0641267274737358,0.0657775086217559,0.05598031896241,0.0385841652750968,-0.1208025142550468,0.0686923637986183
1772649418898878700,2.392878662109375,0.1693605413615703,0.0064111730834003,-0.1033394149759784,0.0181390810757875,-0.090319700539112,0.0499309226870536
1772649418908850700,2.4028505859375,0.3213730575591325,-0.0022724201777018,-0.2308422707518562,-0.0029130377806723,-0.0375272706151008,0.0165383331477642
1772649418918822000,2.41282177734375,0.5179220500975847,0.0119444673537276,-0.2744225423464551,-0.0185974575579166,-0.0004328971263021,-0.0396969765424728
1772649418928793600,2.422793701171875,0.7327145553350448,0.0083949307791423,-0.1973877449175342,-0.0336041040718555,0.0101369228214025,-0.1014631390571594
1772649418938765800,2.432765869140625,0.7037228541284799,0.018151359169837,-0.0727419956058263,-0.0356052033603191,0.0289084818214178,-0.132670596241951
1772649418948736800,2.44273681640625,0.4416103793114423,0.0698948808127082,-0.0157720080189406,-0.0406618006527423,0.0471104308962821,-0.137832298874855
1772649418958708700,2.452708740234375,0.1701005460739135,0.1132264200769364,-0.014420849138312,-0.0407022796571254,0.0519275590777397,-0.1251734942197799
1772649418968681000,2.462680908203125,-0.0675537793129682,0.1110669222217984,-0.0523986245507374,-0.0451287887990474,0.0549602136015892,-0.0952665209770202
1772649418978651600,2.472651611328125,-0.2068716491103172,0.0086961330822668,0.0269817861562594,-0.0402477458119392,0.0370528511703014,-0.0707127079367637
1772649418988624000,2.482623779296875,-0.2684007613062858,-0.0672938497351482,0.0396582027800381,-0.0483292192220687,0.0201887786388397,-0.0468769893050193
1772649418998595800,2.492595947265625,-0.2512333534061908,-0.1075739655395038,-0.0495269415719434,-0.0609352923929691,0.0075747165828943,-0.0332732945680618
1772649419008567800,2.50256787109375,-0.2198556338459253,-0.143267429407034,-0.1330108786076307,-0.0710303783416748,-0.0031206780113279,-0.0162092018872499
1772649419018538800,2.512538818359375,-0.201935361751914,-0.1453300062263384,-0.1560573346089571,-0.085303321480751,-0.006825135089457,-0.0016632826300337
1772649419028510700,2.5225107421875,-0.1555658247649669,-0.1015175333110615,-0.1466224571896716,-0.1000613942742347,-0.0042004161514341,0.0017923626583069
1772649419038482700,2.532482666015625,-0.0392991602092981,-0.0195837665931321,-0.1595442634092643,-0.1015375852584838,-0.0004658652469515,0.002522601513192
1772649419048454000,2.542453857421875,0.0633417145758867,-0.0100031970928423,-0.0928271906487643,-0.1004319936037063,-0.0021845640148967,-0.0038141007535159
1772649419058425600,2.552425537109375,0.1201817921727895,-0.0648916656979359,-0.0532102697271853,-0.0951448157429695,-0.0015150452964007,-0.0143873821943998
1772649419068397800,2.562397705078125,0.155899586763978,-0.0608312295923009,-0.1029455933528021,-0.0975998193025589,-0.0039600003510713,-0.021238824352622
1772649419078369800,2.572369873046875,0.1774035625636577,-0.0658322710162959,-0.0845792945243418,-0.0978741273283958,0.0091347619891166,-0.0245531294494867
1772649419088340700,2.5823408203125,0.1619774453729391,-0.0741186907865107,-0.0387981884172186,-0.1027465984225273,0.0228526927530765,-0.0329854451119899
1772649419098313000,2.59231298828125,0.1817214257627725,-0.0527815959863364,-0.0735810402458533,-0.1027521938085556,0.025227166712284,-0.0453603565692901
1772649419108284700,2.60228466796875,0.1686801578819751,-0.0455961231953464,-0.0163445837425068,-0.0952133610844612,0.0298072826117277,-0.0489354357123374
1772649419118255900,2.612255859375,0.0773860220193862,-0.0549777177911251,0.1465055162791162,-0.0706148073077201,0.0269537065178155,-0.0442235022783279
1772649419128227600,2.6222275390625,-0.0065875616967678,-0.0874624487452209,0.2178648070885799,-0.045621033757925,0.0148778343573212,-0.0356684476137161
1772649419138199800,2.63219970703125,-0.0634732320010662,-0.1690319669943303,0.1951325864018872,-0.0216006524860858,0.011401611380279,-0.0187651012092828
1772649419148170800,2.642170654296875,-0.1240741234362125,-0.2005117952222004,0.1804566847902722,-0.0038963502738624,0.0121328439563512,-0.0069637717679142
1772649419158142700,2.652142822265625,-0.1240548342138528,-0.1785743964413181,0.148500653885398,0.0025061555206775,0.0120273828506469,-0.0063456520438194
1772649419168114700,2.66211474609375,-0.0718149438887834,-0.1001397056192159,0.0466248817211948,-0.0010906951501965,0.003051396459341,-0.0003840708232019
1772649419178086700,2.672086669921875,-0.0330640652120113,-0.0082703819508664,-0.0320349596262909,-0.0112772863358259,-0.0143579542636871,0.0114286467432975
1772649419188057600,2.6820576171875,-0.1173269872635602,0.006377955800388,-0.0615737915879115,-0.0211642272770404,-0.0272908080369234,0.0277277752757072
1772649419198029800,2.69202978515625,-0.1540051513195037,0.0120878761461004,-0.061842890852876,-0.0271337032318115,-0.0353972017765045,0.04076873883605
1772649419208001800,2.702001708984375,-0.1222936697602272,0.0398358609018847,-0.1131775759665295,-0.0424766726791858,-0.038094624876976,0.0506595559418201
1772649419217972700,2.71197265625,-0.0708136578917503,0.0067083750648424,-0.1959279745632782,-0.0549676977097988,-0.0292550586163997,0.0492696538567543
1772649419227945000,2.721945068359375,0.0317056363403797,-0.031031335541699,-0.2219491355264559,-0.0638425350189209,-0.0239865984767675,0.0427835918962955
1772649419237916700,2.731916748046875,0.1400374162435531,-0.0209520227390341,-0.1906891971269622,-0.0725076645612716,-0.0243160314857959,0.0244929995387792
1772649419247889000,2.741888916015625,0.2475841832488775,0.0067651650196872,-0.1406448075521737,-0.0774052813649177,-0.0227476172149181,0.0054770861752331
1772649419257859600,2.751859619140625,0.2744464712113141,0.058538698208332,-0.0675111092150211,-0.0784223452210426,-0.0168854668736457,-0.0113255959004163
1772649419267831800,2.761831787109375,0.1950818425953388,0.0605325754392892,-0.0110522494880482,-0.0779168382287025,-0.0020638550631701,-0.0066299568861722
1772649419277803800,2.7718037109375,0.0758276866614818,0.0327541590126231,-0.0057306891391053,-0.0775746256113052,0.012165680527687,-0.002322826301679
1772649419287774700,2.781774658203125,0.0869300954341888,-0.018367595736403,-0.0730139078823849,-0.0796784237027168,0.0151062496006488,-0.0081978319212794
1772649419297746700,2.79174658203125,0.1245306350320577,-0.0534451927279122,-0.084678480582498,-0.0820747315883636,0.0246614050120115,-0.0126913832500576
1772649419307718700,2.80171875,0.1637789418369531,-0.0786522608292289,-0.0134685899147763,-0.0711137056350708,0.0227693729102611,-0.0244078189134597
1772649419317689600,2.811689697265625,0.2331955924123525,-0.0775843210704624,0.0826832516446709,-0.0568729899823665,0.0168659426271915,-0.0495874769985675
1772649419327661800,2.821661865234375,0.2350543720215558,-0.0692679262870922,0.1662336049800738,-0.0343034565448761,0.0077044246718287,-0.0607161559164524
1772649419337633800,2.8316337890625,0.1292874741703271,-0.0750258870256133,0.1955506656834855,-0.0217594373971223,0.0011011166498064,-0.0577664375305175
1772649419347605800,2.841605712890625,-0.0713408966362476,-0.0869096554343588,0.1356405329914763,-0.0151429753750562,-0.0042838873341679,-0.0376956015825271
1772649419357577000,2.851576904296875,-0.2210480585008859,-0.0843800273588858,0.0492144050240516,-0.0136619918048381,-0.0047717783600091,-0.0134962536394596
1772649419367548700,2.861548583984375,-0.2540074942946433,-0.1041870813138782,0.0504999147899448,-0.0040361313149333,-0.0125525072216987,0.0047934185713529
1772649419377521000,2.87152099609375,-0.1935714380323887,-0.0930334720768965,0.0387424396419897,0.0017176284454762,-0.0158154126256704,0.0158471334725618
1772649419387491600,2.88149169921875,-0.0710462976038455,-0.0952739079474471,-0.0035921792730689,0.0054050274193286,-0.0259864144027233,0.0148906698450446
1772649419397463800,2.8914638671875,0.0349964945793151,-0.0694951043727807,-0.0268242575069889,0.0083246510475873,-0.0243778638541698,0.0206180643290281
1772649419407435800,2.901435791015625,0.0492009610205888,-0.0593868942691944,-0.0863357462702319,-0.0004428448155522,-0.0153840109705924,0.0288156140595674
1772649419417406700,2.91140673828125,0.0211100080460309,-0.0591503273006528,-0.1613843383179977,-0.0033891000784933,-0.0017880401574075,0.0293317344039678
1772649419427378700,2.921378662109375,0.0943535234332084,-0.0542458781189285,-0.1270169354224577,-0.0118093490600585,0.0105151934549212,0.0178667064756155
1772649419437350700,2.9313505859375,0.2171340999275446,-0.0216883011243306,-0.0681788524087518,-0.0112391673028469,0.0260350313037633,-0.0031592163722962
1772649419447323000,2.941322998046875,0.3330056276857853,0.0060422941052354,0.0118908557366579,-0.0095687061548233,0.0276662874966859,-0.0336508750915527
1772649419457293800,2.9512939453125,0.3727934481948614,0.0255154033981263,0.0622751447902992,-0.0005435198545455,0.02803167514503,-0.0565183721482753
1772649419467265800,2.961265869140625,0.2964168954789638,0.0130309474161826,0.0783995829761028,0.0006641200743615,0.026901789009571,-0.0664209946990013
1772649419477237800,2.97123779296875,0.1398205586224794,0.0110015970130451,0.0756687332401052,0.0044905496761202,0.0217704102396965,-0.0553268045186996
1772649419487209000,2.981208984375,-0.0471299999654293,-0.0229448953229933,0.0433833973156288,0.0053446474485099,0.0217848792672157,-0.0425033792853355
1772649419497180700,2.9911806640625,-0.1495206993818283,-0.081353829671815,0.0011466858170926,0.0049507659859955,0.0145658478140831,-0.0331077463924884
1772649419507153000,3.00115283203125,-0.1260720192551613,-0.099413674633298,-0.0374509019941091,0.0062264367006719,0.0074476841837167,-0.0230203941464424
1772649419517123600,3.01112353515625,-0.1455342600941657,-0.1115332976245321,-0.1030726903311908,-0.0003640884533524,0.0085307918488979,-0.0025846275966614
1772649419527095800,3.021095703125,-0.1909703156232833,-0.116616080781538,-0.1782920723685994,-0.0063990573398768,0.009665728546679,0.0181195940822362
1772649419537067800,3.03106787109375,-0.1256330433160066,-0.1222793855065479,-0.1564018371976911,-0.0086755277588963,0.0183681398630142,0.0224648080766201
1772649419547039700,3.041039794921875,0.0245680395454168,-0.0758252755086869,-0.0883288563162088,-0.0088554006069898,0.0280062444508075,0.0141785405576229
1772649419557010700,3.0510107421875,0.1835842970252037,-0.0094001714320853,-0.0482672055681236,-0.0094242524355649,0.0326449386775493,-0.0088021419942379
1772649419566982700,3.060982666015625,0.2783423096060752,0.0248543456735089,-0.0197044155644252,0.0006541111506521,0.0251919124275445,-0.0338174104690551
1772649419576955000,3.070954833984375,0.3198907100468874,-0.0028373423177748,0.0159923545050434,-0.0017688330262899,0.0175869893282651,-0.0533671416342258
1772649419586925800,3.08092578125,0.2448217327982187,-0.0323824761560186,-0.0146268017728812,-0.0045548910275101,0.0110834781080484,-0.0540784113109111
1772649419596897800,3.090897705078125,0.0668038377285003,-0.0339907698691822,-0.0579366589282639,-0.0047096204943954,0.0042623234912753,-0.0386190265417099
1772649419606869800,3.100869873046875,-0.1542699397355318,-0.054180557797756,-0.0015620434186421,0.0010713692754507,0.0013244757428765,-0.0157200414687395
1772649419616841000,3.110841064453125,-0.2494569913834333,-0.0485769108381122,0.031416718130093,0.0102113373577594,-0.006258875131607,0.0079807601869106
1772649419626812700,3.120812744140625,-0.1951239281713962,-0.0452860525991767,-0.0522732263390906,0.0115678338333964,-0.0096601042896509,0.01937161013484
1772649419636785000,3.130784912109375,-0.0746352620065212,-0.0913502864966168,-0.0972729910764843,0.0064170146360993,-0.0008056256920099,0.0145185319706797
1772649419646756600,3.140756591796875,0.076351418274641,-0.0866274592258036,-0.1284550602004863,0.0027600862085819,-0.0093212779611349,-0.004112740047276
1772649419656727800,3.150727783203125,0.2169517290979623,-0.0484359862637706,-0.0714293969036079,0.0066131479106843,-0.0069601191207766,-0.0159827154129743
1772649419666699500,3.160699462890625,0.1470136849969625,-0.0540162340815179,-0.0172119959604926,0.0049283150583505,-0.0033479130361229,-0.0161260161548852
1772649419676671700,3.170671630859375,0.0872282015979289,-0.0389745496311225,0.0238408395157195,0.0063238115981221,-0.0149494409561157,-0.0189492329955101
1772649419686643700,3.180643798828125,0.0352191974192857,-0.0378757032774388,0.0442917260658927,0.011281382292509,-0.0134394885972142,-0.0076291873119771
1772649419696615400,3.190615478515625,-0.060592123606801,-0.0365728039853274,0.0678129965047352,0.0178226381540298,-0.016280548647046,0.0025587351992726
1772649419706587600,3.200587646484375,-0.0808411309093236,-0.044051304906141,0.037894481043145,0.0219373404979705,-0.0198959503322839,0.0011390270665287
1772649419716559400,3.210559326171875,-0.0134393272876739,-0.0739582395277917,0.0152010397305712,0.0245371162891387,-0.0332149527966976,-0.0031894084531813
1772649419726530600,3.220530517578125,-0.0050058454632759,-0.1073280462207272,-0.0093099358653649,0.02473871037364,-0.0279724840074777,0.0084380386397242
1772649419736502500,3.23050244140625,-0.1154489184319973,-0.1024206013643182,-0.0294623509256169,0.0198949538171291,-0.0098480768501758,0.0283947009593248
1772649419746474500,3.240474609375,-0.1058218429088592,-0.0393575028004124,-0.0610574760962277,0.0195390079170465,-0.007615708746016,0.02868128195405
1772649419756445400,3.250445556640625,0.0473041874885559,0.0163498261732049,-0.0269485414737835,0.0191632360219955,-0.0071160998195409,0.0199085623025894
1772649419766417400,3.26041748046875,0.1794488046556711,0.0287923427095636,-0.0173009346192702,0.0189339816570281,-0.0086311846971511,0.0084389094263315
1772649419776389600,3.2703896484375,0.2654524328947067,-0.0257449561039917,-0.076019409841299,0.0076277987100183,-0.017078198492527,-0.0093898884952068
1772649419786360600,3.280360595703125,0.263288532859087,-0.0723831174318678,-0.1823851869011297,-0.0049816924147307,-0.0044809277169406,-0.0170552153140306
1772649419796332500,3.29033251953125,0.1716542052567005,-0.0986088245238177,-0.173814561628364,-0.0119788814336061,-0.0038191322237253,-0.0221767406910657
1772649419806304500,3.300304443359375,0.1090291145175695,-0.0686316194112412,-0.0942987245060503,-0.0106397848576307,-0.0077990405261516,-0.0200423393398523
1772649419816276500,3.3102763671875,0.0242740250349044,-0.0305946976901032,-0.0428107850594446,-0.0106357904151082,-0.0052397423423826,-0.0091308346018195
1772649419826247400,3.320247314453125,-0.1014537108272314,-0.0627248795854859,0.0201667358465492,-0.0141901038587093,-0.0057206293568015,0.0025459160096943
1772649419836219600,3.3302197265625,-0.1401958216756582,-0.0656748519648797,0.0108214364068582,-0.0245649795979261,0.0042960527352988,0.0147011158987879
1772649419846191400,3.34019140625,-0.1266606327980756,0.0016750936053693,-0.0096237510548904,-0.0273682754486799,0.008050356991589,0.0170055851340293
1772649419856162600,3.35016259765625,0.007006663891673,-0.0015320684054866,0.036919900389947,-0.0333377495408058,0.0043970327824354,0.0007882658974267
1772649419866134500,3.360134521484375,0.1395797356039285,0.0360494559646584,0.0766639913551509,-0.0261860787868499,0.0044033229351043,-0.0105914119631052
1772649419876106500,3.3701064453125,0.1362771869271993,0.0589051569005474,0.1370972711384296,-0.01836091093719,0.0040350072085857,-0.010703264735639
1772649419886077400,3.380077392578125,0.0725239689409732,0.0267272999385371,0.0784936544677242,-0.0138752665370702,0.0061431750655174,-0.0071458956226706
1772649419896049400,3.39004931640625,0.0384241309404373,0.0188731158394366,-0.0064294850582256,-0.0168337728828191,0.0130879003554582,-0.0043165534734725
1772649419906021600,3.400021728515625,0.0724251847416162,-0.0026316088789142,-0.1084620186867192,-0.0259762350469827,0.0196899361908435,-0.0118692917749285
1772649419915993300,3.409993408203125,0.1414309164285659,-0.0594636675661429,-0.1819813553405925,-0.0344317704439163,0.0210484135895967,-0.0171351600438356
1772649419925964500,3.419964599609375,0.1496732595950365,-0.0451299852546304,-0.1147995511451736,-0.0289087072014808,0.0185246504843235,-0.0225672703236341
1772649419935936500,3.4299365234375,0.1186930149197578,-0.0227930109632201,0.0013435966286808,-0.0135808838531374,0.0148947611451148,-0.0213368888944387
1772649419945908500,3.439908447265625,0.0945920083642005,-0.0587431347392499,0.1308626875977963,0.0017167571932077,0.0202908851206302,-0.0248403754085302
1772649419955879400,3.44987939453125,0.0453577295958995,-0.0626331096488051,0.1996017494388856,0.0275121368467807,0.0176266580820083,-0.0228137113153934
1772649419965851600,3.4598515625,0.0125982002884149,-0.0754091872547753,0.1811333784754387,0.0440234057605266,0.0267270263284444,-0.0190564002841711
1772649419975823400,3.4698232421875,-0.0005284077882766,-0.1041256334502249,0.2047842849096283,0.0593855828046798,0.0333164818584919,-0.0174819398671388
1772649419985794600,3.479794677734375,0.0084761519223451,-0.1144393760632723,0.2121421733917668,0.0700306892395019,0.0262665897607803,-0.0215910300612449
1772649419995766500,3.4897666015625,-0.0102098438471555,-0.082519000993669,0.2653655765951611,0.084064744412899,0.0236305929720401,-0.0081159677356481
1772649420005738500,3.499738525390625,-0.1148772560238838,-0.0015504991113208,0.2655932113385759,0.0973312705755233,0.0281619969755411,0.0120996413752436
1772649420015710700,3.509710693359375,-0.1903080523222684,0.0643173729413189,0.1526545769607648,0.1046637594699859,0.0216271318495273,0.0296581275761127
1772649420025681400,3.519681396484375,-0.1636655445903539,0.0577189062580466,0.0179473062314093,0.1110564470291137,0.0142493974417448,0.0404163710772991
1772649420035653600,3.529653564453125,-0.0507049358427524,-0.0099964385584928,-0.0888729183313436,0.1045700535178184,0.0059078447520732,0.0356575697660446
1772649420045625300,3.539625244140625,0.0557663108855485,-0.0284533200135454,-0.2469014434154145,0.0797586664557457,-0.0072670681402087,0.020894818007946
1772649420055596500,3.549596435546875,0.1497480783969163,-0.0212896754618734,-0.3554793618330731,0.0441711097955703,-0.0059229703620076,0.0072778072208166
1772649420065568500,3.559568603515625,0.1793582037627697,0.050124980530329,-0.328479674693942,0.0159963015466928,-0.0108120944350957,-0.0048702741041779
1772649420075540500,3.56954052734375,0.1424953307896852,0.0876412393782287,-0.2837797331533395,-0.0014687089715152,-0.0139104165136814,-0.0014816678594797
1772649420085512400,3.579512451171875,0.061366030588746,0.1175159704970195,-0.2460179751117713,-0.0147730037569999,-0.0092196036130189,0.0064043626189231
1772649420095483600,3.589483642578125,0.0243926829785108,0.1205904825715348,-0.2073726757013239,-0.0296510197222232,-0.0048687979578971,-0.0005403622053563
1772649420105455400,3.599455322265625,0.0822714559733867,0.1108444020449183,-0.169485903040599,-0.047043427824974,-0.0015330959577113,-0.0147160300984978
1772649420115427600,3.609427490234375,0.1271095456093549,0.0835201225939206,-0.1400017604082822,-0.0638501048088073,0.0031370231881737,-0.02710478939116
1772649420125398300,3.619398193359375,0.1325637193620205,0.0520064103627577,-0.1335635257880203,-0.0760930404067039,-6.15385361015e-05,-0.0376565232872962
1772649420135370500,3.62937060546875,0.1258475628495216,0.052670208033733,-0.0738468698414973,-0.0775852128863334,-0.0071660531684756,-0.0403463132679462
1772649420145342500,3.639342529296875,0.0520920062869787,0.0305806143658235,-0.0273170642589218,-0.0697485506534576,-0.0170088429003953,-0.0259739849716424
1772649420155313400,3.6493134765625,-0.0853840350359678,0.0134647539898753,-0.0240045604437589,-0.0609308257699012,-0.0254119150340557,-0.0089830169454216
1772649420165285600,3.65928564453125,-0.1661357340961694,-0.0467772227386944,0.0040944845057092,-0.0474436059594154,-0.0402640402317047,0.005439318716526
1772649420175257300,3.66925732421875,-0.1024982514441013,-0.132434649622254,0.0110860604261048,-0.0466268137097358,-0.0472244769334793,0.0098926573991775
1772649420185229600,3.6792294921875,-0.0654798956483602,-0.1694976482773199,-0.0587519756328314,-0.0509343743324279,-0.0392428115010261,0.0198341645300388
1772649420195200500,3.689200439453125,-0.0584843376725912,-0.1634426225546747,-0.0956964624747633,-0.0525644943118095,-0.0261368602514266,0.0219551064074039
1772649420205172500,3.69917236328125,-0.0269008664071559,-0.1617430886277928,-0.0552590189505368,-0.0509278215467929,-0.0171856172382831,0.0329298004508018
1772649420215144400,3.70914453125,0.0265524913609027,-0.1171249436191283,-0.0026227862516418,-0.0448030829429626,-0.015065474435687,0.0329692140221595
1772649420225115600,3.71911572265625,0.1064770919471979,-0.0715092024078592,0.0600121682943776,-0.0324980430305004,-0.0194889269769191,0.023006048053503
1772649420235087400,3.72908740234375,0.1573521236598491,-0.0157378682873211,0.1658419387813657,-0.0200158059597015,-0.0125468652695417,0.0170805156230926
1772649420245059600,3.7390595703125,0.180543614155054,0.0108841629121452,0.2149972340293228,-0.0084371948614716,-0.0019841671455651,0.0001299324212595
1772649420255030300,3.7490302734375,0.1851695203900337,0.0571611627774313,0.1966516491953283,0.0067542749457061,0.0014688875526189,-0.0151294479146599
1772649420265002500,3.75900244140625,0.2308972523421049,0.0211832742116414,0.1834313714858144,0.0200494788587093,0.0025299498811364,-0.0321968644857406
1772649420274974500,3.768974365234375,0.2219762792617082,-0.0536328607871197,0.1119764565484598,0.0181767418980598,0.005881271790713,-0.0369106568396091
1772649420284946400,3.778946533203125,0.0854576847940683,-0.031778537179809,-0.0216557688279077,0.0150594534352421,0.022661929950118,-0.0261678770184516
1772649420294917600,3.788917724609375,-0.021053893944621,0.0109743984788656,-0.0608398512901738,0.009341113269329,0.037081878632307,-0.0222929771989583
1772649420304889300,3.798889404296875,0.007749006691575,0.0279718931721523,-0.1101136948838829,0.0028093997389078,0.0478104390203952,-0.0211646445095539
1772649420314861600,3.808861572265625,0.0732329939931631,0.0190412754805758,-0.1330504434330388,-0.0034415717236697,0.0510821305215358,-0.025546608492732
1772649420324832500,3.81883251953125,0.1584422569841146,0.01598875604216,-0.0993067436601035,0.0002620792947709,0.0472301691770553,-0.0387659259140491
1772649420334804500,3.828804443359375,0.171455467814207,0.0403462763757444,-0.0537190229669213,0.0023185722529888,0.0338650941848754,-0.0513962320983409
1772649420344776400,3.8387763671875,0.1456488263845443,0.0664022163913585,-0.001607416930329,0.0088397432118654,0.0212165396660566,-0.0497025698423385
1772649420354747600,3.84874755859375,0.0355728331625461,0.0198918461616151,-0.0042919067739509,0.0120067745447158,0.0087313745170831,-0.042224146425724
1772649420364719400,3.85871923828125,-0.0646516281306743,-0.0287202638540416,-0.0428685979275964,0.0027021854184567,-0.0086495019495487,-0.0314986668527126
1772649420374691600,3.868691650390625,-0.1454167711943388,-0.0530443751083686,-0.1100006812297739,-0.0069251419045031,-0.0120775224640965,-0.012707401998341
1772649420384663600,3.87866357421875,-0.2445066754996776,-0.0288549961496144,-0.1358229768862947,-0.0170272216200828,-0.0086471298709511,0.0110787199810147
1772649420394634500,3.888634521484375,-0.2338742223262786,0.007145962764509,-0.1244221514225937,-0.0222004111856222,-0.0185141414403915,0.0176902841776609
1772649420404606500,3.8986064453125,-0.0698778383463621,0.0034021731263026,-0.1094860097059048,-0.0308147240430116,-0.014931078068912,0.0119373593479394
1772649420414578400,3.908578369140625,0.0330541283398866,-0.0067529083263129,-0.08279452999942,-0.0305063314735889,-0.0203351639211177,0.0088885724544525
1772649420424549600,3.918549560546875,0.0940425577878951,0.0397616266218945,-0.0299977912428788,-0.0220640506595373,-0.0308342240750789,0.0036614646669477
1772649420434521300,3.928521240234375,0.0644856239140033,0.0210586797175928,0.0222086900029331,-0.014315316453576,-0.028456287458539,0.0059954593889415
1772649420444493600,3.93849365234375,0.0563251138120889,-0.0201008675361052,0.0293834770031273,-0.0071989214047789,-0.0308889932930469,0.0030767070129513
1772649420454464500,3.948464599609375,0.078220134755969,-0.0245191954350098,0.0813206945871934,0.0004992117173969,-0.0285408832132816,-0.0033068899065256
1772649420464436500,3.9584365234375,0.1240659401297569,-0.0484066505714319,0.0652990591887384,0.0130469026044011,-0.0196130890399217,-0.0091867614537477
1772649420474408400,3.968408447265625,0.1220247896909713,-0.0744894785939715,0.0850450854051858,0.0195308998227119,-0.0145909003913402,-0.0163954067975282
1772649420484380400,3.97838037109375,0.1445107622653245,-0.1173089766828343,0.0257682091154158,0.0195526424795389,-0.0142374392598867,-0.0233886148780584
1772649420494351400,3.988351318359375,0.1099912375479936,-0.1405519416369497,-0.075783043802157,0.0092611219733953,-0.0060559422709047,-0.023605128750205
1772649420504323600,3.998323486328125,0.0376490549147129,-0.1029162576604634,-0.1106897777387872,0.0031955004669725,0.000307981390506,-0.0114580998197197
1772649420514295600,4.008295654296875,-0.0578226588934659,-0.0128533440932631,-0.0269647619562223,0.0062581351958215,0.0107872541993856,0.002607918344438
1772649420524266500,4.0182666015625,-0.1195470014005899,0.0276622792337089,0.0925946970671415,0.0159553997218608,0.018468702211976,0.0119852470234036
1772649420534238500,4.028238525390625,-0.0401513931244611,0.0288657367393374,0.0973315163306891,0.02321757376194,0.0092136859893798,0.0106006693094968
1772649420544210400,4.03821044921875,0.1002449195593595,-0.0326532559214159,0.061013563889265,0.0315068773925304,0.0008522048592567,0.0016908340621739
1772649420554181600,4.048181640625,0.1744511424988508,-0.1018250648902729,-0.0249272282466292,0.0221210978925228,-0.000769127625972,-0.0107237575575709
1772649420564153300,4.0581533203125,0.1629103423088788,-0.1037554118983447,-0.1718569612871855,0.0062675080262124,0.0123374331742525,-0.0111233759671449
1772649420574125600,4.06812548828125,0.0879798967480659,-0.069891684208624,-0.2422867709605023,-0.0113306604325771,0.0303257536143064,-0.0078993532806634
1772649420584097300,4.07809716796875,0.1097352169603109,-0.0120560562357306,-0.219347793921642,-0.01935700699687,0.0372026935219764,-0.0218674764037132
1772649420594068500,4.088068359375,0.1956511669158935,0.0079585577890276,-0.1513937997773289,-0.0229062009602785,0.0409542918205261,-0.034447718411684
1772649420604040400,4.09804052734375,0.2055290023297071,0.0225909673187881,-0.0807373052086681,-0.0187537930905818,0.041458923369646,-0.0443022958934307
1772649420614012400,4.108012451171875,0.1037555580288171,0.026493308519572,-0.0609342333090491,-0.0167710706591606,0.0325983203947544,-0.0381930023431777
1772649420623983600,4.117983642578125,-0.0097042324125766,-0.028715551146306,-0.0277930842728354,-0.0171014051884412,0.0200381502509117,-0.0252419803291559
1772649420633955600,4.12795556640625,-0.1713034921228885,-0.0761476027982309,-0.0228504585051909,-0.0104480301961302,0.0147816035896539,-0.0004452873836271
1772649420643927600,4.137927490234375,-0.2583382169753312,-0.075741798476316,-0.0100798973245546,0.0007811221294105,0.0037554302252829,0.0175142139196395
1772649420653898500,4.1478984375,-0.220111654433608,-0.0524224803503602,0.0342768020026385,0.008805226534605,-0.0093060433864593,0.0324857048690319
1772649420663870500,4.157870361328125,-0.1344452953249216,-0.0523646492158994,0.0530225286027416,0.0163912996649742,-0.0135261677205562,0.040137380361557
1772649420673842400,4.167842529296875,-0.0365086527079343,-0.0343918432170525,0.0448956650421023,0.0230262987315654,-0.0168162379413843,0.0344089195132255
1772649420683814100,4.177814208984375,0.0741103613495826,-0.013813311699219,0.0330079328442923,0.0231168530881404,-0.0162391643971204,0.0258297249674797
1772649420693784800,4.187784912109375,0.1319178226739168,0.0035689445279538,0.0030149091080762,0.0188600569963455,-0.0028229574672877,0.0231375358998775
1772649420703757000,4.197757080078125,0.1339233172774314,0.0320718758368864,-0.0613553265316411,0.0097091030329465,0.0042126956395804,0.0176588222384452
1772649420713729000,4.20772900390625,0.1336930156528949,0.0138291303228586,-0.130291774108354,0.0065444684587419,0.0119808707386255,0.0100147509947419
1772649420723700000,4.217699951171875,0.1805693331182002,-0.0272699189152568,-0.1257172875333577,0.0026194583624601,0.0089587271213531,-0.008668172173202
1772649420733672000,4.227671875,0.2054009920358657,-0.0876058027386665,-0.125827268980164,-0.0087610278278589,0.0105086881667375,-0.014882125891745
1772649420743644000,4.237643798828125,0.1256511634945869,-0.0976214391879737,-0.1382264760977588,-0.0105470996350049,0.016807734966278,-0.0124193914234638
1772649420753614800,4.24761474609375,-0.0036076691031455,-0.0476596863953396,-0.0060397368219681,0.0002421648241579,0.0135818496346473,0.000476166314911
1772649420763587000,4.257587158203125,-0.0635638328939676,-0.0637030587015673,0.0628058358672074,0.0081750256940722,0.0079201404005289,0.0080439988523721
1772649420773559000,4.26755908203125,-0.0786585261732339,-0.0844782087700441,0.1179168794481083,0.0176907666027545,-0.0100769689306616,0.0076911300420761
1772649420783531000,4.277531005859375,-0.0640092385739088,-0.0829617032598704,0.1104347435317933,0.0241872146725654,-0.0226312614977359,0.0183317307382822
1772649420793502200,4.287502197265625,-0.1099473984062671,-0.080450670287013,0.0245980328248813,0.021566666662693,-0.0243913456797599,0.0316190384328365
1772649420803474000,4.297473876953125,-0.0844727654099464,-0.0674271207259967,-0.0647839310071431,0.0136219384148716,-0.0144703388214111,0.0249822717159986
1772649420813446100,4.307446044921875,0.0496340917408466,-0.0541068349744193,-0.1135245993059128,-0.0026044358965009,-0.0046973368152976,0.0179454013705253
1772649420823416800,4.317416748046875,0.1397644445210695,-0.0234808288305997,-0.1820641199869103,-0.0180762931704521,0.0147373359650373,0.0043241810053586
1772649420833389000,4.32738916015625,0.2087988177806138,0.0161474172025918,-0.1504029255764558,-0.030652804300189,0.0233675744384527,-0.0119485324248671
1772649420843361000,4.337361083984375,0.2831833198964595,0.0716779283045791,-0.1028737336929887,-0.0388163700699806,0.0267114136368036,-0.0299330279231071
1772649420853333000,4.3473330078125,0.293204947695136,0.1027251738014631,-0.0885597789952531,-0.0454385839402675,0.0344630777835845,-0.0365637689828872
1772649420863304000,4.357303955078125,0.2256996836990117,0.0760627740589901,-0.0863982353135012,-0.0487312898039817,0.0414838306605815,-0.0477493815124034
1772649420873276000,4.36727587890625,0.2036322287976741,0.0198473676990717,-0.0838566976045258,-0.0490929447114467,0.0364701636135578,-0.0638156980276107
1772649420883248000,4.377248046875,0.1967728644222021,-0.0400312738761305,-0.0688360742084682,-0.0507191196084022,0.0326243080198764,-0.0724832788109779
1772649420893219000,4.387218994140625,0.0591132832258939,-0.0880429155142977,-0.1060029533631168,-0.0486849956214427,0.0254905000329017,-0.0613565891981124
1772649420903191000,4.39719091796875,-0.0928776056617498,-0.1028586091890931,-0.063701907924097,-0.0444295369088649,0.0154075371101498,-0.0380559712648391
1772649420913163000,4.4071630859375,-0.2171364380151033,-0.1172056989714503,-0.0372199427824467,-0.0393125377595424,0.0045586181804537,-0.0123303709551692
1772649420923134200,4.41713427734375,-0.262478970041871,-0.0660030427396297,-0.0134710923991166,-0.0303150489926338,-0.003127530682832,0.0130783161148428
1772649420933106000,4.42710595703125,-0.2480593995451927,-0.0505137606522068,0.03571178497551,-0.0179803520441055,-0.0092181805521249,0.0271182358264923
1772649420943078100,4.437078125,-0.1350233874738216,-0.032606822963804,0.0703260753042064,-0.0035558794625103,-0.0178236179053783,0.0340641103684902
1772649420953048800,4.447048828125,-0.047885786768794,-0.0354536637622863,0.0952316762409172,0.006352677475661,-0.0227251648902893,0.0346143208444118
1772649420963021000,4.45702099609375,0.0157575411021709,-0.077415394244343,0.0612566701964475,0.0049661323428153,-0.0204222369939088,0.0278193373233079
1772649420972993000,4.466992919921875,0.0757920308262109,-0.0804329519672319,-0.0078321549303829,0.0068673631176352,-0.0196954607963562,0.0207963157445192
1772649420982965000,4.476965087890625,0.1085708493560552,-0.074518394161202,-0.023674323842395,0.0066224029287695,-0.0146991517394781,0.0155272157862782
1772649420992936000,4.48693603515625,0.0898813464552164,-0.0724391036691144,-0.0164119864229112,0.015716565772891,-0.0080617554485797,0.0152321374043822
1772649421002908000,4.496907958984375,0.0595212795048952,-0.0202306313956156,0.022624193734955,0.0228187870234251,-0.0059286556206643,0.0121039152145385
1772649421012880100,4.506880126953125,0.0954477484107017,0.0231075750714167,0.0235300565334968,0.0261317603290081,0.0020376578904688,0.002747964579612
1772649421022851000,4.51685107421875,0.1877624594926834,0.0505038968453183,0.0157841003155335,0.0338963605463504,0.0045430203899741,-0.0215052850544452
1772649421032823000,4.526822998046875,0.2792676077574491,0.0692863752592354,0.0156169818540103,0.0303580835461616,0.0111199636012315,-0.0400294363498687
1772649421042795000,4.536794921875,0.2390770516663789,0.0590916193833574,-0.0542115922568365,0.0166022814810276,0.0237588062882423,-0.0457124039530754
1772649421052767000,4.54676708984375,0.1220008242934942,0.0856447683313861,-0.1133099701745435,0.0083227800205349,0.0356096029281616,-0.0446519330143928
1772649421062738000,4.556738037109375,0.0552080924808979,0.0865743407990783,-0.0801660446593537,0.0023077498190104,0.0332929864525795,-0.04589119926095
1772649421072710100,4.566710205078125,0.0397246921449899,0.0574753798257559,-0.0402975783958099,0.0026504984125494,0.0201822482049465,-0.0413822010159492
1772649421082681900,4.576681884765625,0.0189753341048955,-0.0046244449302554,-0.0387087383017875,0.0074797202832996,0.0039522852748632,-0.0377743057906627
1772649421092653000,4.586653076171875,-0.0721101274430751,-0.0492373109756037,-0.0587007751685567,0.0072642699815332,-0.0114533025771379,-0.0219724401831626
1772649421102624800,4.596624755859375,-0.1756026506215333,-0.1054279116878286,-0.0829212616516277,0.0002199430018663,-0.0181825794279575,-0.003490368835628
1772649421112597000,4.606596923828125,-0.2615256148397922,-0.1318834454802796,-0.1416408145858906,0.0007528411224484,-0.0216795746237039,0.0209574494510889
1772649421122568000,4.61656787109375,-0.242051683562994,-0.1465055528117343,-0.1099030660741962,-0.0012028291821479,-0.0219036862254142,0.0267063081264495
1772649421132540000,4.626539794921875,-0.0645820700258016,-0.1571081588361412,-0.0637436281739734,-0.0062471227720379,-0.0327142551541328,0.0199818257242441
1772649421142512000,4.63651220703125,0.1144762740075588,-0.1071710655607283,-0.0188880028813146,-0.0046192286536097,-0.0427130348980426,0.0101907011121511
1772649421152483800,4.64648388671875,0.1562801105141639,-0.0916338161457329,0.0606106273778714,-0.0013930753339082,-0.0426358059048652,0.0087038576602935
1772649421162455000,4.656455078125,0.0722305389523506,-0.0445735569482669,0.146093026488088,0.0057666189968585,-0.0455616004765033,0.0061527797952294
1772649421172427000,4.666427001953125,-0.0119797761291265,-0.0144241370739415,0.1527524113120511,0.0161327086389064,-0.0555500537157058,0.0195697844028472
1772649421182399000,4.67639892578125,-0.1197878244191408,-0.0635657325901091,0.1316967638017609,0.0246333107352256,-0.0481726452708244,0.0329911932349205
1772649421192370000,4.686369873046875,-0.1627361547857523,-0.0934581454960629,0.054309828466922,0.0223182253539562,-0.043862584978342,0.0510692633688449
1772649421202342100,4.696342041015625,-0.0842921481460332,-0.0638865985749289,-0.049541006629914,0.0210534371435642,-0.036216601729393,0.0434081852436065
1772649421212313900,4.70631396484375,0.1198024374663829,-0.0658865402204915,-0.0997673286428675,0.0175878666341304,-0.0396574065089225,0.0235734954476356
1772649421222285000,4.71628515625,0.2413859131306409,-0.0596924713533371,-0.1185915638392791,0.0159532092511653,-0.0416499488055706,0.011793621815741
1772649421232256800,4.7262568359375,0.2206482455283403,-0.0476941001215949,-0.0623445567646995,0.0173401832580566,-0.034051951020956,0.0039729825221002
1772649421242229000,4.73622900390625,0.1428951437622308,-0.0131914900064468,-0.0002774652345106,0.0085619091987609,-0.0265402160584926,-0.0042435345239937
1772649421252201000,4.746200927734375,0.1115636014312505,0.0202312524501234,-0.016008154862374,0.0032678106799721,-0.0109277004376053,0.0014622882008552
1772649421262172000,4.756171875,0.0539502013742923,0.0664771630574017,-0.014586159235239,-0.0020842619705945,-0.0039599877782166,0.0028502163477241
1772649421272144100,4.76614404296875,0.0860913065224885,0.0239241156186908,-0.0583029532236978,-0.0143220201134681,-0.011965449899435,-0.0138115845620632
1772649421282115800,4.77611572265625,0.1636322268426418,-0.0398025431541725,-0.0839630988547578,-0.0193527974188327,-0.0229516737163066,-0.0227390918880701
1772649421292087000,4.786087158203125,0.0963262848109006,-0.023375907151401,-0.0807397528940811,-0.0262061767280101,-0.0136537794023752,-0.0078605441376566
1772649421302059000,4.79605908203125,-0.0739917034059762,0.0094258538626134,-0.0659121495857834,-0.0295411422848701,-0.0054955789819359,0.0131220780313014
1772649421312031000,4.806031005859375,-0.1668693090677261,-0.0076974591674283,-0.0775028167994692,-0.030688164755702,-0.0079653952270746,0.028291443362832
1772649421322002000,4.816001953125,-0.1147018994569778,-0.0708652419485151,-0.0974925886439159,-0.0319746285676956,5.64521178603e-05,0.0337656773626804
1772649421331974100,4.82597412109375,0.0321855288118124,-0.0698177421895787,-0.0964881243091076,-0.0395771525800228,0.0064126183278858,0.0155845461413264
1772649421341945900,4.83594580078125,0.2001174986749887,-0.0559022852901369,-0.1649795497983694,-0.0447098761796951,0.0104521689936518,-0.0077235354110598
1772649421351918000,4.84591796875,0.3411713984847068,-0.0269217265320941,-0.1555255292871966,-0.0519864335656166,-0.001979200169444,-0.0350688733160495
1772649421361888800,4.855888671875,0.2964478751391172,0.0015040844200178,-0.0214576159073039,-0.0407521463930606,-0.0039819316007196,-0.0386306680738925
1772649421371861000,4.865861083984375,0.1155430264562368,0.0603172156555578,0.1149785609738901,-0.0322361588478088,-0.0173677783459424,-0.0242173764854669
1772649421381833000,4.8758330078125,-0.0847562585264444,0.072451451694034,0.129906409786269,-0.0225397311151027,-0.0124967843294143,0.0037944871000945
1772649421391804000,4.885803955078125,-0.2444008770376443,0.0598301262583583,0.0966028001973405,-0.0164331011474132,-0.0097143137827515,0.0243237297981977
1772649421401776000,4.895776123046875,-0.1752080983459949,0.030091077283211,0.0697390143975615,-0.0125692375004291,-0.0070464648306369,0.0302313975989818
1772649421411747800,4.905747802734375,-0.0039466917991638,-0.046252742206864,0.0411396369768306,-0.009894891642034,0.0011568702757358,0.0199270956218242
1772649421421719000,4.915718994140625,0.1662339337736368,-0.062065739823319,-0.0050080739529803,-0.0168124586343765,0.0094214919954538,-0.0027927784249186
1772649421431691000,4.92569091796875,0.3016390140414238,-0.0551706100147217,-0.0527346150394529,-0.013884580694139,0.0066683157347142,-0.0249643940478563
1772649421441663000,4.9356630859375,0.2710428002476692,-0.0331959114307537,-0.0366236208571121,-0.0155151821672916,0.0063920994289219,-0.0285650230944156
1772649421451635000,4.945635009765625,0.0688549250394105,-0.0146304733010008,-0.0485796873170882,-0.0177690163254737,0.0137597359716892,-0.0102999992668628
1772649421461606100,4.955606201171875,-0.1272737962603569,-0.0149040660779923,-0.0928391733475029,-0.019423209130764,0.009727269411087,0.0068375146947801
1772649421471578000,4.965578125,-0.1291647245734929,-0.029607275821641,-0.0659381973424926,-0.0148572195321321,0.0027836095541715,0.0135103315114974
1772649421481550000,4.975550048828125,-0.0192827926188707,-0.0533968052752316,0.0057738341610878,-0.0143429106101393,0.0028192494064569,0.0119659276679158
1772649421491521000,4.98552099609375,0.0361228682607412,-0.0770961722273379,0.016346045047231,-0.016555730253458,0.003942038398236,0.0029415399767458
1772649421501493000,4.995492919921875,0.1164624793887138,-0.0609326441401615,0.0066577043235301,-0.0158632658421993,-0.0045143100433051,-0.0143700232729315
1772649421511465000,5.00546484375,0.1961404117375612,-0.042491051585786,0.0372155223356559,-0.0125620104372501,-0.0094366306439042,-0.0199125930666923
1772649421521436000,5.015435791015625,0.1263233636677265,-0.0163092201681807,-0.0018108853468671,-0.0176107585430145,-0.0064050359651446,-0.014280566945672
1772649421531408100,5.025408203125,0.012394786670804,-0.0095763682492077,-0.0510664626315236,-0.0194139834493398,-0.0046350988559424,-0.0036100796423852
1772649421541379800,5.0353798828125,-0.0743885937690734,0.0001776581218466,-0.066956215278618,-0.020394692197442,0.0031966869719326,0.0077817388810217
1772649421551352000,5.04535205078125,-0.0625333208024501,-0.0137288117535412,-0.0307122048562392,-0.0233803633600473,0.0015953280963003,0.0060141994617879
1772649421561323000,5.055322998046875,0.0284714767247438,-0.0514891815556213,-0.0164217040993273,-0.0220877602696418,0.0024007274769246,0.0045292079448699
1772649421571295000,5.065294921875,0.0630751725941896,-0.0386106299558654,-0.0268072333069518,-0.0135579202324152,0.0089105581864714,0.0048107043839991
1772649421581267200,5.07526708984375,0.1183148292571306,-0.0499276313273236,-0.0230779105855152,-0.009936399757862,0.0068470011465251,-0.0090149389579892
1772649421591238100,5.085238037109375,0.1942845547378063,-0.1012306061284616,-0.0371885977961123,0.0001356755383312,-0.0002745578531175,-0.0268104467540979
1772649421601210000,5.095210205078125,0.1862216597914695,-0.1390625067967921,-0.0077452803645282,0.0090909469872713,-0.0115742785856127,-0.037756897509098
1772649421611182000,5.10518212890625,0.0605453618556261,-0.0864834841778501,0.093620715646632,0.0216160602867603,-0.0067062862217426,-0.0209158696234226
1772649421621153000,5.115153076171875,-0.1162368539392948,-0.0454086560655385,0.107008422344923,0.0324778668582439,-0.0042541404254734,0.0024200077168643
1772649421631125000,5.125125,-0.2046329302728176,-0.01813818916101,0.0462885076399892,0.0292208194732666,0.0038141724653542,0.0218051560223102
1772649421641097000,5.135096923828125,-0.1527706410884857,-0.0029951997606083,-0.0213896287050098,0.023926617577672,0.0087826587259769,0.0174610801041126
1772649421651069000,5.14506884765625,0.0646937137067318,-0.0044301644671708,-0.0421391694081947,0.019457034766674,0.0018872017972171,-0.0050554135814309
1772649421661040000,5.1550400390625,0.2633528302669525,-0.0511156355354934,-0.0675796809392049,0.0120002878829836,-0.0059657539241015,-0.0267040561884641
1772649421671011800,5.16501171875,0.2509779173403978,-0.0695376466065645,-0.1027838999850675,0.0085336500778794,0.0024426444433629,-0.033243715763092
1772649421680983600,5.174983642578125,0.0806114138066768,-0.0526943195616826,-0.0536694482041522,0.0097269546240568,0.0056523666717112,-0.0226034633815288
1772649421690954800,5.184954833984375,-0.0446592259377241,-0.0294512084770947,-0.0014136296575888,0.0111546739935874,0.010774690657854,-0.0129260700196027
1772649421700926500,5.194926513671875,-0.0617179127663373,-0.0092386972600594,-0.0504873110366985,0.0108477240428328,0.0099505819380283,-0.012464702129364
1772649421710898700,5.204898681640625,0.0057727381825447,-0.0209376471538096,-0.0518192172275856,0.0117665128782391,0.0105340797454118,-0.0081746159121394
1772649421720869600,5.21486962890625,0.0111561847865581,-0.0416130631748586,-0.0939495822748169,0.0033513978123664,0.004759628791362,-0.0140797868371009
1772649421730841600,5.224841552734375,0.0809714792907237,-0.0333660438332706,-0.0864984260186552,-0.0024103510659188,-0.005084746517241,-0.0249510779976844
1772649421740813800,5.234813720703125,0.097636782887578,-0.0154170571014285,-0.0544382771521806,-0.0011618612334132,-0.0072935721836984,-0.0196082442998886
1772649421750785500,5.24478564453125,-0.0214051916003227,-0.0054174950040876,-0.0006760360980406,-0.0003562550991773,-0.0125019159168004,-0.0092879617586731
1772649421760756700,5.2547568359375,-0.0671235712021589,-0.0431211661828681,-0.0149848031640052,-0.0040024039335548,-0.0267865117639303,0.0007182373083196
1772649421770728700,5.264728759765625,-0.1054968487381935,-0.0748977854002267,-0.0615958207566291,-0.0021616271696984,-0.031098436564207,0.0164005272090435
1772649421780700700,5.27470068359375,-0.1556236924320459,-0.1174549610247835,-0.0885066971011459,-0.0030646689701825,-0.0210294611752033,0.0347743146121501
1772649421790671600,5.284671630859375,-0.1019967316627502,-0.1137167243445292,-0.061474167138338,0.0017633759416639,-0.0155867571011185,0.0355436988174915
1772649421800643600,5.2946435546875,0.051123453515768,-0.0442758161107078,-0.0081066244902089,0.0043178074993193,-0.0169552080333232,0.0205416101962327
1772649421810615600,5.304615478515625,0.2010305218666792,-0.0501465347750112,-0.0366673869336023,0.0068763061426579,-0.0201765671372413,0.0005822819657623
1772649421820586800,5.314586669921875,0.3080564798682927,-0.0584463802823796,-0.0289948064791038,0.0114190224558115,-0.0258343592286109,-0.0170522984117269
1772649421830558500,5.324558349609375,0.2897866636842489,-0.0385700422171503,-0.0396016502872109,0.0090722450986504,-0.0250958651304245,-0.0262769553810358
1772649421840530700,5.33453076171875,0.1729138499289751,-0.0413844055181369,-0.1147393453905358,-0.0137344226241111,-0.011153545230627,-0.0220775753259658
1772649421850502700,5.344502685546875,0.0585229161173105,-0.0771316453995183,-0.1950532375553622,-0.0450452528893947,0.0181582830846309,-0.0182772949337959
1772649421860473600,5.3544736328125,0.0404658659011125,0.0235642693303525,-0.0952227074831724,-0.0552781820297241,0.0406303033232688,-0.0216054469347
1772649421870445800,5.36444580078125,0.1062169797062873,0.1131655567351728,0.075660696064122,-0.0578576847910881,0.0436287745833396,-0.032234787940979
1772649421880417500,5.37441748046875,0.1472656139314174,0.1020249713765457,0.1631282959084957,-0.0555556491017341,0.0524156093597412,-0.0378487333655357
1772649421890388700,5.384388671875,0.0425841732293367,0.0912266966495662,0.1627026543749496,-0.0436208434402942,0.05014593526721,-0.0201061107218265
1772649421900360700,5.394360595703125,-0.0752215374618768,0.0372295143283903,0.1071416933357715,-0.0383158288896083,0.0459485277533531,-0.0095488065853714
1772649421910332700,5.404332763671875,-0.0870902544319629,-0.0633103695895522,0.0224139302514493,-0.0318779163062572,0.0296234209090471,-0.0042641256004571
1772649421920304600,5.4143046875,-0.0244639946490526,-0.1135012549629434,-0.0860621534932404,-0.0215392597019672,0.0243490301072597,-0.001007079728879
1772649421930275600,5.424275634765625,0.0242231716305017,-0.2011641581837087,-0.1006971568388864,-0.0212593395262956,0.0173501409590244,-0.0042992699891328
1772649421940247600,5.43424755859375,0.0743663819372653,-0.2348105533283203,-0.1388838988268748,-0.0169372968375682,0.0137029411271214,-0.0119673088192939
1772649421950219500,5.444219482421875,0.0722597650468349,-0.1871827599085867,-0.0901119038080796,-0.0073983995243906,0.0069439061917364,-0.0163064915686845
1772649421960190500,5.4541904296875,0.0769891316562891,-0.1453213845284655,-0.0020484204297885,-0.0021863270085304,-0.0020815462339669,-0.0237156730145216
1772649421970162700,5.46416259765625,0.0604506693094968,-0.0436724433900788,0.031145335576497,0.0012551406398415,-0.0002473893109709,-0.0142754493281245
1772649421980134700,5.474134765625,-0.0495481670230627,0.060730764892511,0.1289083751922473,0.008706665597856,0.0058272816240787,7.8190001659e-05
1772649421990105600,5.484105712890625,-0.1522942557483911,0.1032959776930511,0.1815361323237419,0.0128847220912575,0.011582612991333,0.011395925655961
1772649422000077800,5.494077880859375,-0.0983089830607175,0.0985366543367505,0.1319687126109376,0.0179923996329307,0.0279112551361322,0.0181805938482284
1772649422010049500,5.504049560546875,-0.0025432547420263,0.0654618485350161,0.0838895586945116,0.0145177291706204,0.0339297428727149,0.0049480963498353
1772649422020020700,5.514020751953125,0.1489876154184341,-0.0145904700841754,0.0198121137226,0.010271318256855,0.034750260412693,-0.0126937478780746
1772649422029992700,5.52399267578125,0.2661743174284696,-0.0505794462995603,-0.0626044132772833,0.0091737564653158,0.0297681707888841,-0.0340544022619724
1772649422039964700,5.533964599609375,0.2572732180923223,-0.0318042744092643,-0.0870288796335458,0.0103194490075111,0.0158683322370052,-0.0456029325723648
1772649422049936600,5.5439365234375,0.1363864925205707,-0.0430042252723127,-0.0474088534394279,0.022021546959877,-0.0004189684987068,-0.0401312187314033
1772649422059907600,5.553907470703125,-0.0706885702073574,-0.0162865334123373,-0.0112093762785196,0.0338198840618133,-0.0146706085652112,-0.0145747242495417
1772649422069879600,5.563879638671875,-0.246857622539997,-0.0201983365612104,-0.0259292448960244,0.0353813394904136,-0.0240132566541433,0.0173260010778903
1772649422079851500,5.5738515625,-0.302947758552432,-0.0624517799988389,-0.0863088582633063,0.0238125678151845,-0.0240774378180503,0.0346003249287605
1772649422089822500,5.583822509765625,-0.2211719771414995,-0.0647176060389727,-0.1808135536702349,0.0129214003682136,-0.0202321596443653,0.0459049269556999
1772649422099794700,5.593794677734375,-0.0820540138304233,-0.0575835163753479,-0.1196382964132353,0.0103535801172256,-0.0157601796090602,0.0438628122210502
1772649422109766700,5.6037666015625,0.0688654464334249,-0.0134729372963309,-0.0274612037036567,0.0052576959133148,-0.012091290205717,0.0268182903528213
1772649422119738600,5.613738525390625,0.2031073281407356,-0.0191267983395606,-0.0080250106213614,0.0043961629271507,-0.0130439028143882,0.0063015646301209
1772649422129709800,5.623709716796875,0.2701028890490531,-0.0455389313817024,0.0012506211156025,0.0051898378878831,-0.0083637107163667,-0.0095357578247785
1772649422139681500,5.633681640625,0.2843716528981924,-0.0433682728117331,-0.0360411447940394,0.0022798012942075,-0.007176473736763,-0.030104948207736
1772649422149653800,5.64365380859375,0.2306669507175683,-0.088303612277098,-0.067620597471483,0.008059874176979,-0.0050719971768558,-0.0342684984207153
1772649422159624700,5.653624755859375,0.1112730940520763,-0.1114982445774599,-0.102673863739334,0.0083597460761666,-0.0077221086248755,-0.0251365192234516
1772649422169596700,5.6635966796875,-0.017825579547882,-0.1083282727718353,-0.12600089024771,0.0050798337906599,-0.0126963406801223,-0.0169162712991237
1772649422179569700,5.673569580078125,-0.086593995347619,-0.0908314867869019,-0.1402934002986177,0.0042744940146803,-0.0204722378402948,0.0010691207135096
1772649422189540600,5.68354052734375,-0.1366074417948722,-0.1116751355143263,-0.145357953679189,0.004848803859204,-0.020822137594223,0.0132864899933338
1772649422199512800,5.693512939453125,-0.1149304475158452,-0.1405209254441782,-0.1228589754927903,-0.0049622817896306,-0.0277953594923019,0.0125416042283177
1772649422209484500,5.703484619140625,-0.0542488920599222,-0.1117917841639369,-0.0702363694604486,-0.0052849077619612,-0.0377160087227821,0.0113231856375932
1772649422219455700,5.713455810546875,-0.0300748202681541,-0.0396211587052792,0.0758234854103997,-0.0004978757351636,-0.0318320207297802,0.016370141878724
1772649422229427500,5.723427490234375,-0.0968558616429567,0.0856265020223334,0.1953912738706916,-0.0048629664815962,-0.0384297892451286,0.024763373658061
1772649422239399700,5.733399658203125,-0.0729319652199745,0.1208524945085868,0.1951774119243025,0.0003501712344586,-0.0354419946670532,0.034319594502449
1772649422249371600,5.74337158203125,-0.0534860909938812,0.156797229723446,0.2235792574789375,0.0132881253957748,-0.0375885479152202,0.0337323322892189
1772649422259342600,5.753342529296875,0.0220680394232273,0.1294889150265604,0.1817902897479012,0.0151696484535932,-0.0310464911162853,0.0306638367474079
1772649422269314600,5.763314453125,0.1232125381708145,0.0974692808335647,0.0189274033099412,0.0121759455651044,-0.0246871169656515,0.0161490272730588
1772649422279286500,5.77328662109375,0.2561836692899465,0.0448093384655192,-0.1444265911132097,0.0071609471924602,-0.0190627872943878,-0.0074753416702151
1772649422289257500,5.783257568359375,0.3844394623249769,-0.0224818809211254,-0.2549549312125891,-0.0056392704136669,-0.0144310165196657,-0.035709910094738
1772649422299229700,5.793229736328125,0.401912575173378,-0.0443994790229946,-0.2832208023626357,-0.0156136080622673,-0.0058844005689024,-0.055412508547306
1772649422309201700,5.80320166015625,0.2801987511277198,-0.0240896083787083,-0.21534977379404,-0.0198855772614479,-0.0033917161636054,-0.0535739436745643
1772649422319172600,5.813172607421875,0.0756271956533193,0.0084251889200881,-0.1182594823407009,-0.0229410212486982,0.0034520751796662,-0.0367238596081733
1772649422329144800,5.823144775390625,-0.1026560723543167,0.0073223057121038,-0.0718065779192373,-0.0222364012151956,0.0101859252899885,-0.0168923288583755
1772649422339116500,5.833116455078125,-0.1547165144592523,0.0150586721178144,0.0347676177268847,-0.0212875176221132,0.0144813377410173,-0.0001088217832148
1772649422349088800,5.8430888671875,-0.1335334411770105,0.0306665025509893,0.0636208603108301,-0.0188442878425121,0.0204755682498216,0.015229970216751
1772649422359059500,5.8530595703125,-0.088375033545494,-0.000344173795171,0.05706785847079,-0.0181340239942073,0.0175279807299375,0.0127207394689321
1772649422369031700,5.86303173828125,0.0345569341182708,-0.0448576711192727,0.047775239066407,-0.0196611545979976,0.0168940294533967,0.0003591707209125
1772649422379003600,5.873003662109375,0.158756729760766,-0.079614730919525,0.0515700647721067,-0.0089105069637298,0.008195080794394,-0.0193255841732025
1772649422388974600,5.882974609375,0.2164203987002372,-0.0980999799525365,0.1111170632401481,3.7204939872e-05,0.0028492156416177,-0.0363809876143932
1772649422398946600,5.892946533203125,0.1607774219334125,-0.0840111027149483,0.0638419922482222,0.0052628591656684,-0.0014858779031783,-0.0292535703629255
1772649422408918500,5.90291845703125,0.0016132804155349,-0.0574977743206545,-0.0159148505557328,0.0077300644479691,-0.0030420087277889,-0.0171218439936637
1772649422418889500,5.912889404296875,-0.1111000755727291,-0.0507861113201826,-0.0658593599526211,0.0040133572183549,0.002213739324361,-0.0043700961396098
1772649422428861700,5.92286181640625,-0.1032990464329719,-0.077377948310785,-0.1297997345414012,-0.0043718721717596,0.00496904598549,0.0036388279404491
1772649422438833700,5.932833740234375,-0.0499760370463132,-0.0888057896455749,-0.1963728322539478,-0.0166234783828258,0.011934544891119,0.0053041027858853
1772649422448805600,5.9428056640625,0.0092021281093358,-0.0509239123556762,-0.1562812795579433,-0.0209252759814262,0.0159630738198757,0.0018139444291591
1772649422458776800,5.95277685546875,0.0972293711304664,0.0042768736016005,-0.0658625748230144,-0.0246342606842517,0.0144645133987069,-0.0077409450896084
1772649422468748500,5.96274853515625,0.1469394507169723,0.0087216145833954,0.031498167602159,-0.02120241522789,0.0205231457948684,-0.0095942253246903
1772649422478720800,5.972720703125,0.1212362696617841,0.0625788769772276,0.0459965389560908,-0.0157429352402687,0.0199335217475891,-0.0142510281875729
1772649422488691500,5.98269140625,0.1599701972037553,0.0589386938439682,0.0218603880219161,-0.0081072812899947,0.0158601235598325,-0.0314625799655914
1772649422498663700,5.99266357421875,0.1937117232859134,0.0069001347772777,0.0306479439809918,-6.4268708229e-05,0.0159197784960269,-0.0388022512197494
1772649422508635600,6.0026357421875,0.1393161162316799,-0.0280525206603109,0.0081389193246141,0.0004110466688871,0.0244108159095048,-0.0364084802567958
1772649422518607600,6.012607666015625,0.0298842661321163,-0.0464516988450661,-0.0697935575963929,-0.0066125080920755,0.0260278861969709,-0.031155927106738
1772649422528578600,6.02257861328125,-0.066666475084424,-0.0703163028288632,-0.1159300530124455,-0.0100185722112655,0.0181998964399099,-0.0274831391870975
1772649422538550500,6.032550537109375,-0.0933539910018444,-0.0673664765799418,-0.0104625764992088,0.0008428636938333,-0.0009208011906594,-0.0132008725777268
1772649422548522800,6.042522705078125,-0.1435199976623058,-0.009380334220454,0.1048022906027734,0.0030408878810703,-0.0104502849280834,0.0021882269065827
1772649422558493700,6.05249365234375,-0.1910994949609041,0.0177144473236054,0.0298656344968825,0.0061661074869334,-0.0136258378624916,0.0211786944419145
1772649422568465700,6.062465576171875,-0.1466097803711891,-0.0133112804612144,-0.0589101253366097,0.0040999534539878,-0.0127029046416282,0.0259577650576829
1772649422578437600,6.072437744140625,0.01773614769876,-0.0052178077135235,-0.1071669008422642,-0.0027337179053574,-0.0117316497489809,0.0155519964173436
1772649422588408800,6.082408935546875,0.1895084263771772,-0.0245085644431412,-0.1532724896633997,-0.0173308737576007,-0.0064188167452812,-0.0027843285351991
1772649422598380500,6.092380615234375,0.244392109209299,-0.0065015639137476,-0.1983056269474327,-0.0335639044642448,0.0105934562161564,-0.0179869830608367
1772649422608352800,6.102352783203125,0.2513771457910537,0.0121978393265977,-0.202774077598378,-0.044022724032402,0.0193787384778261,-0.0361497066915035
1772649422618324500,6.112324462890625,0.2491810970515012,0.0271963422223925,-0.1011903471833094,-0.042300458997488,0.015044443309307,-0.0470513552427291
1772649422628295700,6.122295654296875,0.1686936018854379,0.0927434944206848,0.021963300407119,-0.0230797808617353,0.0066620172001421,-0.0402822904288768
1772649422638267400,6.132267333984375,-0.0341693961054086,0.0504373344151303,0.1434947536231949,-0.0040040896274149,-0.0024641030468046,-0.0163753610104322
1772649422648239600,6.142239501953125,-0.2133288624256849,-0.0230137227755039,0.1647925027936697,0.0099225845187902,-0.0143957827240228,0.0082475496456027
1772649422658210600,6.15221044921875,-0.2728647549778223,-0.0972717124348506,0.0753205773895606,0.0144763235002756,-0.0170509554445743,0.0279416255652904
1772649422668182500,6.1621826171875,-0.2297019050776958,-0.1597698888586834,-0.028227219640091,0.0067946584895253,-0.0178810488432645,0.0348599329590797
1772649422678155500,6.172155517578125,-0.0562374355286359,-0.2070086098955944,-0.1014943350985646,0.0024550375528633,-0.0222398452460765,0.0199827197939157
1772649422688126200,6.182126220703125,0.1499094064384698,-0.1686927251026034,-0.0595503960015252,-0.0008290177211165,-0.0265484452247619,-0.0048934435471892
1772649422698098400,6.192098388671875,0.2385223403930663,-0.1099382287191227,-0.0167642704593017,-0.0041909920983016,-0.0168619975447654,-0.015358068048954
1772649422708070400,6.2020703125,0.1709136160224676,-0.0466070720698684,-0.0399674148596823,-0.0149237979203462,-0.0157330837100744,-0.0158752538263797
1772649422718042400,6.21204248046875,0.0735574036419391,0.0227543777195736,-0.0237015589091926,-0.0179422236979007,-0.0035911991726607,-0.0134664252400398
1772649422728013600,6.222013671875,-0.0443675495147705,0.0352050592960789,0.0602545256828889,-0.0095103457570075,-0.0010516212787479,0.0066596642136573
1772649422737985300,6.2319853515625,-0.0884451761722564,0.0331908699294552,0.0778224406752735,-0.0102198123931884,0.0036651035770773,0.0199024993926286
1772649422747957500,6.24195751953125,-0.0440174209028482,0.0200504159905016,0.0074530559523031,-0.0121466917917132,0.0153960520401597,0.0277940593659877
1772649422757928400,6.251928466796875,0.0314355872273445,-0.0199751587972044,-0.0370502487713471,-0.0136393941938877,0.0293275788426399,0.0226925089955329
1772649422767900400,6.261900390625,0.1740373010009527,-0.0468092070458456,-0.0604352525446563,-0.0176386162638664,0.0302737895399332,-0.0022221123799681
1772649422777872400,6.271872314453125,0.3270031724005937,-0.0438779028343036,-0.1211637158822268,-0.0253817588090896,0.033209390938282,-0.0355952493846416
1772649422787843600,6.281843505859375,0.3399742976546287,-0.03605038754642,-0.0787707543760538,-0.0264920890331268,0.044085819274187,-0.0494555495679378
1772649422797815300,6.291815185546875,0.1774479862272739,0.0555935116019099,-0.0309993877671658,-0.0232148021459579,0.0476967990398407,-0.0424152165651321
1772649422807787500,6.30178759765625,-0.0196697461098432,0.0853852771449834,-0.0091828754195943,-0.0165039859712123,0.0210894159972667,-0.0347606763243675
1772649422817759500,6.311759521484375,-0.0521925440520048,0.0328594460180029,0.0260949933843687,-0.0169085208326578,0.0190827250480651,-0.0234022960066795
1772649422827730400,6.32173046875,-0.1236047523587942,-0.019472141178511,0.005197532110475,-0.0180822033435106,0.0089974701404571,-0.014947747811675
1772649422837702400,6.331702392578125,-0.1160030451834201,-0.0589407396705821,-0.080718235182017,-0.0250274613499641,0.0033696782775223,-0.0025222373660653
1772649422847674400,6.34167431640625,-0.1342167472660541,-0.0858605299739167,-0.1299554365597665,-0.0325797498226165,0.0062329019419848,0.0131129017099738
1772649422857645600,6.3516455078125,-0.1158791265428066,-0.0867048353109508,-0.2184361224368214,-0.0373761020600795,0.0046094390563666,0.0198919791728258
1772649422867617300,6.3616171875,-0.0252618670284748,-0.0776265893096104,-0.1605905941244214,-0.0324169769883155,-0.002068750327453,0.0215441659092903
1772649422877589500,6.371589599609375,0.0608627572417259,-0.0438133496981114,-0.0325879721328616,-0.0254245810210704,0.0042200381867587,0.0197574514895677
1772649422887560400,6.381560546875,0.0820475840896368,-0.0079263360198587,0.0494220564253628,-0.0155748892575502,0.0092931278049945,0.0146021908149123
1772649422897532400,6.391532470703125,0.1187912145972251,0.0003384016415104,0.0975230203147977,-0.0044860187917947,0.0132236871868371,0.0057035041972994
1772649422907504400,6.40150439453125,0.1774737051904201,-0.0008228241575881,0.1270102864859625,0.0022100708447396,0.0078429440036416,-0.0086717782542109
1772649422917476400,6.411476318359375,0.2112503025859594,-0.0277831291344016,0.1201901581423357,0.0135807022452354,0.0001551965251564,-0.0157187692821025
1772649422927447300,6.421447265625,0.1085457149147987,-0.0328928368309512,0.0703129783606156,0.0143160615116357,-0.001368744764477,-0.0090591246262192
1772649422937419500,6.43141943359375,0.0031681086421012,-0.0401994335172697,0.0060899509055539,0.0098022706806659,0.0015306384302675,-0.0034001730382442
1772649422947391500,6.4413916015625,-0.0499549942582845,-0.0446641213085502,-0.0507012095157057,0.0105050839483737,-0.0033046307507902,0.0028802740853279
1772649422957362400,6.451362548828125,-0.0556055673658847,-0.0449406001623719,-0.0675919924315065,0.0053531997837126,0.0080159343779087,0.0131880389526486
1772649422967334400,6.46133447265625,-0.069435939797759,-0.0193417927971109,-0.0915816840996965,0.0055014863610267,0.0085336994379758,0.0142157888039946
1772649422977306400,6.471306396484375,0.0518248797833919,-0.0238716913117095,-0.0545227405652403,0.0125396884977817,0.0056028910912573,-0.0001769987284205
1772649422987278300,6.4812783203125,0.1441524503469467,-0.0331297873919829,0.0138993825474753,0.0200694054365158,0.0029414207674562,-0.0061203031800687
1772649422997249300,6.491249267578125,0.1399409701317548,-0.0061094227910041,0.0138614982225,0.0275092124938964,-0.0027492216322571,-0.0085214097052812
1772649423007221500,6.501221435546875,0.0828840349137783,-0.0172742658080533,0.0008497121645137,0.0227608922868967,-0.0039940429851412,-0.0095589635893702
1772649423017193200,6.511193115234375,-0.0020095862567424,-0.0510453102456405,-0.0329497546499595,0.0188748091459274,-0.0108146648854017,0.0010153842158615
1772649423027164400,6.521164306640625,-0.0612906272649765,-0.0615852993626147,-0.0450225062921643,0.0105882119387388,-0.0161402467638254,0.0079180439934134
1772649423037136400,6.531136474609375,-0.0731172586590051,-0.0561726997293531,-0.1162457313654944,-0.005510329734534,-0.0123361870646476,0.0181392580270767
1772649423047108400,6.5411083984375,-0.0652875879466533,-0.0369777315244078,-0.1391911381451413,-0.0096953762695193,-0.0081386398524045,0.025103798136115
1772649423057079300,6.551079345703125,0.0226057995617389,0.0188355237754061,-0.077895067520067,-0.0126632023602724,-0.0041385716758668,0.0153126865625381
1772649423067051500,6.561051513671875,0.1164753388702869,0.0379119071019813,-0.0334881358429789,-0.0105215264484286,0.0027984092012047,0.0098541351035237
1772649423077023500,6.5710234375,0.1373170513689517,0.0056688028840348,-0.02693761822097,-0.0008462620899081,0.008804902434349,2.20115180127e-05
1772649423086995500,6.580995361328125,0.1663455774545669,-0.0494634844142943,0.0059941989134997,0.0030577033758163,0.0038165566511452,-0.0104158464819192
1772649423096966400,6.59096630859375,0.1416132872581481,-0.1081436003873124,0.0027640944184735,0.0091235851868987,0.004678355064243,-0.0195036176592111
1772649423106938400,6.6009384765625,0.0945809024482965,-0.1026274673143401,0.0105292850598692,0.0155246555805206,0.0081408247351646,-0.0155221186578273
1772649423116910300,6.610910400390625,0.0617547376453876,-0.0810938635613769,0.0728508262751624,0.0249320063740015,0.002762836869806,-0.0224090535193681
1772649423126881300,6.62088134765625,0.0625590397655963,-0.0212285929244011,0.1157824977679178,0.0317381955683231,-0.0030630477704107,-0.0177418291568756
1772649423136853500,6.630853515625,0.0273299054741859,0.0098913890151306,0.0959790788084268,0.03239306807518,-0.0011743339709937,-0.0105680711567401
1772649423146825200,6.6408251953125,-0.0307552037477493,-0.0096377795802429,-0.0311146847099065,0.0266850516200065,0.0038207713514566,-0.002578199841082
1772649423156796400,6.65079638671875,-0.0093500121474266,-0.0378120999893173,-0.136640978738293,0.0184790547937154,0.0075862146914005,-0.0033822080586105
1772649423166768400,6.660768310546875,0.0859539438784122,-0.0215802924389019,-0.1147988204928115,0.0125338807702064,0.0056723523885011,-0.0162303037941455
1772649423176740400,6.670740234375,0.1529337226957082,-0.014754611137323,-0.0725600631676614,0.0154407210648059,0.0020184954628348,-0.0249188672751188
1772649423186712600,6.680712646484375,0.1345779817938804,0.0112910632126033,0.0094499288579449,0.0220925360918045,-0.0024990031961351,-0.0257573593407869
1772649423196683500,6.69068359375,0.0576899724245071,0.0110824619632214,0.046839821379818,0.0265932790935039,-0.0173626374453306,-0.0194411408156156
1772649423206655500,6.700655517578125,-0.0540302808731794,-0.0299042494742199,-0.0250395295146852,0.0195272155106067,-0.0129072628915309,0.0048329662531614
1772649423216627500,6.71062744140625,-0.1979454153329133,-0.0452926650030538,-0.1107388045122846,0.0155764175578951,-0.0055694547481834,0.0218550935387611
1772649423226598400,6.720598388671875,-0.1535994931280613,-0.0684110537294298,-0.1077615057345479,0.0135846156626939,-0.0112543273717165,0.0143779618665575
1772649423236570400,6.7305703125,0.0636684623122215,-0.0696356270883232,-0.0869464255144819,0.0095816180109977,-0.0098119582980871,0.0010965107940137
1772649423246542300,6.740542236328125,0.176619718709588,-0.0723422191658988,-0.1004858887083828,0.0015670876018702,0.0022583538666367,-0.0095772659406065
1772649423256513300,6.75051318359375,0.1949701989144086,-0.0542183873238042,-0.086298702195473,-0.0049829571507871,0.0001035900786519,-0.0200693234801292
1772649423266485500,6.760485595703125,0.2312204929471016,-0.008407835926488,-0.0507927967892959,-0.0025933103170245,-0.0033299897331744,-0.0249841008335351
1772649423276457200,6.770457275390625,0.1337193191379308,0.0460088869810104,0.1005226039895787,0.0130194714292883,0.0058339475654065,-0.0196801498532295
1772649423286429400,6.780429443359375,0.0088484923660755,0.0793069436119869,0.2254748254345729,0.0265105105936527,-0.0048626386560499,-0.0202412772923707
1772649423296400400,6.790400390625,-0.0123427642226219,0.0205486478362232,0.1315722241066396,0.0278764478862285,-0.0013446030206978,-0.0168089959770441
1772649423306372400,6.800372314453125,0.0026753566890954,-0.053744559266977,-0.0107779260586947,0.0162596441805362,-0.0011802271474152,-0.0270635094493627
1772649423316344600,6.810344482421875,0.0452080919921398,-0.0817682191589847,-0.0887962180996313,0.0006729601882398,0.0018195575103163,-0.0246922317892313
1772649423326315500,6.8203154296875,0.0135778589755296,-0.0715397802092134,-0.1507781886296346,-0.0153919225558638,0.0189031101763248,-0.0182154960930347
1772649423336287500,6.83028759765625,-0.0428407783389091,-0.0043586701335385,-0.0722645142871886,-0.0203856155276298,0.0240414142608642,-0.021200368180871
1772649423346259500,6.840259521484375,0.034640520748496,0.0484305246373638,0.0087208108657971,-0.0130815710872411,0.020878829061985,-0.0268706250935792
1772649423356230400,6.85023046875,0.1134504380911588,0.0394905545955523,0.0584993891112506,-0.0042222999036312,0.0180319100618362,-0.0240149162709712
1772649423366202400,6.860202392578125,0.0539922869503498,0.0373572323612868,-0.0068262658234685,-0.0021298094652593,0.0056300889700651,-0.0190270319581031
1772649423376174300,6.87017431640625,-0.0108329441815614,-0.047094563325867,-0.0749612425578758,-0.0096444506198167,0.0042143519967794,-0.0011529615148901
1772649423386146300,6.880146240234375,-0.1044534771651029,-0.0887722892347723,-0.1897380338819697,-0.0229811258614063,0.0058642397634685,0.0205176994204521
1772649423396117500,6.890117431640625,-0.1616074430167675,-0.1044359780410304,-0.2162869815789163,-0.0378436967730522,0.0191611368209123,0.0333922207355499
1772649423406089200,6.900089111328125,-0.0874964971452951,-0.0318801891896873,-0.0723226376825943,-0.0303660407662391,0.0167877823114395,0.0299431141465902
1772649423416061400,6.9100615234375,0.0742488930374383,0.0354133317518979,0.1166526681985706,-0.0155221140012145,0.0163510236889123,0.0134075451642274
1772649423426032400,6.920032470703125,0.1717412990182638,0.0550278405431658,0.2487837682969868,-0.0015085318591445,0.0186976678669452,0.0035686872433871
1772649423436004400,6.93000439453125,0.2043991215169429,0.069288640281558,0.2257132373003288,0.0096999146044254,0.0232348926365375,-0.0125269256532192
1772649423445976600,6.9399765625,0.2193792485058307,0.0766436426868662,0.1195088065483607,0.0182927455753088,0.0359125323593616,-0.0209445804357528
1772649423455948300,6.9499482421875,0.2171504665404558,0.0620027210570871,0.0693830223004333,0.0246110949665308,0.0463558509945869,-0.0299442019313573
1772649423465919500,6.95991943359375,0.1876607526838779,0.0104547219863161,-0.0122939931774511,0.030108768492937,0.0464960746467113,-0.0369937494397163
1772649423475891500,6.969891357421875,0.1265858139961957,-0.0558196119753643,-0.0959941667797043,0.0309633798897266,0.0529334656894207,-0.0393314734101295
1772649423485863400,6.979863525390625,0.0684890143364667,-0.0983499726582318,-0.1066717925353907,0.0273795090615749,0.0435506664216518,-0.0440441630780696
1772649423495834400,6.98983447265625,0.0458142411917448,-0.1034740011410787,-0.1101627947226166,0.0279108099639415,0.0392414033412933,-0.0439171306788921
1772649423505806300,6.999806396484375,-0.0128927993208169,-0.0756964249646291,-0.0548065807416103,0.0339885801076889,0.0365292988717556,-0.0299209021031856
1772649423515778300,7.0097783203125,-0.0808504832595586,-0.0518851586032658,0.0191803368913941,0.033374186605215,0.0311230830848217,-0.0221796240657567
1772649423525749500,7.01974951171875,-0.0732394237339496,-0.023689210884273,0.0052586511805653,0.0345729142427444,0.0216664876788854,-0.0211349967867136
1772649423535721200,7.02972119140625,-0.0134404963314533,-0.0522879672504961,-0.0127722416810691,0.0332730263471603,0.0085815768688917,-0.0228482093662023
1772649423545693400,7.039693359375,-0.0111368955641984,-0.0666547481140121,0.001497563347686,0.026613213121891,-0.0040425928309559,-0.021378194913268
1772649423555665400,7.04966552734375,-0.062255672904849,-0.0330710429420694,-0.0414153486456722,0.0211364235728979,-0.0120427282527089,-0.0110187642276287
1772649423565636400,7.05963623046875,-0.1106482401520013,-0.0456356332218274,-0.0391526826770044,0.0142114367336034,-0.0214183311909437,0.0018802108243107
1772649423575608600,7.069608642578125,-0.1277308923780918,-0.0221082983683794,-0.045588012954127,0.0116244424134492,-0.024517185986042,0.015442625619471
1772649423585580300,7.079580322265625,-0.151499890500307,-0.011827471644245,-0.0654941981683485,0.0123190097510814,-0.0272581782191991,0.0247089229524135
1772649423595551500,7.089551513671875,-0.1122469075202941,-0.0308435761509463,-0.0631435251226648,0.0104947425425052,-0.0261806640774011,0.0279318820685148
1772649423605523500,7.0995234375,-0.0135936410665512,-0.0597399637568742,-0.0550385993991978,0.0104074431583285,-0.0263362396508455,0.0212899204343557
1772649423615495400,7.109495361328125,0.0995277112007141,-0.0505983701957389,-0.0264671876976266,0.0098907900974154,-0.0257466156035661,0.0098820049315691
1772649423625466400,7.11946630859375,0.1499257730513811,-0.0376292177030816,-0.0536025752467103,0.0046526780351996,-0.0239903405308723,0.0058698304928839
1772649423635438300,7.129438232421875,0.1628916376084089,-0.0281280335819348,-0.0954698141120374,-0.0043842266313731,-0.0190762765705585,-0.0016195112839341
1772649423645410600,7.13941064453125,0.1735936488866805,-0.0433110627317801,-0.1185518894160166,-0.0125919189304113,-0.0144172832369804,-0.0099783884361386
1772649423655382300,7.14938232421875,0.1944207483381032,-0.0320472893849015,-0.0949160892194136,-0.0236139446496963,-0.0085567310452461,-0.0277789570391178
1772649423665353500,7.159353515625,0.1748310817271471,0.0292559051007032,-0.0130735444488935,-0.0220417249947786,0.0005969470366835,-0.0238825939595699
1772649423675325400,7.169325439453125,0.0456277787089347,0.0946513373360037,0.0555996125491335,-0.0188350118696689,0.0073318150825798,-0.0126962522044777
1772649423685296600,7.179296630859375,-0.0532692333728075,0.0609293927371501,0.0674003605832345,-0.0181643776595592,0.0126498350873589,0.0027100981678813
1772649423695267300,7.189267333984375,-0.0526093081593513,-0.000432874991931,0.0198571949733421,-0.0152924247086048,0.0124282604083418,0.0046329000033438
1772649423705239600,7.199239501953125,0.0125415016651153,-0.0105632603947073,-0.0342426805373281,-0.0160375162959098,0.0163262486457824,0.001122465590015
1772649423715211300,7.209211181640625,0.1164127950280904,-0.040311807850562,-0.051623895584885,-0.0192540828138589,0.0187318827956914,-0.0115978568792343
1772649423725182500,7.219182373046875,0.1838619449228048,-0.0739552803857252,-0.0853108236692845,-0.0235729981213808,0.0180153399705886,-0.0261891093105077
1772649423735154400,7.229154541015625,0.1875304043024778,-0.0405580742292106,-0.0952978733449242,-0.0271831788122653,0.0207256395369768,-0.0297292489558458
1772649423745126400,7.23912646484375,0.1440390531003475,0.0097791242796927,-0.0887614938461221,-0.0283281169831752,0.0125388279557228,-0.0297692455351352
1772649423755098600,7.2490986328125,0.0607511135607957,0.0025629823558032,-0.1188971591897308,-0.0324142053723335,0.0103451814502477,-0.0204401910305023
1772649423765069600,7.259069580078125,-0.0420960974514484,-0.0256947054877877,-0.1158991646838374,-0.0345884039998054,0.0137223014608025,-0.0140127390623092
1772649423775041500,7.26904150390625,-0.1104670383661985,-0.0462539112506434,-0.1019565457828342,-0.0337313972413539,0.0151300495490431,-0.0019355700351297
1772649423785013500,7.279013427734375,-0.0883048909187316,-0.0506049460669979,-0.0815209481333382,-0.0288714542984962,0.0044087758287787,-0.0029242797754704
1772649423794984700,7.288984619140625,-0.0054313773989677,-0.0956525137351825,-0.011654160903953,-0.0172544792294502,-0.0055716866627335,-0.0079078525304794
1772649423804956400,7.298956298828125,0.0307037658214569,-0.1359002068409696,0.0318590916027314,-0.0053509538993239,-0.0216984245926141,-0.0103357713669538
1772649423814928600,7.3089287109375,-0.0211912565886974,-0.1525106384454295,0.0620417013606056,0.0001870896667242,-0.0331963561475276,-0.0076217437162995
1772649423824899300,7.3188994140625,-0.0977402432620525,-0.152010397305712,0.0716805221204646,0.005282359663397,-0.0297924317419528,0.0112798837944865
1772649423834871600,7.32887158203125,-0.1931885761946439,-0.0784851058350876,0.0504754196695052,0.0091527309268713,-0.0187419094145298,0.0277227722108364
1772649423844843300,7.33884326171875,-0.1484966170310974,-0.0300293371586129,0.0594514839380048,0.0134157938882708,-0.0071537690237164,0.0283087324351072
1772649423854815500,7.3488154296875,0.0066202949225902,-0.0211690082242712,0.0578563419673591,0.0141854481771588,-0.0037103018257766,0.016929842531681
1772649423864786400,7.358786376953125,0.1722925031602382,-0.021155089296773,0.0118752197761088,0.0107824085280299,-0.0039534014649689,-0.0020424805115908
1772649423874758400,7.36875830078125,0.2488765611469745,-0.0026071137584745,-0.0306461538827046,0.0141531722620129,0.0048579331487417,-0.012151307426393
1772649423884730600,7.378730712890625,0.2275724918335676,0.0068109586564823,-0.0396027827983722,0.0170923620462417,0.0064958487637341,-0.0243856646120548
1772649423894701600,7.38870166015625,0.2154799029797315,0.0110792470928281,-0.081591583950445,0.025231247767806,0.0030017816461622,-0.0339850299060344
1772649423904673500,7.398673583984375,0.1801712737113237,0.0036855201123282,-0.0775416509725153,0.0350980460643768,-0.0018625289667397,-0.0349709652364254
1772649423914645500,7.4086455078125,0.1273427698433399,-0.0293942541254684,-0.065181771218311,0.0384488366544246,-0.0032569600734859,-0.0330500267446041
1772649423924617500,7.418617431640625,0.094253570190072,-0.0673070380102843,-0.1349384674030356,0.0373178943991661,-0.0079048015177249,-0.0331339910626411
1772649423934588400,7.42858837890625,0.067429276150465,-0.0854478575197979,-0.1700926184957847,0.0330762788653373,-0.0152055919170379,-0.0315616615116596
1772649423944560600,7.438560546875,0.0044061260044574,-0.1382490349894389,-0.1546102958721108,0.0307816974818706,-0.0136423148214817,-0.0211186092346906
1772649423954532400,7.448532470703125,-0.1086982751280069,-0.1238637686211615,-0.0516472216615453,0.0341700389981269,-0.018425352871418,-0.0146700292825698
1772649423964503600,7.458503662109375,-0.1002817444384098,-0.0820150335269048,0.0177950017465278,0.0419296287000179,-0.024654671549797,-0.0032028688583523
1772649423974475300,7.468475341796875,-0.1223240648984909,-0.0349794338466599,0.097027510149125,0.0524299405515193,-0.0256275255233049,0.0171263720840215
1772649423984447500,7.478447509765625,-0.1958838066279888,-0.0265910698056221,0.1290861429119482,0.0522872991859912,-0.0148106571286916,0.0327172428369522
1772649423994418700,7.488418701171875,-0.1369710144102573,-0.0221896199762821,0.0828296743780374,0.0529749281704425,-0.0133840013295412,0.0241197608411312
1772649424004390400,7.498390380859375,0.0482978747010231,-0.0098047336449846,0.0116130251759663,0.0564821660518646,-0.0170958116650581,0.0065312013030052
1772649424014362600,7.508362548828125,0.1809884353131055,-0.0662781333539634,-0.0136773555609397,0.0524296313524246,-0.0082991234958171,-0.0081633226945996
1772649424024334300,7.518334228515625,0.1935901427328586,-0.0406303722804412,-0.0505546954507939,0.0370211154222488,-0.0109622841700911,-0.0272121150046587
1772649424034305500,7.528305419921875,0.1380997261792421,0.0226989577379077,-0.0892102239943109,0.033671922981739,-0.0072101564146578,-0.0125948227941989
1772649424044277500,7.538277587890625,-0.0486632008820772,0.1055230791579932,-0.0523246459990739,0.0306463055312633,-0.0073150852695107,0.0118423430249094
1772649424054249500,7.54824951171875,-0.1427028360605239,0.1353754523145034,-0.0580268762286752,0.0251721777021884,-0.0036023720167577,0.027980301529169
1772649424064220400,7.558220458984375,-0.0776227533847093,0.0742690590426325,-0.1028888399305753,0.0287239383906126,-0.0071387244388461,0.028868718072772
1772649424074192600,7.568192626953125,0.0900549494564533,-0.0042384412873536,-0.0314803396845236,0.0317932292819023,-0.0089568644762039,0.0129693793132901
1772649424084164600,7.57816455078125,0.2440419805973768,-0.0760199578305706,-0.0320845161227509,0.0223400238901376,0.0078903390094637,-0.0068943039514124
1772649424094135600,7.588135498046875,0.3093815909922123,-0.0881621945124119,-0.1196578596302308,0.0171487238258123,0.016614057123661,-0.0331866294145584
1772649424104107500,7.598107421875,0.3132803519964218,-0.0878616041306406,-0.089263616415672,0.0163939259946346,0.0287690702825784,-0.0533479675650596
1772649424114079500,7.60807958984375,0.2635638426691293,-0.0519721062343567,-0.0079894643839448,0.0184536129236221,0.0255389213562011,-0.0587187632918357
1772649424124051500,7.618051513671875,0.1674000549435615,-0.0199340596018359,0.0497574441258795,0.0259891264140605,0.0078522767871618,-0.0577861107885837
1772649424134022400,7.6280224609375,-0.012113047119975,-0.0049187882343307,0.1356460128841921,0.0378260798752307,-0.0146943107247352,-0.0338765196502208
1772649424143994600,7.63799462890625,-0.2694569923609495,-0.0277645705644041,0.1857103858010843,0.0421474911272525,-0.0152031816542148,0.0093742702156305
1772649424153966300,7.64796630859375,-0.4692547575622797,-0.0117163394199684,0.0828338390965014,0.0393112227320671,-0.011977294459939,0.0510221123695373
1772649424163937500,7.6579375,-0.4066051169037818,-0.0468900537297129,0.012259981309995,0.038246102631092,-0.0142058990895748,0.0636559501290321
1772649424173909500,7.667909423828125,-0.1147153434604406,-0.1332489982124418,-0.0730455085970461,0.0305064246058464,-0.0105610974133014,0.0515066049993038
1772649424183881500,7.677881591796875,0.1691618039190769,-0.1568800857013091,-0.1431823266731575,0.0257610529661178,-0.0046445131301879,0.0214038547128438
1772649424193852400,7.687852294921875,0.3604027531772851,-0.0985038480456918,-0.106594617379643,0.0306519493460655,-0.0142518673092126,-0.008580676279962
1772649424203824600,7.69782470703125,0.4029226289987563,-0.0819315930271521,-0.0159043656943365,0.0337612815201282,-0.0231242123991251,-0.0192819572985172
1772649424213796600,7.707796630859375,0.2007692405819892,-0.0257210455054417,0.0237841226261109,0.0401933491230011,-0.0246805641800165,-0.0074173081666231
1772649424223768600,7.7177685546875,-0.0346317529201507,-0.0143319652784615,0.0617622633647173,0.0378122888505458,-0.0124746467918157,0.0246154330670833
1772649424233739500,7.727739501953125,-0.206993229663372,0.0282070536348968,-0.045777598975785,0.025289038196206,0.0024473113007843,0.0491612553596496
1772649424243711500,7.73771142578125,-0.1410293498903513,-0.0074943012781441,-0.1172259745744988,0.0033752182498574,0.0158411487936973,0.0545443035662174
1772649424253683500,7.747683349609375,0.050506198400259,-0.0370120356528088,-0.127569454738684,-0.0038741724565625,0.028389697894454,0.0414487421512603
1772649424263654400,7.757654296875,0.2416372575432062,-0.0437997960967943,-0.008378737696167,-0.0128866862505674,0.0161781646311283,0.0135837132111191
1772649424273626600,7.767626708984375,0.3411982864916324,-0.0020407851126044,0.0463028832252137,-0.0053195809014141,0.0060541569255292,-0.0063154273666441
1772649424283598300,7.777598388671875,0.2358352932661771,0.0120852092649787,0.1211117847655899,0.0037325103767216,0.0053795450367033,-0.0089877294376492
1772649424293570600,7.787570556640625,0.0853004484057426,-0.0085669354783371,0.1040216068201698,0.0059218951500952,0.0117857791483402,-0.0039077489636838
1772649424303541500,7.79754150390625,-0.0315121595948934,-0.0033079189715906,0.0460275003499351,0.0064355018548667,0.0110948495566844,0.0103454664349555
1772649424313513500,7.807513427734375,-0.1111275481015443,-0.0269260739136487,-0.0094834475350566,0.0071399076841771,0.0244237035512924,0.026467178016901
1772649424323485700,7.817485595703125,-0.0869903011888265,-0.050044243444316,-0.0031553039594553,-0.0025374211836606,0.0234336927533149,0.0275846999138593
1772649424333456600,7.82745654296875,0.0218231247514486,-0.0594958528026938,-0.0279226654692552,0.0026592048816382,0.0251522306352853,0.0245026238262653
1772649424343428600,7.8374287109375,0.053147068297863,-0.0563538649825379,0.0440050728779286,0.0125336591154336,0.0244220606982707,0.028197132050991
