time,seconds_elapsed,acc_z,acc_y,acc_x,gyro_z,gyro_y,gyro_x
1772649451665514500,0.073514404296875,-0.7671604302942753,0.640101738089323,-0.9445501104630528,0.5423679351806641,-0.3094536960124969,0.2585873305797577
1772649451675486200,0.083486328125,-0.503344658690691,0.6494470740616322,-0.952793330412358,0.5760260224342346,-0.3607371151447296,0.3733638823032379
1772649451685458400,0.09345849609375,-0.2437958968818187,0.7443716753810644,-0.8324473606538026,0.6244705319404602,-0.4084063768386841,0.4540771245956421
1772649451695429400,0.103429443359375,0.0585702623903751,0.9458458493620155,-0.6901812355101108,0.6771385669708252,-0.4424190521240234,0.496819794178009
1772649451705401300,0.1134013671875,0.3944774567365646,1.20617377884984,-0.6267801188971847,0.7362405061721802,-0.4571101069450378,0.5154619216918945
1772649451715374000,0.1233740234375,0.7174030044347047,1.457084476172924,-0.6145402305271476,0.8038324117660522,-0.4461090862751007,0.4930165410041809
1772649451725345000,0.133344970703125,1.1700029797941445,1.7823387590795754,-0.5828420468408614,0.8737169504165649,-0.3990824520587921,0.4174852967262268
1772649451735317000,0.14331689453125,1.5840058057337998,2.021334562203288,-0.6005150661755353,0.9443194270133972,-0.3606626093387604,0.2897360622882843
1772649451745289000,0.1532890625,1.9131693710386752,2.1584107905536887,-0.6863120659265667,1.0158045291900637,-0.3419584333896637,0.1346815079450607
1772649451755261000,0.163260986328125,2.2351719586730003,2.3823463871896267,-0.7102722757719456,1.1071734428405762,-0.3180453181266784,-0.004684074781835
1772649451765232000,0.173232177734375,2.461160980707407,2.827798244360089,-0.8858020072877406,1.1967265605926514,-0.2834681570529938,-0.0953553915023803
1772649451775203800,0.183203857421875,2.5292887605160472,3.4856747085928914,-1.2731535576671362,1.2709591388702393,-0.2450619041919708,-0.13144052028656
1772649451785176000,0.193176025390625,2.465972180381417,4.2600674282282585,-1.5502572653889657,1.3665796518325806,-0.2178342789411544,-0.1092468053102493
1772649451795147000,0.20314697265625,2.3426947602808474,5.07283517896533,-1.714251603542268,1.4514076709747314,-0.2001192718744278,-0.0733513236045837
1772649451805119000,0.213118896484375,2.148951472812891,5.54986524670422,-1.9831277272753416,1.4510973691940308,-0.1131303086876869,-0.1162633746862411
1772649451815091200,0.22309130859375,2.072757875448465,5.613964501649141,-1.9935595433101057,1.385822296142578,0.0565731897950172,-0.2918528020381927
1772649451825063000,0.23306298828125,2.178888345915079,5.430034167665243,-1.6158632716350256,1.3001952171325684,0.2933194041252136,-0.6231167912483215
1772649451835034000,0.2430341796875,2.3454086954146622,5.074011821529269,-0.9488535798106342,1.2182073593139648,0.5580500364303589,-1.112246036529541
1772649451845006000,0.253006103515625,2.59601310326755,4.762160041031241,-0.257488322147727,1.1850628852844238,0.811704695224762,-1.6923112869262695
1772649451854978000,0.26297802734375,2.9427210930913685,4.628037986311316,0.532672240788117,1.2377557754516602,1.0314950942993164,-2.2680256366729736
1772649451864949000,0.272948974609375,3.179593912711739,4.584240053378045,1.3979486888542771,1.3764684200286863,1.1622730493545532,-2.763584613800049
1772649451874921000,0.2829208984375,3.104839408239722,4.463726252771914,1.908087976121157,1.53165602684021,1.164958119392395,-3.142797470092773
1772649451884893000,0.292892822265625,2.614906019786,3.9094828892320392,1.91486769938916,1.6195976734161377,1.039570927619934,-3.375880718231201
1772649451894865200,0.302865234375,1.9250123690456151,2.9111373295649883,1.639629931669682,1.5907797813415527,0.7455868124961853,-3.4711010456085205
1772649451904835800,0.3128359375,1.0002145684093235,1.6168597353264689,1.1466488460831343,1.4383090734481812,0.3420979976654053,-3.4244637489318848
1772649451914808000,0.32280810546875,-0.3187842101097107,0.1077080950468778,0.6853907863631844,1.1701842546463013,-0.0209229215979576,-3.235975980758667
1772649451924780000,0.332780029296875,-1.7115192559689285,-1.0777356149852275,0.3689388185933232,0.828764021396637,-0.2380379289388656,-2.9501349925994877
1772649451934751000,0.3427509765625,-3.044890843233466,-1.8941107425644992,0.1114931665435433,0.4998461306095123,-0.3253400921821594,-2.6320607662200928
1772649451944723200,0.35272314453125,-4.257722910928726,-2.4635844084620477,-0.0424763746064621,0.2523630857467651,-0.282927930355072,-2.324627637863159
1772649451954695000,0.36269482421875,-5.061503637611866,-2.7319004140943286,0.1038058269113302,0.1140691936016082,-0.1749228984117508,-2.0687646865844727
1772649451964667100,0.372667236328125,-5.222494994556904,-2.752575245593488,0.5824750401593745,0.0894179046154022,-0.0811165124177932,-1.9056572914123533
1772649451974638000,0.38263818359375,-4.900029465585947,-2.6495097156554457,1.000105847337842,0.1464510411024093,-0.0515561439096927,-1.79808247089386
1772649451984610000,0.392610107421875,-4.486936155706644,-2.4088931794621047,1.0524425491008906,0.2774268984794616,-0.0758170112967491,-1.7025119066238403
1772649451994582000,0.40258203125,-4.170487695068121,-2.416636487065256,0.9466979361467064,0.4306950867176056,-0.1394656300544738,-1.6075841188430786
1772649452004553000,0.412552978515625,-3.976253993734717,-2.3772693761862813,0.5326472890099511,0.5534622669219971,-0.1800583302974701,-1.5006524324417114
1772649452014525000,0.42252490234375,-3.993363533967733,-2.260900274169445,-0.2562062829805538,0.6164648532867432,-0.2170516848564148,-1.367753982543945
1772649452024497200,0.4324970703125,-4.081335831931233,-2.1859731896094976,-1.1288604567404836,0.6207213401794434,-0.3144059479236603,-1.182842254638672
1772649452034469000,0.44246923828125,-4.223247225353122,-2.111459069764614,-1.9486463426113128,0.6088321208953857,-0.4367255866527557,-0.9137309193611144
1772649452044440000,0.452440185546875,-4.346843209883571,-2.08984622676298,-2.575017953772843,0.5705147981643677,-0.5169932246208191,-0.6173650026321411
1772649452054412000,0.462412109375,-4.300349754256009,-2.276120639654994,-3.035295916414261,0.4739915728569031,-0.5332321524620056,-0.3645086884498596
1772649452064384000,0.472384033203125,-3.940162105134129,-2.346176318786293,-3.505551667712629,0.3212561011314392,-0.4985564947128296,-0.2025749236345291
1772649452074355200,0.482355224609375,-3.264686855846643,-2.284407114224136,-3.97296605810523,0.1196102797985076,-0.402366042137146,-0.1378159373998642
1772649452084327000,0.492326904296875,-2.437070495545864,-2.355920444817841,-4.379920719099045,-0.1272338628768921,-0.2475599348545074,-0.1415164023637771
1772649452094299100,0.502299072265625,-1.558216115438938,-2.258202705648541,-4.5132916631907225,-0.3549343943595886,-0.0717876851558685,-0.2259654998779297
1772649452104270800,0.512270751953125,-0.4876397245585918,-1.7908152032628657,-4.233753129537403,-0.4994822442531585,0.0122313173487782,-0.3646629452705383
1772649452114242000,0.522241943359375,0.586719691991806,-1.1231376221142708,-3.5244328937932847,-0.5334495306015015,0.0092251282185316,-0.5118235349655151
1772649452124214000,0.532214111328125,1.371124102553725,-0.5367344487257302,-2.5072479013606905,-0.4684145450592041,-0.0813833326101303,-0.64975905418396
1772649452134186000,0.54218603515625,2.033561591091752,0.0250504893001168,-1.4339135900743305,-0.3564346134662628,-0.2380149066448211,-0.7799331545829773
1772649452144157000,0.552156982421875,2.3823341122299437,0.5037115557743236,-0.474657237660326,-0.2218453735113144,-0.4422929286956787,-0.8792781233787537
1772649452154129200,0.562129150390625,2.4354548770427704,0.8901369677521288,0.3343940863694995,-0.1224990710616111,-0.6586763858795166,-0.930863082408905
1772649452164101000,0.57210107421875,1.8922341350376608,1.0283541097659616,0.842646025519818,-0.095629908144474,-0.7257784605026245,-0.905676245689392
1772649452174073000,0.582072998046875,0.946227542155981,0.9650878715790808,1.096071847468987,-0.1546568572521209,-0.6761929392814636,-0.839340329170227
1772649452184044000,0.5920439453125,0.309512523895502,0.8858630167599767,1.516134046512842,-0.2463028877973556,-0.6537614464759827,-0.7779134511947632
1772649452194016000,0.60201611328125,-0.1376893918126821,0.9047717884346842,2.3144112073436376,-0.273693710565567,-0.603198766708374,-0.7676935791969299
1772649452203988000,0.611988037109375,-0.3673644088834524,1.074074608259648,3.374726024189591,-0.1926670223474502,-0.5248717069625854,-0.7996168732643127
1772649452213959000,0.621958984375,-0.475555903533101,1.1968548924930391,4.361532244971395,-0.0207762755453586,-0.4209734499454498,-0.8680044412612915
1772649452223931100,0.63193115234375,-0.4846978258877992,1.3102555000931024,5.13225358261764,0.2036879807710647,-0.3370351493358612,-0.9731804132461548
1772649452233902800,0.64190283203125,-0.4773825344383716,1.3482972075872122,5.491439361220598,0.4451113641262054,-0.3165709674358368,-1.0745465755462646
1772649452243875000,0.651875,-0.6806815857589245,1.0859670714315026,5.5773594028294085,0.6503249406814575,-0.365835964679718,-1.129732370376587
1772649452253846000,0.661845947265625,-1.2778577898353338,0.5538198408981785,5.48699816390276,0.810272216796875,-0.4458335041999817,-1.0762760639190674
1772649452263818000,0.67181787109375,-2.078655701315403,0.0837026578202843,5.111158772140741,0.9294753074645996,-0.4835507869720459,-0.9444234371185304
1772649452273790200,0.681790283203125,-2.75925837661922,-0.2562696670729666,4.449912539213895,1.0211492776870728,-0.4623200893402099,-0.7627254128456116
1772649452283761200,0.69176123046875,-3.171234080645442,-0.5545804865397512,3.706488373816013,1.103471040725708,-0.3840042650699615,-0.5713744163513184
1772649452293733000,0.701733154296875,-3.3665812961786985,-0.8177406437788158,2.8864842420846224,1.1667759418487549,-0.2615826725959778,-0.368400901556015
1772649452303705000,0.711705078125,-3.203584444630146,-1.134039101487398,1.9825898210063573,1.2014611959457395,-0.1623948365449905,-0.1689540892839431
1772649452313676000,0.721676025390625,-2.721421105656028,-1.473803555783629,1.0819967064958065,1.1867759227752686,-0.1049104332923889,0.0065657002851367
1772649452323648000,0.73164794921875,-2.0375743338644505,-1.9166070904023944,0.2847692739136517,1.097894310951233,-0.1087206155061721,0.1098561361432075
1772649452333620000,0.741619873046875,-1.33495271897614,-2.3823557395398614,-0.6362246043950319,0.9322173595428468,-0.140261098742485,0.175423577427864
1772649452343592000,0.751592041015625,-0.8539256905555724,-3.043940995162725,-1.8355360962599516,0.6909922361373901,-0.1117325201630592,0.2150146663188934
1772649452353563100,0.761563232421875,-0.4867103347539901,-3.568564004203677,-3.0299457875579594,0.455456405878067,-0.143658310174942,0.2223704159259796
1772649452363534800,0.771534912109375,-0.1834106940239667,-3.2753999730408188,-3.6229075888097286,0.2302291542291641,-0.2557507455348968,0.2383461743593216
1772649452373507000,0.781507080078125,-0.1357253982633352,-3.501714573767781,-3.9947155330985775,-0.0133722648024559,-0.3054115772247314,0.2408403754234314
1772649452383478000,0.79147802734375,-0.256041045948863,-3.450779628561437,-3.8815643702149383,-0.1420716494321823,-0.3652927577495575,0.2537833452224731
1772649452393450000,0.801449951171875,-0.1098439380317926,-2.3996790686540304,-3.2800618273720143,-0.1548537164926529,-0.3714572489261627,0.3083355128765106
1772649452403422200,0.811422119140625,-0.1244564007520675,-1.1993902561895549,-2.394202536939084,-0.0987158715724945,-0.3155713379383087,0.3900277018547058
1772649452413394000,0.821393798828125,-0.073279755744338,-0.4376964938033372,-1.720121372358501,-0.0703559815883636,-0.2168728709220886,0.435177206993103
1772649452423365000,0.831365234375,0.3471656704634427,-0.1009183618415147,-1.3862930301129817,-0.0980358123779296,-0.1259951442480087,0.3914028406143188
1772649452433337000,0.841337158203125,1.1104004517465829,-0.0284731206925585,-1.2692131494782863,-0.175818383693695,-0.0747142136096954,0.2341074347496032
1772649452443309000,0.85130908203125,1.835660014900565,0.0038241613980382,-1.0274855833031236,-0.2644987404346466,-0.0119144786149263,0.0324582010507583
1772649452453280000,0.861280029296875,2.0753835477769376,0.2342262871669605,-0.586796995011717,-0.3347638547420501,0.0824706181883812,-0.1405117064714431
1772649452463252000,0.871251953125,1.8471885401308537,0.5711700214866549,-0.2033500508554279,-0.3878952264785766,0.1847676932811737,-0.2399006187915802
1772649452473224000,0.881223876953125,1.2971727311581371,0.8593624747820198,0.184816469168663,-0.4061715006828308,0.2368922233581543,-0.2853452265262604
1772649452483196000,0.89119580078125,0.7940496062636375,0.983017788284272,0.4275605189099907,-0.3704148232936859,0.251785397529602,-0.301695168018341
1772649452493166800,0.901166748046875,0.448998151475191,0.9023176002155988,0.7550010598145425,-0.2982766628265381,0.2081761211156845,-0.3128133416175842
1772649452503139000,0.91113916015625,0.3066179714977741,0.7445712896063923,0.9952160294696688,-0.2102653235197067,0.0913416370749473,-0.3309641182422638
1772649452513111000,0.921111083984375,0.1337193191379308,0.55713082860969,1.120949756681174,-0.1152811124920845,-0.0595159940421581,-0.3375799655914306
1772649452523082000,0.93108203125,-0.2583569216758012,0.2412510347045958,1.0631436105310916,-0.043321169912815,-0.1501870453357696,-0.2738353610038757
1772649452533054200,0.94105419921875,-0.939220878264308,-0.0375843191154301,0.556765867754817,-0.0207776594907045,-0.1540218889713287,-0.1244298592209816
1772649452543026000,0.95102587890625,-1.5349591584920883,-0.2271956213451921,-0.16791107320562,-0.0502868145704269,-0.1174265891313552,0.0475432351231575
1772649452552998100,0.960998046875,-1.6184364831238984,-0.4703391917981207,-0.7012089716114104,-0.1017468124628067,-0.1062410175800323,0.1648553013801574
1772649452562969000,0.970968994140625,-1.2387363242805003,-0.6658391136750579,-0.857743349147588,-0.1521705836057663,-0.1196724027395248,0.2243844121694564
1772649452572941000,0.980941162109375,-0.6652952160567045,-0.6837028332762419,-0.8702404271490871,-0.1899804323911667,-0.1157470270991325,0.2356635332107544
1772649452582913000,0.9909130859375,-0.0558130726367235,-0.5406511837780476,-0.7383306416511535,-0.2138612568378448,-0.1302601844072342,0.2007154077291488
1772649452592884000,1.000884033203125,0.3664502166479825,-0.4857115329749882,-0.5185897202260792,-0.2513404190540313,-0.1396388560533523,0.151573047041893
1772649452602856000,1.01085595703125,0.5037614227980375,-0.3801308053456246,-0.4732192772790789,-0.2929528355598449,-0.0965094938874244,0.115839272737503
1772649452612828000,1.020827880859375,0.5669330415040255,-0.1661088095566257,-0.4413112502343952,-0.3314205110073089,-0.0427607744932174,0.0828732550144195
1772649452622800100,1.030800048828125,0.6799480107873678,-0.0119850002935156,-0.2735242417998612,-0.3641749918460846,0.010399118065834,0.0180468559265136
1772649452632771000,1.04077099609375,0.9147995537132024,0.0406036669366061,-0.1021959074966609,-0.3806338906288147,0.0579525008797645,-0.0678069368004798
1772649452642743000,1.050742919921875,1.1501239748477936,0.1474551816867664,0.1779901302799582,-0.3673716187477112,0.0993702486157417,-0.1391974985599517
1772649452652715000,1.060715087890625,0.9715613053768872,0.2149853243958205,0.3978106928125023,-0.3342033922672272,0.1352271437644958,-0.1545827686786651
1772649452662686200,1.070686279296875,0.4510252733886241,0.2950198881626129,0.4698004087463021,-0.2852387726306915,0.1530341058969497,-0.1344604641199112
1772649452672658000,1.080657958984375,0.077642042607069,0.2816904509902,0.5136820744402706,-0.2460518032312393,0.1717751920223236,-0.1097839027643203
1772649452682630100,1.090630126953125,-0.0449567475795745,0.1488048061974346,0.4547776116594672,-0.2128637582063675,0.1981165260076522,-0.0882296040654182
1772649452692601900,1.100601806640625,-0.0110842885941267,-0.0033047406338155,0.3101500911466777,-0.191808745265007,0.2199636846780777,-0.0809073597192764
1772649452702573000,1.110572998046875,0.0896329246520996,-0.1001624289076775,0.1863864949643612,-0.1737514436244964,0.2370760887861251,-0.0842195376753807
1772649452712544500,1.12054443359375,0.1976777043074369,-0.1905441261004656,0.0712025110788643,-0.1585819721221923,0.214027389883995,-0.0989263877272605
1772649452722516500,1.1305166015625,0.1589583898127078,-0.2685319134052842,0.0416460155963897,-0.1379033327102661,0.1921364814043045,-0.0939643830060958
1772649452732487400,1.1404873046875,-0.0854272896558046,-0.2657663942147046,0.1558311977028846,-0.108339212834835,0.1754655689001083,-0.0754460766911506
1772649452742459600,1.150459716796875,-0.2921995700448751,-0.2115218130037188,0.2330443473733961,-0.0784409716725349,0.1629085093736648,-0.0415240637958049
1772649452752431400,1.160431396484375,-0.4383966779619455,-0.1834961803503334,0.1971517807371914,-0.0600551776587963,0.1588783711194992,-0.0016186117427423
1772649452762403600,1.170403564453125,-0.4909364280164242,-0.197097566331923,0.1098839777812361,-0.0509924441576004,0.1478286534547805,0.0294032208621501
1772649452772374300,1.180374267578125,-0.3796867148399352,-0.2511021282419562,-0.0088560911506414,-0.0479983128607273,0.1509023308753967,0.0550241023302078
1772649452782346500,1.190346435546875,-0.2367681902021169,-0.2676176481045782,-0.0471522117972373,-0.0363259464502334,0.1670631915330886,0.0621224902570247
1772649452792318500,1.200318359375,0.0028121348112821,-0.2006687028169632,0.0683126348562538,-0.011051801033318,0.1649265736341476,0.0409509316086769
1772649452802289400,1.210289306640625,0.2537368606597185,-0.1198414543025195,0.1797203150734305,0.0203750971704721,0.1698097437620163,0.0180291049182415
1772649452812261600,1.22026171875,0.3229623725771904,-0.0803053435321897,0.1699757506504654,0.0353369377553463,0.1812300235033035,0.001176563790068
1772649452822233300,1.2302333984375,0.3768178814053535,0.0070377166170626,0.0448377973750233,0.0462974421679973,0.1727334856986999,-0.0267336294054985
1772649452832205600,1.24020556640625,0.4438771551996469,0.0377830565579235,-0.0638927725873887,0.052410252392292,0.1534193605184555,-0.0456637665629386
1772649452842176500,1.250176513671875,0.2475222239285707,0.0178584589041769,-0.0235489986959844,0.0623726099729537,0.1465955376625061,-0.0393073335289955
1772649452852148500,1.2601484375,-0.0091483520954847,0.0244248316824436,0.0971649275921285,0.0814354121685028,0.1368716210126876,-0.0270127803087234
1772649452862120400,1.270120361328125,-0.0671650722563266,0.0416522992067039,0.1697035826455801,0.0975198373198509,0.1116120815277099,-0.0280924253165721
1772649452872091600,1.280091552734375,-0.1032557918131351,-0.049786725019291,0.1255976066764444,0.1012508273124694,0.0958635732531547,-0.0109951253980398
1772649452882063400,1.2900634765625,-0.244761527043581,-0.1025887792717665,0.0466316219892352,0.1053377091884613,0.1014647334814071,0.0138244703412055
1772649452892035600,1.30003564453125,-0.3021194910347461,-0.1199800590556114,0.0163940854400396,0.1116897165775299,0.1049416959285736,0.0331968516111373
1772649452902007600,1.310007568359375,-0.223466810080409,-0.1984943544525653,-0.0445355995580553,0.1018666476011276,0.1120970770716667,0.0514096766710281
1772649452911978500,1.319978515625,-0.2011246298909187,-0.2306245728805661,-0.1678681839119642,0.080901563167572,0.1257304400205612,0.0735014155507087
1772649452921950500,1.329950439453125,-0.2490612700641155,-0.1626647700499743,-0.2363941692579537,0.0610847100615501,0.12421216070652,0.0909368619322776
1772649452931922400,1.33992236328125,-0.1572989321678876,-0.0125596949089318,-0.2257541172999888,0.0572351105511188,0.0813278183341026,0.0870073735713958
1772649452941893600,1.3498935546875,-0.0643014995187521,0.002090177212283,-0.0649875090215355,0.0593339502811431,0.0318686552345752,0.0842169076204299
1772649452951865300,1.359865234375,-0.0933814635306596,0.0257011352285742,0.0465254582010209,0.0503360331058502,-0.003345085075125,0.0966924205422401
1772649452961837600,1.369837646484375,-0.2143763256520032,0.1124908723440021,-0.0489046084225177,0.0385350286960601,-0.0215640366077423,0.112819455564022
1772649452971808500,1.37980859375,-0.1063397293031215,0.1685259537009522,-0.1078068061809986,0.0346910618245601,-0.0530052967369556,0.1073436066508293
1772649452981780500,1.389780517578125,0.0888888282865285,0.1721748681299388,-0.1157251780901104,0.026459764689207,-0.0645298585295677,0.1001581326127052
1772649452991752400,1.39975244140625,0.1563777256697416,0.1421443619275465,-0.1915878629997372,-0.00625307764858,-0.0383427888154983,0.0953346267342567
1772649453001724400,1.409724365234375,0.1909890203237533,0.1482396465953439,-0.3611274141900241,-0.0386256650090217,0.011413050815463,0.0704135596752166
1772649453011695400,1.4196953125,0.3891869491130113,0.1950480499235913,-0.3227687497012317,-0.0798289477825164,0.0364220812916755,0.0135493651032447
1772649453021667600,1.42966748046875,0.6357903046309947,0.1417087104566395,-0.2483013916075229,-0.1011153310537338,0.0640939250588417,-0.0390672422945499
1772649453031639600,1.4396396484375,0.5860223573774099,0.1571045055743306,-0.1656823643054813,-0.1165620312094688,0.0845455005764961,-0.0561215169727802
1772649453041610500,1.449610595703125,0.2847258731633424,0.1929351859554648,-0.0936433293372392,-0.1137710362672805,0.09766636043787,-0.0452022925019264
1772649453051582500,1.45958251953125,0.0709083504378795,0.1597239308251068,0.0396031846571713,-0.0996977910399437,0.0903986096382141,-0.0347668267786502
1772649453061554400,1.469554443359375,0.0694815325051546,0.1164061460915952,0.1463353473439812,-0.077660396695137,0.0758939683437347,-0.032452005892992
1772649453071526400,1.4795263671875,0.1098164655029773,0.0542455310590565,0.1668628793269395,-0.0653327703475952,0.0624138861894607,-0.027590025216341
1772649453081497300,1.489497314453125,0.0763636932343244,-0.0182394575783982,0.0654440936826169,-0.0556716173887252,0.0665058344602584,-0.0167208649218082
1772649453091469600,1.499469482421875,0.0171510412871837,-0.0994153734000399,-0.0120422469060868,-0.0401810742914676,0.0752149000763893,-0.0093609532341361
1772649453101441300,1.509441162109375,0.0027092589586973,-0.1938625664660707,-0.0101305680658668,-0.0202534403651952,0.0675162374973297,-0.008584109134972
1772649453111412500,1.51941259765625,0.0348807592451572,-0.2521666156683117,0.043332872704789,0.0047103841789066,0.0661736279726028,-0.0141133852303028
1772649453121384400,1.529384521484375,0.0706231037557125,-0.2931889098757878,0.1462007611788809,0.0324240401387214,0.0690596997737884,-0.0228448249399662
1772649453131356400,1.5393564453125,0.1239420214891433,-0.3095620255930349,0.2310272353973239,0.0552315190434455,0.0637147948145866,-0.0376248508691787
1772649453141328600,1.54932861328125,0.1423445241421461,-0.2952354671420529,0.2635414116416126,0.0790966376662254,0.0480663254857063,-0.0479163713753223
1772649453151299600,1.559299560546875,0.0329699571877717,-0.2853865290291607,0.3368903601646423,0.1020228713750839,0.0438933447003364,-0.0440880097448825
1772649453161271600,1.569271484375,-0.1274187576889991,-0.2344586346181109,0.3777292971618473,0.1163706481456756,0.0449024178087711,-0.0398437306284904
1772649453171243500,1.579243408203125,-0.2176958254635334,-0.1855859191711991,0.3607327888492495,0.1319668143987655,0.0496102161705493,-0.0247442480176687
1772649453181214500,1.58921435546875,-0.2663835762649774,-0.1125388762041926,0.3018246728066355,0.1416623145341873,0.0496909096837043,-0.0074685895815491
1772649453191186400,1.5991865234375,-0.2249795527309179,-0.0905303849484771,0.2691798559200019,0.1526593565940857,0.0390823930501937,-0.0001801725884433
1772649453201158400,1.609158447265625,-0.1777694732666015,-0.0553593375198543,0.1378302615880966,0.1510121971368789,0.0362154990434646,0.007617297116667
1772649453211130400,1.61913037109375,-0.125037415510416,-0.0113583562951534,-0.0451200483825057,0.1395080387592315,0.0213977321982383,0.0091011952608823
1772649453221101600,1.6291015625,-0.0798585496127605,0.0239711696308106,-0.1571669032860547,0.1212115958333015,-0.0032207956537604,0.0132096540182828
1772649453231073300,1.6390732421875,-0.0702688834905624,0.0451977167285978,-0.1726889551319181,0.0994035527110099,-0.015645021572709,0.0254652183502912
1772649453241045500,1.64904541015625,-0.0826437964171171,0.0832412873862311,-0.1847363896697759,0.0803225338459014,-0.0147544601932168,0.0385930053889751
1772649453251016400,1.659016357421875,-0.0215092364966869,0.1483033229487016,-0.237536909552291,0.0618906803429126,-0.0162826888263225,0.0344131514430046
1772649453260988400,1.668988525390625,0.1443546949207782,0.1422759524179622,-0.2236284303829074,0.0454808138310909,-0.0083443373441696,0.0194339379668235
1772649453270960600,1.678960693359375,0.2582201435536146,0.1310551779625937,-0.2173174936704337,0.0243994388729333,-0.0037023669574409,0.001778099918738
1772649453280932400,1.688932373046875,0.2954284689635038,0.1297107776163145,-0.2193142204456031,0.0083850529044866,0.0023629823699593,-0.0065951445139944
1772649453290903600,1.698903564453125,0.2255775186240673,0.0998189126996323,-0.2316442713171243,-0.0052047851495444,0.0160361491143703,-0.0133311636745929
1772649453300875500,1.70887548828125,0.2675187177747488,0.0519490541523322,-0.2263453611914068,-0.0282789450138807,0.0236826166510581,-0.0352415218949317
1772649453310847500,1.718847412109375,0.3525058624476194,0.0042775311887264,-0.2078163095492869,-0.0403545163571834,0.0316598489880561,-0.0490156598389148
1772649453320818400,1.728818359375,0.2761947761833667,0.0366394394807517,-0.0799452049829065,-0.044278685003519,0.0390085764229297,-0.0542357191443443
1772649453330790400,1.738790283203125,0.1739455310642719,0.0664906801261007,0.058204936209321,-0.0438829325139522,0.0492521263659,-0.0453704111278057
1772649453340762400,1.748762451171875,0.034855040282011,0.0518907115612179,0.1094238859888166,-0.0445721559226512,0.0580168552696704,-0.0414158813655376
1772649453350734600,1.758734619140625,0.0309603709310293,-0.0065683455396443,0.0797589616958051,-0.0468282252550125,0.0641161203384399,-0.0468417331576347
1772649453360705300,1.768705322265625,0.0961322235435247,-0.1119940287377685,0.085999609651044,-0.0431482680141925,0.0623757429420948,-0.0640324428677558
1772649453370677500,1.778677490234375,0.1175268937498331,-0.1609963253811001,0.0653896600816398,-0.0478573441505432,0.0617274083197116,-0.0688849538564682
1772649453380649500,1.7886494140625,0.0701934801667928,-0.1555991425126791,0.0080649407729506,-0.0473582670092582,0.060188103467226,-0.0672409832477569
1772649453390620400,1.798620361328125,0.0266425077319145,-0.1210608400296419,0.0482236404210329,-0.042018499225378,0.0645890235900878,-0.0595917403697967
1772649453400592600,1.808592529296875,-0.0569195725739002,-0.0870809020817279,0.0833155581988394,-0.03515500202775,0.0639607831835746,-0.0449512787163257
1772649453410564400,1.818564453125,-0.1100362457334995,-0.0721218909461051,0.0790781398247927,-0.0236552059650421,0.0575380325317382,-0.0305156148970127
1772649453420535600,1.82853564453125,-0.1182715746372938,-0.0524517795100808,0.1048090126045048,-0.0148305539041757,0.0519706942141056,-0.0222816541790962
1772649453430507500,1.838507568359375,-0.1207657295405864,-0.0231145528014749,0.1275406305029988,0.0018591000698506,0.0542763173580169,-0.0124445762485265
1772649453440479500,1.8484794921875,-0.034239538732171,-0.0086969550661742,0.1676348866127431,0.0122712617740035,0.0466484911739826,-0.020152298733592
1772649453450451500,1.858451416015625,0.059799511924386,-0.0592364712141454,0.1362016374729573,0.0171934813261032,0.0436687394976615,-0.0287652425467968
1772649453460422400,1.86842236328125,0.1228986499160528,-0.0663191960167139,0.0312255246732383,0.0156813412904739,0.0339415445923805,-0.0395550355315208
1772649453470394400,1.878394287109375,0.1273825173318386,-0.0370565689142793,-0.0226296918939799,0.0151759069412946,0.0311061330139637,-0.0406312644481658
1772649453480366600,1.88836669921875,0.0567886396706104,-0.0187335612382739,-0.0871386236183345,0.0112722441554069,0.0351552031934261,-0.0333451218903064
1772649453490337300,1.898337158203125,-0.0596866991996765,0.0125777420222759,-0.1508900880388915,0.0034216744825243,0.0293203108012676,-0.0216966494917869
1772649453500309500,1.9083095703125,-0.1022708724290132,0.0221372322019189,-0.1156833117097616,0.0016016704030334,0.016798660159111,-0.0082546100020408
1772649453510281500,1.918281494140625,-0.1501782865077257,0.0485145131263881,-0.0696257632814347,0.0051219523884356,0.0126008251681923,0.0058987801894545
1772649453520253400,1.92825341796875,-0.1482844355851411,0.0554270689938217,-0.0290067526452243,0.0139503311365842,-0.0075502502731978,0.0131870526820421
1772649453530224600,1.938224609375,-0.063175125837326,-0.0297089826304465,-0.0589133767396211,0.0228119939565658,-0.0232295766472816,0.0155568197369575
1772649453540196400,1.9481962890625,-0.0088788875043392,-0.1143898378331214,-0.0684912793587893,0.0304789673537015,-0.0387321040034294,0.0091396672651171
1772649453550168600,1.95816845703125,0.0562350974410772,-0.168948015037924,-0.0442472841359674,0.0320717915892601,-0.0660091936588287,-0.0026965793222188
1772649453560139500,1.968139404296875,0.0433212553322315,-0.181998854464665,-0.0677343965768814,0.0312976092100143,-0.0776219144463539,0.0007428930839523
1772649453570111500,1.978111572265625,-0.102030633932352,-0.1848306438244879,-0.0522840947929769,0.0257996376603841,-0.0832014232873916,0.011497737839818
1772649453580083500,1.98808349609375,-0.1781961742460727,-0.1671103512819856,-0.0124029699772596,0.010829210281372,-0.077316902577877,0.0226688999682664
1772649453590055400,1.998055419921875,-0.1834030952394008,-0.09499174827151,-0.0539813271649181,-0.0022392384707927,-0.0692450851202011,0.0355027094483375
1772649453600026400,2.0080263671875,-0.1645522642970085,-0.0057812137499451,0.0259999720446765,-0.0068350555375218,-0.064106248319149,0.0466110184788703
1772649453609998600,2.01799853515625,-0.0858896464705467,0.0415806952752172,0.1608740141756832,-0.0024182030465453,-0.0584563538432121,0.0531472153961658
1772649453619970600,2.027970458984375,0.0197673612654209,0.0692368370290845,0.1668818762883543,0.0021861363202333,-0.0781118124723434,0.044231217354536
1772649453629941500,2.03794140625,0.1205243220001459,0.0639495442759245,0.1731046232607215,0.0016195247881114,-0.067008689045906,0.0417191684246063
1772649453639913500,2.04791357421875,0.1184872632145881,0.0561457386571913,0.141143989245966,-0.0042575388215482,-0.0455691777169704,0.0362008325755596
1772649453649885400,2.057885498046875,0.1919768623173236,0.1066030564144253,0.07910422411412,-0.0136408414691686,-0.0279451347887516,0.0240504313260316
1772649453659857400,2.067857421875,0.2828939815610647,0.0809431299790739,-0.0379751450639218,-0.0212215296924114,-0.0093738473951816,0.0098808174952864
1772649453669828400,2.077828369140625,0.3232575561314821,0.0124126876536756,-0.0796624425187706,-0.0206743869930505,-0.0014839286450296,-0.0102448416873812
1772649453679800600,2.087800537109375,0.3222954331010579,-0.0266463801894336,-0.060974035596475,-0.0198429469019174,0.009298943914473,-0.0148875303566455
1772649453689772300,2.097772216796875,0.1706400597780943,-0.0495106114916503,-0.0954746364176273,-0.0212250649929046,0.0203349702060222,-0.0054460354149341
1772649453699743500,2.107743408203125,0.0855892022192478,-0.0109661421071738,-0.062847282122448,-0.0201403591781854,0.0288211330771446,0.0025418503209948
1772649453709715500,2.117715576171875,0.1477712253659963,0.0313908713027834,-0.0031556144867092,-0.0195090919733047,0.0248239338397979,-0.0077935960143804
1772649453719688400,2.1276884765625,0.2193278105795383,0.0576337121926248,-0.0007176467500627,-0.0233336575329303,0.0338453911244869,-0.0137809151783585
1772649453729660200,2.13766015625,0.1826274346917867,0.0861177561379969,-0.008070639861375,-0.0309842359274625,0.0519569106400013,-0.0204415023326873
1772649453739631400,2.14763134765625,0.1385544842094183,0.1071362865082919,0.0272157775752246,-0.0279727336019277,0.0644311606884002,-0.0291100926697254
1772649453749603300,2.157603271484375,0.1396837805002927,0.1265948010202497,0.1101180787980556,-0.0104153119027614,0.0667097643017768,-0.036107812076807
1772649453759575300,2.1675751953125,0.179036716723442,0.1025333227574825,0.1739592673286795,0.0042384658008813,0.0601919405162334,-0.0485471710562706
1772649453769546200,2.177546142578125,0.1922889970064163,0.0751224610015749,0.1771790330927818,0.0199797749519348,0.0362635292112827,-0.055877186357975
1772649453779518500,2.1875185546875,0.118356914833188,0.0042352264169603,0.0796788091316819,0.0282227899879217,0.0126122636720538,-0.0546864867210388
1772649453789490400,2.197490478515625,-0.0284942730784416,-0.0610168518248945,-0.0124957628272473,0.0326407104730606,-0.0135189397260546,-0.0432261042296886
1772649453799461400,2.20746142578125,-0.1632762530118227,-0.1125342000290751,-0.026087138871476,0.0195941478013992,-0.0259729474782943,-0.0227053835988044
1772649453809433300,2.217433349609375,-0.263251123458147,-0.1301305008657276,-0.120467184985429,0.0094403717666864,-0.0260404050350189,0.003047261852771
1772649453819405300,2.2274052734375,-0.2446907998949289,-0.1424180277697742,-0.1836106005102395,0.0006258417852222,-0.0226078554987907,0.0133811254054307
1772649453829377500,2.23737744140625,-0.0875233851522207,-0.1320221598312258,-0.0861794231973588,-0.0022412652615457,-0.018453637138009,0.008183398284018
1772649453839348200,2.24734814453125,0.1013812301129102,-0.0814847625751048,0.0248044055845588,8.97995196282e-05,-0.0049631288275122,-0.0021470035426318
1772649453849320400,2.257320556640625,0.1584147844552993,0.0106189361046999,0.0709754973899573,0.0135594699531793,0.0090763717889785,-0.0042517576366662
1772649453859292200,2.267292236328125,0.1599433091968297,0.0285832665361464,0.1181262478824704,0.0196629036217927,0.0088060600683093,-0.0131770754233002
1772649453869263400,2.277263427734375,0.176364282643795,0.002563274616748,0.0963923357844352,0.0196348875761032,0.0102729760110378,-0.0192700866609811
1772649453879235300,2.2872353515625,0.1101291847139596,-0.0194566878810524,0.0560609099179506,0.0219688825309276,0.0255834907293319,-0.0118593070656061
1772649453889207300,2.297207275390625,0.0438286203324794,-0.041217414920777,0.0256581728696823,0.0164115615189075,0.0302172154188156,-0.0177152603864669
1772649453899179500,2.307179443359375,0.0898439370542764,-0.096534009277448,0.0203843241199851,0.0225245803594589,0.0185006372630596,-0.0225683376193046
1772649453909150500,2.317150390625,0.1053945574074983,-0.1527938027683645,0.1076399982467293,0.0340338572859764,0.0110641214996576,-0.0208670385181903
1772649453919122400,2.327122314453125,-0.0261082547247409,-0.2043072054497897,0.1586485201459378,0.0376179441809654,0.0174285434186458,-0.0078087616711854
1772649453929094400,2.337094482421875,-0.1305073713541031,-0.2025935333997011,0.0942136765711009,0.0336453691124916,0.026230975985527,0.0013821306638419
1772649453939065300,2.3470654296875,-0.080314476686716,-0.1865598057046532,0.0509324609883129,0.0339313931763172,0.0172140449285507,-0.0042171655222773
1772649453949037300,2.357037353515625,0.0141799165219068,-0.1364743169344961,0.0899806421112269,0.0347759276628494,0.0043608183041214,-0.0006679198704659
1772649453959009500,2.367009521484375,-0.0675818363636732,-0.0705179628808051,0.0616908786289393,0.0298211146146059,0.000758892390877,0.0238443464040756
1772649453968981200,2.376981201171875,-0.1576215882509946,-0.0023581804987043,-0.0771102007526904,0.0247032139450311,-0.0071447435766458,0.0359000191092491
1772649453978952400,2.386952392578125,-0.078874799272418,0.0265881471961736,-0.0769050335694104,0.0130918323993682,-0.0106491968035697,0.038664910942316
1772649453988924200,2.396924072265625,0.0646662411779165,0.0066625996943563,-0.1196709200412034,-0.0086031351238489,0.0002216398715972,0.0279844254255294
1772649453998896400,2.406896484375,0.1520113471537828,0.0196130474865436,-0.1511038038548082,-0.0224899221211671,0.0169002190232276,0.0141895180568099
1772649454008867300,2.416867431640625,0.230423205089569,0.0970332640364766,-0.143556457215175,-0.0359103828668594,0.0370238274335861,-0.0015399974072352
1772649454018839300,2.42683935546875,0.2708750424653292,0.0998207758631557,-0.171039215163514,-0.0459664799273014,0.0560627654194831,-0.0187815688550472
1772649454028811500,2.4368115234375,0.2574906602352857,0.115556616590172,-0.132875123398751,-0.0471935160458087,0.0660428553819656,-0.0320675671100616
1772649454038783200,2.446783203125,0.252303612986207,0.1450295985076576,-0.063286038865894,-0.0437148958444595,0.0738294050097465,-0.0438925363123416
1772649454048754400,2.45675439453125,0.2566571320205926,0.107875195242092,-0.0156491853568702,-0.038828045129776,0.0781030356884002,-0.0514225848019123
1772649454058726400,2.466726318359375,0.1720440813571214,0.063535556647554,-0.0042579497054219,-0.0385185852646827,0.0681784972548484,-0.0600909106433391
1772649454068698400,2.476698486328125,0.1291524496138096,0.0058851125158369,-0.0743967040102928,-0.0424035899341106,0.0510023683309555,-0.0684824362397193
1772649454078669300,2.48666943359375,0.0640910716384649,-0.0385641969982534,-0.0711873135097324,-0.0403116792440414,0.0297522060573101,-0.0572020858526229
1772649454088641300,2.496641357421875,-0.1122147588163614,-0.0199474670726805,0.0395396179016679,-0.0270210765302181,0.0093616554513573,-0.0414976738393306
1772649454098613200,2.50661328125,-0.2312666701763868,-0.0128024906888604,0.1315760965641587,-0.0232590939849615,-0.0150451511144638,-0.0187380369752645
1772649454108585500,2.51658544921875,-0.3055582333117723,-0.0265130361333489,0.0779729550618678,-0.0145140662789344,-0.0309605002403259,0.0087230624631047
1772649454118556200,2.52655615234375,-0.3454161964476108,-0.0360781523361802,0.070215034411475,-0.0014166405890136,-0.0488313771784305,0.0265060551464557
1772649454128528400,2.5365283203125,-0.24595687430799,-0.0452348338685929,0.0988418478284031,0.0068075521849095,-0.0481173768639564,0.033266145735979
1772649454138500400,2.546500244140625,-0.0996089597433805,-0.0379655735179781,0.1078756336335092,0.0106169376522302,-0.0433662980794906,0.0321212522685527
1772649454148471300,2.55647119140625,0.0229769709616899,0.0180915370076894,0.1405299490008503,0.0234652664512395,-0.0347000770270824,0.0263122618198394
1772649454158443500,2.566443603515625,0.1668167020976543,0.0641949704043567,0.1015999874301254,0.0270600002259016,-0.0219206325709819,0.008530868217349
1772649454168415200,2.576415283203125,0.3168547033518553,0.0297745952125638,-0.0148282243628054,0.0295715760439634,-0.015501569956541,-0.0206434931606054
1772649454178386400,2.586386474609375,0.3955512234479189,-0.0104549046494066,-0.1087046318035572,0.0200683530420064,-0.0041977828368544,-0.0397460795938968
1772649454188358400,2.5963583984375,0.350477571490407,-0.0390694431066513,-0.1574417016394436,0.0115032438188791,0.002456019166857,-0.0481246709823608
1772649454198330400,2.606330322265625,0.2138917570054531,-0.0171294139772653,-0.1434314425960183,0.0025417068973183,0.0115962540730834,-0.0373790822923183
1772649454208302300,2.61630224609375,0.0185123927682638,0.0226923818666487,-0.0915961875490844,-0.0006143599748611,0.0159489121288061,-0.0312737375497818
1772649454218273300,2.626273193359375,0.0136059160262346,0.0511626895476132,-0.0093774116110056,0.0071689942851662,0.0104082059115171,-0.0350357182323932
1772649454228245200,2.636245361328125,0.0711199473619461,0.0088129095960408,0.1006380105301737,0.0150358825922012,-0.0068061756901443,-0.0302905980497598
1772649454238217500,2.646217529296875,-0.0324970789790153,-0.0272851164843887,0.1451835469603538,0.0185677669942379,-0.0058466386981308,-0.014043984003365
1772649454248188200,2.656188232421875,-0.1218307284235954,-0.0211309777688235,0.1213370266225188,0.0218897201120853,-0.0089498721063137,-0.0070904428139328
1772649454258160400,2.666160400390625,-0.0957768342345952,-0.0361035790383815,0.15901041226089,0.0220820009708404,-0.0066859191283583,-0.0064651328139007
1772649454268132400,2.67613232421875,0.0021235680252313,-0.0427496659893542,0.0966124813411384,0.0180849432945251,-0.0052722287364304,-0.0117628071457147
1772649454278104300,2.686104248046875,0.1087327619194984,-0.0507185259766876,0.0188449126582592,0.0100453905761241,-0.0140076633542776,-0.0251558441668748
1772649454288075500,2.696075439453125,0.1081219365447759,-0.0514234593756496,-0.033365824637562,0.0085984300822019,-0.0132805062457919,-0.0198021475225687
1772649454298047200,2.706047119140625,-0.0485457119822502,-0.0481400537908077,-0.007638458989188,0.0138842742890119,-0.0270029753446578,-0.0111277010291814
1772649454308019500,2.71601953125,-0.1024813003093004,-0.0603200286671519,0.0055543461915105,0.0171991735696792,-0.0425562188029289,-0.0056465920060873
1772649454317990400,2.725990478515625,-0.1073632271319627,-0.0856096604853868,0.029862346561253,0.0200508870184421,-0.0515214838087558,0.0104436948895454
1772649454327962400,2.73596240234375,-0.1413069977879524,-0.1081179910220205,-0.0056722734827548,0.019154604524374,-0.0464932061731815,0.0204464122653007
1772649454337934300,2.745934326171875,-0.0734200409978628,-0.1142218608550727,-0.0499860469836741,0.0201535560190677,-0.0414696857333183,0.0177877787500619
1772649454347906300,2.75590625,0.0882592982113361,-0.1505124138329178,-0.0419096349686384,0.0105507131665945,-0.0343626625835895,0.0082513140514492
1772649454357877200,2.765877197265625,0.1587988153368234,-0.1459887989286333,0.000386442034319,0.0090867727994918,-0.0269897021353244,-0.0030175857245922
1772649454367849500,2.775849365234375,0.1121872862875461,-0.0358260772712528,0.1145538692884147,0.0186782926321029,-0.0225281827151775,0.0022185216657817
1772649454377821400,2.785821533203125,-0.0147907418966293,0.0412570893440395,0.3119739455729722,0.0372184216976165,-0.0165387317538261,0.0210340209305286
1772649454387792400,2.79579248046875,-0.1652121895104646,0.1102233658034354,0.3926962724082172,0.050419595092535,-0.0103941261768341,0.0395363122224807
1772649454397764400,2.805764404296875,-0.1147387243360281,0.1505938815712928,0.2756202642310411,0.0499418228864669,-0.0123076075688004,0.0336323492228984
1772649454407736300,2.815736328125,0.1212818623691797,0.0798247204083949,0.0840207838587462,0.0386604778468608,-0.0164415128529071,0.0125765698030591
1772649454417708300,2.825708251953125,0.2823538833349943,0.0382016472961753,-0.0784462716620415,0.0179733075201511,-0.0057177627459168,-0.0121647296473383
1772649454427679200,2.83567919921875,0.3303893077075481,0.0509874060459435,-0.1938813076991588,0.0020663980394601,0.0062905913218855,-0.028380736708641
1772649454437651500,2.8456513671875,0.2849263641715049,0.090097838750109,-0.262584330112487,-0.0173168871551752,0.0171991661190986,-0.0362743474543094
1772649454447623200,2.855623046875,0.2119289324998855,0.0647325113471597,-0.3166227942921221,-0.0333704277873039,0.0189198665320873,-0.0414019115269184
1772649454457594400,2.865594482421875,0.0911263780802488,0.0301972776040434,-0.2760405354697257,-0.04080331325531,0.0255079939961433,-0.031093880534172
1772649454467566300,2.87556640625,-0.0270744694083929,0.04290208007209,-0.254999939398095,-0.0439642146229743,0.0127181643620133,-0.0244162697345018
1772649454477538300,2.885538330078125,-0.0603846183359622,0.0467283603619784,-0.1655078114561736,-0.0398091524839401,-0.0046317977830767,-0.0121726524084806
1772649454487510500,2.895510498046875,-0.0716477706283331,-0.0071734718259423,-0.0562377277895808,-0.0345665998756885,-0.0243817269802093,-0.0012484323233366
1772649454497481500,2.9054814453125,-0.056181321427226,-0.0244178904850035,0.0102235070463269,-0.0322467200458049,-0.0307607986032962,0.0065668802708387
1772649454507453400,2.915453369140625,0.0195598559945821,-0.017294614476338,0.043128728434816,-0.025759907439351,-0.035040870308876,0.0029372372664511
1772649454517425400,2.92542529296875,0.1009539446115493,-0.0651088703788816,0.0990608974065631,-0.0171203464269638,-0.0233213640749454,-0.0032080069649964
1772649454527396400,2.935396240234375,0.1124228486090898,-0.0552617223642766,0.1503940481502562,-0.010062975808978,-0.0062091881409287,-0.0059523079544305
1772649454537368300,2.945368408203125,0.1243979485630989,-0.0124654407542198,0.171984313993901,0.0036688158288598,0.0032876441255211,-0.0213813316076993
1772649454547340300,2.95534033203125,0.1915127519369125,-0.019260361591354,0.2179203549344092,0.0154990954324603,0.0030914372764527,-0.0360573083162307
1772649454557311200,2.965311279296875,0.1916810942411422,-0.0285548441592603,0.2078491889055818,0.0220307633280754,0.0034291259944438,-0.0383345745503902
1772649454567283500,2.975283447265625,0.0869604905724525,-0.0258886936899274,0.1283696286730468,0.0164562556892633,-0.0021942402236163,-0.0366937965154647
1772649454577255200,2.985255126953125,-0.0829284585773944,-0.0354503027614206,0.027677915194258,0.0111365914344787,0.0005911597982048,-0.0106014739722013
1772649454587227400,2.995227294921875,-0.2093663885354995,-0.0604866174057126,0.0053797202769666,0.0109101701527833,-0.005049102474004,0.0132876485586166
1772649454597198300,3.0051982421875,-0.2163286287635564,-0.0365946504909545,0.0289565568279474,0.0060288631357252,-0.0128020970150828,0.0242651980370283
1772649454607170300,3.01517041015625,-0.1262958911389112,-0.0501791584029793,-0.0717496235676109,0.0056455759331583,-0.0155815575271844,0.0295935068279504
1772649454617142500,3.025142578125,0.0179909992426633,-0.0875532688338309,-0.0845779062848538,0.0137232095003128,-0.0186391323804855,0.0153975281864404
1772649454627113200,3.03511328125,0.2043628811597824,-0.0939760684229433,-0.0564618188690394,0.0107859056442976,-0.0134520009160041,-0.0006945515051484
1772649454637085400,3.04508544921875,0.2871241664767265,-0.1065284568082541,-0.1112242134090513,0.0044861980713903,-0.0058087287470698,-0.0140343252569437
1772649454647057400,3.055057373046875,0.23001111715734,-0.0649455695759505,-0.1558330973990261,-0.0066260169260203,0.0064851962961256,-0.0162502415478229
1772649454657029400,3.065029296875,0.1511281345784664,-0.030542656975612,-0.1107211592577397,-0.0105901323258876,0.0167032126337289,-0.0187853053212165
1772649454667000300,3.075000244140625,0.1029804820030927,0.0062820759441703,-0.0447873092968016,-0.0227635912597179,0.0269229337573051,-0.0239092037081718
1772649454676972300,3.08497216796875,0.0443815780401229,0.0355584393110126,-0.0378097984343767,-0.0289477165788412,0.0276568979024887,-0.0265119113028049
1772649454686944300,3.0949443359375,-0.0099596684783697,0.0603497662182897,-0.0151561411429196,-0.0298762116581201,0.0343282781541347,-0.0176382809877395
1772649454696915500,3.10491552734375,-0.06124678812325,0.0497366753324866,0.0266530291259288,-0.0243059433996677,0.0310371462255716,-0.0100184436887502
1772649454706887200,3.11488720703125,-0.0755956314712762,-0.005394406389445,0.0725857821308076,-0.0103268884122371,0.0191696360707283,-0.0073380372487008
1772649454716858000,3.124858154296875,-0.0312438640475273,-0.1074202910814434,0.0786119836177676,0.0060917655937373,0.003773370757699,-0.0059382799081504
1772649454726830300,3.134830322265625,-0.0022357962280511,-0.1564677420407533,0.0650444268405437,0.0206084940582513,0.0009852149523794,-0.0045092995278537
1772649454736801300,3.14480126953125,-0.0196200617492198,-0.163994484283775,0.0481247831564396,0.0355648100376129,-0.0011975120287388,-0.000634399941191
1772649454746773200,3.154773193359375,0.0057873512297868,-0.1917054980300366,0.0655892012417316,0.0392146781086921,-0.0015994168352335,-0.005560003221035
1772649454756745200,3.1647451171875,0.0163163440287113,-0.1481855783205479,0.0122663379855453,0.0400772728025913,-0.0073039075359702,-0.0027157471049576
1772649454766716200,3.174716064453125,-0.0483563268899917,-0.0876331291370093,0.0484603717863559,0.0463313236832618,-0.0033449584152549,0.011492196470499
1772649454776688400,3.1846884765625,-0.1208621756523847,-0.002714373525232,0.171524076071009,0.0581552311778068,-0.0099956709891557,0.0209685210138559
1772649454786660000,3.19466015625,-0.0798164640367031,0.0577787466865032,0.1835669805642217,0.0629525929689407,-0.0196737833321094,0.0209044627845287
1772649454796632300,3.20463232421875,0.0008405424773693,0.0446300729084759,0.1498196092631668,0.0559138506650924,-0.0182593800127506,0.0188096202909946
1772649454806603300,3.214603271484375,0.0580272415548563,0.0085234981954097,0.0520227404430508,0.0424526892602443,-0.011677156202495,0.0116430167108774
1772649454816575200,3.2245751953125,0.1461386557281017,0.0540120145641267,0.0208031340539455,0.0334836952388286,-0.0069447187706828,-0.0013886289671063
1772649454826547500,3.23454736328125,0.1863099225968122,0.1031461208935827,0.1108870173439383,0.0392778813838958,-0.0064285523258149,-0.0095029780641198
1772649454836518400,3.244518310546875,0.1411053377360105,0.160952632369846,0.1832183132570236,0.0507840700447559,-0.0187736358493566,-0.0102097811177372
1772649454846490400,3.254490478515625,0.0773591340124607,0.1445882844809442,0.1177802839890122,0.0600360631942749,-0.0382482074201107,-0.0081575633957982
1772649454856462300,3.26446240234375,0.0170440737813711,0.0801414582073688,-0.0052295712165534,0.0576573312282562,-0.0572064518928527,-0.0104313706979155
1772649454866433300,3.274433349609375,0.0408224242538213,-0.0504190315734595,-0.1706689936116337,0.0429162457585334,-0.0626513287425041,-0.0153864836320281
1772649454876405200,3.2844052734375,0.0855950474381446,-0.1278281422074884,-0.2355426669951528,0.0200788434594869,-0.0649299323558807,-0.0235858242958784
1772649454886377200,3.294377197265625,0.0874275235623121,-0.1177243890833109,-0.2813740785174071,-0.0106952972710132,-0.0750806704163551,-0.0303707532584667
1772649454896349200,3.30434912109375,0.0141530285149812,-0.1252466743469238,-0.3057602586898952,-0.0369362197816371,-0.0656118020415306,-0.0150439953431487
1772649454906320400,3.3143203125,-0.2126204218953847,-0.0326202669672667,-0.223380520036444,-0.0443117469549179,-0.0565251559019088,0.0215390641242265
1772649454916292000,3.3242919921875,-0.3516828556269407,0.0787193895149976,-0.0190226803779602,-0.040859755128622,-0.0431124120950698,0.0381726361811161
1772649454926264300,3.334264404296875,-0.1567629255950451,0.119548754966259,0.1109702386479824,-0.0267359614372253,-0.0350717306137084,0.0369517505168914
1772649454936235300,3.3442353515625,0.1239654023647308,0.1251417526677251,0.2325077562786638,-0.0048501039855182,-0.0432431064546108,0.0217261910438537
1772649454946207200,3.354207275390625,0.2793541169971227,0.0882224733322858,0.3101701840866357,0.0191210471093654,-0.0587341599166393,0.0044674458913505
1772649454956179500,3.364179443359375,0.2785328637421131,0.0275205326754599,0.304801204399392,0.0288482457399368,-0.050967052578926,0.0001616470399312
1772649454966151200,3.374151123046875,0.1708428888738155,0.0167493286184966,0.1610922600362449,0.0283100847154855,-0.0324028022587299,0.000361708633136
1772649454976122400,3.384122314453125,0.1025344918012619,-0.0175742351353168,0.0010169219575822,0.0207475051283836,-0.0133369658142328,-0.0020977205131202
1772649454986094300,3.39409423828125,0.1377478440016508,-0.038894671061635,-0.0572653172716498,0.0181998666375875,-0.0006961908657103,-0.0100306225940585
1772649454996066300,3.40406640625,0.1521878727644681,-0.052301118993014,-0.0352311801180243,0.0159215312451124,0.0034002833999693,-0.008490783162415
1772649455006037200,3.414037353515625,0.0916828429192304,-0.0738046564012765,-0.0753382226441055,0.0073593268170952,-0.0004724136088043,-0.004602366592735
1772649455016009200,3.42400927734375,-0.0023217209458351,-0.086311890470609,-0.120420057908073,0.009184923954308,-0.0033816506620496,0.002987110055983
1772649455025981200,3.433981201171875,-0.0585211625516414,-0.0520591269306838,-0.0597349222555756,0.0079317893832921,0.0030505764298141,0.011485768482089
1772649455035953400,3.443953369140625,-0.0154354695409536,-0.0157560067322105,0.0204947987571358,0.0181791018694639,0.0037597762420773,0.0077640013769268
1772649455045924000,3.453924072265625,0.1336117671102285,-0.0288341725572943,0.0636737960744649,0.0203623082488775,-0.0045372555032372,-0.0099228154867887
1772649455055896300,3.463896240234375,0.1587549761950969,-0.0448643931210041,0.05248341675736,0.0232281368225812,-0.0124519038945436,-0.0114160496741533
1772649455065868300,3.473868408203125,0.0548112021178007,-0.0481472141839563,0.0545578849438577,0.0318077728152275,-0.0270162001252174,-0.0037338947877287
1772649455075839200,3.483839111328125,-0.0455821860015392,-0.0396990462470799,0.0816493054870516,0.0397104397416114,-0.0317765995860099,0.006112078204751
1772649455085811500,3.4938115234375,-0.1165484041064977,-0.0422873091746121,0.0668587827861309,0.0345340073108673,-0.022150058299303,0.0126418322324752
1772649455095783200,3.503783203125,-0.0337409415602684,-0.0479695195294916,-0.0160511902865022,0.0268276166170835,-0.0156554076820611,0.0098761394619941
1772649455105755400,3.51375537109375,0.0592430470854043,-0.0217800162620842,-0.0716542734343558,0.012249207124114,-0.0115946196019649,0.004967400804162
1772649455115726300,3.523726318359375,0.0613309592753648,-0.0021017215196043,-0.108909725921601,0.0022618216462433,-0.0025696994271129,0.0114436754956841
1772649455125698300,3.5336982421875,0.0012497078001499,0.0398622009195387,-0.1059269837837666,-0.005708064418286,-0.0007610199972987,0.009465105831623
1772649455135670300,3.543670166015625,0.093804072856903,0.0598242079742252,-0.0657113663166761,0.0008089570328593,0.0023540793918073,0.0085058351978659
1772649455145641200,3.55364111328125,0.1246983928143978,0.0745457570921629,0.0081781188238412,0.0071213375777006,-0.0014168298803269,0.002058746991679
1772649455155613200,3.56361328125,0.1572930869489908,0.0502744354709982,-0.010522270797193,0.0104505559429526,-0.0029113958589732,-0.0091166757047176
1772649455165585200,3.573585205078125,0.1890624361753463,-0.0187527043301612,0.0130772890422493,0.0202773641794919,-0.0001087523996829,-0.0145851178094744
1772649455175556000,3.58355615234375,0.1367079795598983,-0.0542170356169343,0.0349102045353502,0.0255360417068004,-0.0040859170258045,-0.0126077206805348
1772649455185528300,3.5935283203125,0.0591506926268339,-0.0484963929478079,-0.0066314008384943,0.0197573471814394,-0.0118493568152189,-0.0124018434435129
1772649455195500300,3.603500244140625,0.0447550875276327,-0.0825450852829963,-0.1115083641126751,0.0078351749107241,-0.0079424995929002,-0.0109847756102681
1772649455205472300,3.61347216796875,0.1017038861960172,-0.1188197831045836,-0.1417356715288013,0.0042278775945305,-0.0068210298195481,-0.0217245556414127
1772649455215443500,3.623443359375,0.1817547435104846,-0.0528676668345928,-0.0145160896737128,0.0103121353313326,-0.0079986797645688,-0.0318672060966491
1772649455225415200,3.633415283203125,0.0740460639417171,0.0156253660898655,0.111286172729358,0.0184366814792156,-0.0013303700834512,-0.0185339506715536
1772649455235387400,3.643387451171875,-0.1358195062875747,0.0889064370084554,0.140966879113391,0.030807064846158,0.0005154670216143,-0.0035006736870855
1772649455245358300,3.6533583984375,-0.1826134061664343,0.0858617355503141,0.1838349107854068,0.0278581902384758,-0.018596988171339,-0.0015823488356545
1772649455255330300,3.663330322265625,-0.0848994663894176,0.0574869971983134,0.0964229501184076,0.0184266064316034,-0.0406104102730751,-0.0010044428054243
1772649455265302300,3.67330224609375,-0.0797539201945066,0.0164652509801089,0.0037619828820228,0.0037606745027005,-0.0485035479068756,0.0144751947373151
1772649455275274200,3.683274169921875,-0.1159936928331851,0.0092985011558979,-0.0330360081613063,-0.0104185286909341,-0.0447016209363937,0.0170882884413003
1772649455285245200,3.6932451171875,-0.0044324294894933,0.043501653400436,-0.0407596612159162,-0.0119017325341701,-0.048334676772356,0.0129821272566914
1772649455295217200,3.703217041015625,0.090193481144309,0.0784732327342033,0.0100433281738311,-0.0068976529873907,-0.0494103282690048,0.0109967403113842
1772649455305189400,3.713189453125,0.0824526577591896,0.075962565087527,0.0389442092917859,-0.0047319252043962,-0.0514260865747928,0.0163817014545202
1772649455315160300,3.723160400390625,0.0645902533322572,0.0243350345071405,-0.0620836042735725,-0.0108984746038913,-0.0444661825895309,0.0110868047922849
1772649455325132300,3.73313232421875,0.1259580374866724,-0.044599239378795,-0.201723618697375,-0.0246609877794981,-0.0286032706499099,0.0055849663913249
1772649455335104300,3.743104248046875,0.1929857470989227,-0.0956800227966159,-0.2137695188652724,-0.0365171171724796,-0.0056915627792477,-0.0069950078614056
1772649455345076200,3.753076171875,0.2739981429219246,-0.1005837230596691,-0.1372659787688404,-0.0458104833960533,0.0131737375631928,-0.0299045834690332
1772649455355047200,3.763047119140625,0.3299988470852374,-0.0411792018022388,-0.0730577835567295,-0.0494547523558139,0.0187762305140495,-0.0428653918206691
1772649455365019400,3.773019287109375,0.2353098080873489,-0.0072713061772286,0.060112815657258,-0.0420089215040206,0.0271900482475757,-0.0374436527490615
1772649455374991000,3.7829912109375,0.0146393507272005,0.0574059678513556,0.1265704702965915,-0.0340551286935806,0.0342362374067306,-0.0342308171093463
1772649455384962300,3.79296240234375,-0.0211971018075942,0.0404627240959554,0.1637732427485287,-0.0248443186283111,0.0337755121290683,-0.0355514772236347
1772649455394934300,3.802934326171875,0.0655477001875639,0.0159459763463586,0.1567910557109862,-0.0240000952035188,0.0180567353963851,-0.0406530275940895
1772649455404906200,3.81290625,0.0065811319559812,-0.053863107612729,0.0956933937348425,-0.0213128048926591,0.0081181786954402,-0.0298085659742355
1772649455414878500,3.82287841796875,-0.1154886659204959,-0.065837476914376,0.1070958814326673,-0.0171364359557628,0.000754804816097,-0.0172011610120534
1772649455424849200,3.83284912109375,-0.1359615451067686,-0.0632538901619613,0.0905521583888679,-0.0167167857289314,-0.005895260721445,-0.0045128553174436
1772649455434821400,3.8428212890625,-0.1261076750904321,-0.0805927091062068,-0.023251477054134,-0.0265566334128379,1.42934732139e-05,0.0133620155975222
1772649455444793300,3.85279345703125,-0.1543237157493829,-0.0883517257351428,-0.1233056963469833,-0.0281462036073207,0.0147227840498089,0.0215054005384445
1772649455454764300,3.862764404296875,-0.0253431155711412,-0.0696510438531637,-0.0681445848129689,-0.0218552835285663,0.0165156237781047,0.0045256181620061
1772649455464736300,3.872736328125,0.1994113962322473,-0.0713507604431361,-0.0242676683593541,-0.0138724651187658,0.0136700710281729,-0.0139590296894311
1772649455474708200,3.882708251953125,0.2916688241690397,-0.114909550858289,0.0335216727863997,-0.0041535249911248,0.0009145946241915,-0.0256910528987646
1772649455484679200,3.89267919921875,0.1969867994338273,-0.1014353714529424,0.1015787254463881,0.0056289406493306,-0.0126609411090612,-0.0274377577006816
1772649455494651400,3.9026513671875,0.0131155021607875,-0.0651633770450949,0.1231844811201095,0.0141723612323403,-0.0111429393291473,-0.0097098918631672
1772649455504623000,3.912623046875,-0.1735673454016447,-0.023562369634211,0.1073094511181116,0.0190558712929487,-0.0056822751648724,0.0055537214502692
1772649455514595300,3.92259521484375,-0.184493813085556,-0.0374901380259543,0.0654917322166264,0.0184878185391426,-0.0020920678507536,0.0053164334967732
1772649455524566300,3.932566162109375,-0.0307861834079027,-0.0695176267318427,-0.0093856679826974,4.23239544034e-05,0.0064984653145074,-0.0018958391156047
1772649455534538200,3.942538330078125,0.048911622685194,-0.0763723149321973,-0.0884749867886304,-0.0091005750000476,0.0169082283973693,-0.0026138271205127
1772649455544510500,3.952510498046875,0.0880932939946651,-0.0629802608523517,-0.0452050963174551,-0.0008309264667332,0.01856205239892,-0.0114579191431403
1772649455554481200,3.962481201171875,0.1710299358785152,-0.0496801228396594,0.0539621840730309,0.0045188316144049,0.0156027479097247,-0.0237974096089601
1772649455564453400,3.972453369140625,0.1754974366813897,-0.0327346140619367,0.0879866918150335,0.0150462621822953,0.0090742874890565,-0.0211092643439769
1772649455574425300,3.98242529296875,0.117817985650897,-0.0065725102581083,0.0703266780924052,0.0287136025726795,0.0018720347434282,-0.0168498046696186
1772649455584397300,3.992397216796875,0.0460796141296625,-0.0162934015445411,0.0645225218582898,0.034334909170866,0.002175161615014,-0.0139006348326802
1772649455594368300,4.0023681640625,0.0513572622716426,-0.0724002694960683,0.0089078213378787,0.0302291121333837,-0.0069887759163975,-0.0162612609565258
1772649455604340200,4.01234033203125,0.0918073460817337,-0.1421142225176095,-0.0908861395835876,0.0238410383462905,-0.0119329802691936,-0.0191686693578958
1772649455614312200,4.022312255859375,0.0118558574885129,-0.1225488135650754,-0.0746851655628532,0.015818266198039,-0.0046172770671546,-0.0040200767107307
1772649455624283400,4.032283447265625,-0.0804430715024471,-0.1043756626885384,-0.0545812658194452,0.0004636035300791,0.0059889480471611,0.0055938120931386
1772649455634255000,4.042255126953125,-0.0777040019273757,-0.0284132437314838,-0.1214997429035603,-0.0050054639577865,0.0178714394569396,0.0094114542007446
1772649455644227300,4.052227294921875,0.0377256272822618,0.0139316408492624,-0.0573203353945165,-0.0085035841912031,0.0171708427369594,-0.0089051136747002
1772649455654199300,4.06219921875,0.1809673925250768,0.0213707778740674,-0.0085555738341063,-0.0123396012932062,0.0158278085291385,-0.021129822358489
1772649455664170200,4.072170166015625,0.2229395713359117,-0.0048608109693974,-0.0205962863702327,-0.0158106163144111,0.0064962548203766,-0.0303201451897621
1772649455674142500,4.082142578125,0.1569511416435241,-0.0492431927271187,-0.0051390433888882,-0.0155759919434785,-0.0032173588406294,-0.0420721434056758
1772649455684114200,4.0921142578125,0.0790934104591608,-0.0467357399508357,0.0251833949647843,-0.0149990934878587,-0.0058321310207247,-0.0347264669835567
1772649455694085400,4.10208544921875,-0.0557131193935871,-0.0133965110592544,0.0641022506196051,-0.0165088381618261,-0.0059325322508811,-0.0165205653756856
1772649455704057300,4.112057373046875,-0.1721785213917493,0.011736322762072,0.095560488070175,-0.0137133700773119,0.0011430005542933,0.0035240179859101
1772649455714029600,4.122029541015625,-0.236135737517476,0.0513930642373859,0.127035749720782,-0.0107202436774969,-0.0056986603885889,0.0209791734814643
1772649455724001300,4.132001220703125,-0.174174663645029,0.0155010090578347,0.0832614168588072,-0.0037603974342346,-0.0041941604577004,0.0299618728458881
1772649455733972500,4.141972412109375,-0.0499526561707258,-0.0427160559806972,0.0272063521597534,-0.0041633336804807,-0.0052972417324781,0.0269711427390575
1772649455743944400,4.1519443359375,0.0584936900228261,-0.0565748507894575,-0.0309712576512247,-0.0062276078388094,-0.0111358752474188,0.021198596805334
1772649455753916400,4.16191650390625,0.1532002646774053,-0.1048768171437084,-0.089296897630766,-0.0091054197400808,-0.0156880170106887,0.009402391500771
1772649455763887400,4.171887451171875,0.1399298642158508,-0.1263806468129158,-0.121949459432438,-0.0133335459977388,-0.019134122878313,0.0105876643210649
1772649455773859600,4.181859619140625,0.0388765508830547,-0.0919211817197501,-0.0939271147146821,-0.0121356546878814,-0.019195906817913,0.0202741120010614
1772649455783831600,4.19183154296875,-0.0296697465986013,-0.0556399080269038,-0.0036045272979885,-0.0066761751659214,-0.0178824365139007,0.018524682149291
1772649455793802500,4.201802490234375,0.0313087459772825,-0.0419569081764668,0.0868026696622371,-0.0017988618928939,-0.0270676799118518,0.012820191681385
1772649455803774700,4.211774658203125,0.0676508099466562,0.0025393092192709,0.1809359014082699,0.0169281214475631,-0.0254390947520732,0.0080342106521129
1772649455813746400,4.221746337890625,0.0221639010131359,0.0541951891113072,0.2390649959024041,0.0372110232710838,-0.0238846093416214,0.0148050310090184
1772649455823718700,4.23171875,-0.0116547819584608,0.0028583120405673,0.2206894543215632,0.0448074005544185,-0.0320358760654926,0.0116764288395643
1772649455833689300,4.241689453125,0.0688724606961011,-0.0801465727739036,0.0848917214743792,0.045744564384222,-0.0357800163328647,0.009903029538691
1772649455843661600,4.25166162109375,0.0759632957398891,-0.1087348077461123,0.0511670003965497,0.0481714159250259,-0.0280046239495277,0.0109010823071002
1772649455853633300,4.26163330078125,0.0001841243952512,-0.0833020411301404,-0.0144487965911626,0.0409076437354087,-0.0076538133434951,0.0173483286052942
1772649455863604500,4.2716044921875,0.0076256725728511,-0.0445586151074618,-0.0667645286314189,0.0339662618935108,0.0040181833319365,0.0101252812892198
1772649455873576400,4.281576416015625,0.1037064581900834,-0.0072346274286508,-0.0292029328044503,0.0283826775848865,0.0104582402855157,0.0093779982998967
1772649455883548400,4.29154833984375,0.1039373443365097,0.0439400448177009,0.0389193671114742,0.0334262289106845,0.0190487168729305,0.0088343257084488
1772649455893520600,4.301520751953125,0.1019563996523618,0.0933530411537736,0.077370678319782,0.0374771617352962,0.0189539082348346,0.0049040322192013
1772649455903491600,4.31149169921875,0.176748313525319,0.0848440829403698,0.0387687065944075,0.0371772348880767,0.005125259514898,-0.0070286714471876
1772649455913463600,4.321463623046875,0.227545603826642,0.0571786619015038,0.0338815921399742,0.0389263965189456,-0.0028756752144545,-0.0149153564125299
1772649455923435500,4.331435546875,0.1517903978794813,0.0462310783643275,0.0366081675596535,0.0370095632970333,-0.0054686563089489,-0.0261497925966978
1772649455933406500,4.341406494140625,0.0848690712511539,0.0085522858984768,-0.0236078162111341,0.0244852527976036,-0.0170885603874921,-0.0293991155922412
1772649455943378400,4.35137841796875,-0.0318845000386238,-0.0162102533057332,-0.1305708650443703,0.0079265087842941,-0.0121132088825106,-0.0140110189095139
1772649455953350700,4.3613505859375,-0.1492483121812343,0.004786503624171,-0.1700434821244329,-0.00711928633973,-0.0110359601676464,-0.0054857083596289
1772649455963322400,4.371322265625,-0.0870195272833108,0.0146487761426717,-0.1582644892644137,-0.0182447452098131,-0.0095812482759356,-0.0097789177671074
1772649455973293600,4.38129345703125,0.0476110614806413,0.0008981178835034,-0.1306222299054265,-0.0245657563209533,-0.0110795423388481,-0.0136626055464148
1772649455983265300,4.391265380859375,0.1050274776607751,0.0155072196029126,-0.1055687449306249,-0.0226195193827152,-0.0337941758334636,-0.0117677664384245
1772649455993237500,4.401237548828125,0.0375000018328428,0.0541726119533181,0.0137040426384657,-0.0071635982021689,-0.0543503202497959,0.0089510940015316
1772649456003208400,4.41120849609375,-0.1552279711127281,0.0626478870928287,0.0885480520248413,0.0044678677804768,-0.0645980238914489,0.0351015776395797
1772649456013180400,4.421180419921875,-0.2323585570663213,0.0618195465099066,0.0578724893845617,0.0080823097378015,-0.0690646767616272,0.0426913201808929
1772649456023152600,4.431152587890625,-0.1120645366907119,-0.0386832202680408,-0.0194370333325117,0.0055471952073276,-0.0602391809225082,0.0481963790953159
1772649456033124400,4.441124267578125,0.0418751481771469,-0.088591964231804,-0.0941243908524513,-0.003378921886906,-0.0433054715394973,0.0456064529716968
1772649456043095600,4.451095458984375,0.0738338824957609,-0.1195514583799988,-0.1210709960974752,-0.0150562403723597,-0.032630581408739,0.0404642634093761
1772649456053067500,4.461067626953125,0.091221070626378,-0.1046604709792882,-0.0939503494597971,-0.0196163710206747,-0.0155141800642013,0.0373694039881229
1772649456063039500,4.47103955078125,0.1269867960125207,-0.019542831794545,0.0438375342912971,-0.0062584490515291,-0.0044175656512379,0.0290351789444684
1772649456073010400,4.481010498046875,0.1869534811973571,0.0235175075791776,0.1989821379695087,0.0174620617181062,-0.0029395113233476,0.0070862038992345
1772649456082982700,4.490982666015625,0.2863549356698989,0.0318654300119727,0.3028031624499708,0.0323935076594352,-0.0126346899196505,-0.0156140625476837
1772649456092954600,4.50095458984375,0.2883095768690109,0.0193538850937038,0.2724807240962982,0.0371179543435573,-0.0160485953092575,-0.0222850125283002
1772649456102925600,4.510925537109375,0.1277332304656505,-0.0250726280666887,0.1962592888768762,0.0380316339433193,-0.0119981477037072,-0.0156742129474878
1772649456112897500,4.5208974609375,-0.0251022925525903,-0.0039840281348675,0.116939449250698,0.0340949483215808,-0.0093200728297233,-0.0111108869314193
1772649456122869500,4.530869384765625,-0.0596779313713312,-0.0105848146393895,0.0587726530946791,0.031948983669281,-0.010589369572699,-0.0056056869216263
1772649456132841500,4.540841552734375,-0.0302642053604125,-0.0130042968712747,0.0815339354790747,0.039886001497507,-0.0020914888009428,0.0048075392842292
1772649456142812400,4.5508125,-0.0302244578719139,0.0410641971204429,0.0727465256504714,0.0436640158295631,-0.0048851910978555,0.0103692486882209
1772649456152784600,4.56078466796875,0.0069289224803447,0.0272127819005399,0.0143725164845585,0.0492017865180969,-0.0049648196436464,0.0091383354738354
1772649456162756400,4.57075634765625,0.1107785885334014,0.0221631703607738,-0.0906543035890907,0.0424758456647396,-0.0122834909707307,0.0002760183997452
1772649456172727600,4.5807275390625,0.17555296626091,-0.0340321795918047,-0.1774088963259011,0.033899400383234,-0.0158164408057928,-0.0082852449268102
1772649456182699500,4.590699462890625,0.1308650987505912,-0.0677419222962111,-0.1679826040718704,0.0270019378513097,-0.0179554186761379,-0.0094347298145294
1772649456192671500,4.60067138671875,0.0768780724972486,-0.0750556793756783,-0.1254801177766174,0.0269055347889661,-0.0248386263847351,-0.0056570353917777
1772649456202643700,4.610643798828125,0.0011561842978,-0.0861962282016873,-0.0787765995949506,0.0229666084051132,-0.0295190028846263,0.0014766659587621
1772649456212614700,4.62061474609375,-0.0286304666787385,-0.0485091062989085,-0.0145127286728471,0.0254428125917911,-0.0376032963395118,0.0074762348085641
1772649456222586600,4.630586669921875,-0.0409188703656196,-0.0019628975708037,0.1166942423179745,0.0338171795010566,-0.0404998324811458,0.0208531711250543
1772649456232558600,4.64055859375,-0.1215893208831548,0.0459784918427467,0.1574031231947243,0.02905491925776,-0.0319518819451332,0.0370140299201011
1772649456242529500,4.650529541015625,-0.1315840606749057,0.0474485643953084,0.0091892686277627,0.0199871659278869,-0.018986027687788,0.0402993559837341
1772649456252501500,4.66050146484375,0.0129360539406538,0.0420994584523141,-0.0684111998599022,0.0033669099211692,0.0003226879052817,0.0237052012234926
1772649456262473500,4.670473388671875,0.2103238353908061,0.0338052389681339,-0.0486751105155795,-0.0059274043887853,0.0144615164026618,0.0053347372449934
1772649456272445400,4.680445556640625,0.3186369105935097,0.0553149138562381,-0.0013764029197394,-0.0107389371842145,0.0198666676878929,-0.0159543063491582
1772649456282416600,4.690416748046875,0.3282861979484558,0.0789203189145773,0.0165822284232825,-0.0094974376261234,0.0267310794442892,-0.0260059311985969
1772649456292388400,4.700388427734375,0.2212766065597534,0.1226784312941133,0.0233119020044803,-0.0060627581551671,0.0343700908124446,-0.0262970179319381
1772649456302360600,4.710360595703125,0.1485153217315673,0.121041112415865,0.0002667611774057,-7.38748349249e-05,0.0259504504501819,-0.0318264961242675
1772649456312331500,4.72033154296875,0.1006026469558477,0.0288750160243362,-0.0465660094071179,0.0015663658268749,0.0134027013555169,-0.0240596514195203
1772649456322303500,4.730303466796875,-0.024330723658204,-0.0360765449009835,-0.1001432858157903,0.0026195240207016,0.0104060415178537,-0.007560770958662
1772649456332275700,4.740275634765625,-0.1265975044339895,-0.0449975910466164,-0.0978133815634995,-0.0003437753766775,0.0095205400139093,0.0008063484565354
1772649456342246700,4.75024658203125,-0.0770201113164424,-0.0578347877226769,-0.0534073266692459,0.0014894404448568,0.0051573105156421,-0.004828562028706
1772649456352218600,4.760218505859375,0.0215635970324277,-0.0608414952579885,-0.0014254296932369,0.0023022373206913,-0.0016249623149633,-0.0040919315069913
1772649456362190600,4.770190673828125,0.0286269595474004,-0.0393245869114994,0.0201111332017928,0.0016204160638153,-0.0136293806135654,-0.0009395118104293
1772649456372162600,4.78016259765625,-0.0189671507984399,-0.0403188586458563,-0.0278461844332516,-0.0071088932454586,-0.0133726522326469,-0.0007965000695548
1772649456382133500,4.790133544921875,0.004656885895133,-0.0554762418977916,-0.0925478622507303,-0.024558775126934,-0.0088665373623371,-0.0072895167395472
1772649456392105500,4.80010546875,0.0652542701989412,-0.0199739166881889,-0.0883613703463226,-0.0320454537868499,-0.006623622495681,-0.0136046707630157
1772649456402077400,4.810077392578125,0.0957329950928688,0.0305112389240413,-0.0277804257206618,-0.0356398038566112,-0.0106624662876129,-0.0120520265772938
1772649456412048600,4.820048583984375,0.0091512747049331,0.053209466009587,0.0776400698456913,-0.0368470139801502,-0.0208173654973506,-0.0032556056976318
1772649456422020400,4.830020263671875,-0.1438455763548612,0.0562920883253216,0.1198934767507016,-0.0302391424775123,-0.027067519724369,0.0142260529100894
1772649456431992600,4.83999267578125,-0.1867722794115543,0.0790162535697221,0.0863122557967901,-0.0285464376211166,-0.0293647609651088,0.0290438812226057
1772649456441964500,4.849964599609375,-0.1488268718987703,0.0555167200386524,0.0442453113745898,-0.0279015693813562,-0.025876447558403,0.0308713614940643
1772649456451935500,4.859935546875,-0.0464917020618915,0.0398548943959176,-0.0294396641697734,-0.0333820879459381,-0.0208593159914016,0.0259349271655082
1772649456461907700,4.86990771484375,0.1654769779264926,-0.0037843408443033,-0.1295434216927737,-0.0420944765210151,-0.0159117691218853,0.003029144834727
1772649456471879400,4.87987939453125,0.3239782716214656,-0.0530081712838262,-0.2062374428600072,-0.0556313246488571,-0.0190641526132822,-0.0171560179442167
1772649456481850600,4.8898505859375,0.3078986589580774,-0.0429258993390947,-0.2044613000329583,-0.055098257958889,-0.0200561210513114,-0.0186673756688833
1772649456491822600,4.899822509765625,0.1131020630449056,-0.0198485367428511,-0.1402194217469543,-0.0559350214898586,-0.0168600603938102,-0.0071449438109993
1772649456501794600,4.909794677734375,0.0094727617442607,0.013630319815129,-0.0437744789924472,-0.0470711775124073,-0.0206438917666673,-0.0018651764839887
1772649456511766500,4.9197666015625,-0.0139484458535909,0.0357788771286606,0.094642423377186,-0.0257584322243928,-0.0223336685448884,0.0011175638064742
1772649456521737500,4.929737548828125,-0.0013303718209266,0.0369862801570445,0.1987679106969386,-0.0079511813819408,-0.0339699536561965,0.0041684014722704
1772649456531709400,4.93970947265625,0.0289180514484643,-0.0059067398257553,0.1713914626672864,0.0002321805804967,-0.0492562316358089,0.0050549679435789
1772649456541681400,4.949681396484375,-0.021992051577568,-0.0876949423268437,0.084803604799509,-0.0025818378198891,-0.0483718700706958,0.0127422483637928
1772649456551652400,4.95965234375,-0.0780605602800846,-0.0890621390268206,0.1002286260116845,-0.0015376124065369,-0.0455148294568061,0.0215056464076042
1772649456561624600,4.96962451171875,-0.0706307025402784,-0.0645950756378471,0.1178496959634125,0.0035399887710809,-0.0435212887823581,0.0234905052930116
1772649456571596500,4.979596435546875,-0.0283446354746818,-0.0952386357046663,0.0979422686401754,0.0021202573552727,-0.052472174167633,0.0191679280251264
1772649456581567500,4.9895673828125,0.0172813896685838,-0.1367537914630025,0.0601580430384725,0.0028333300724625,-0.0558816231787204,0.0230753850191831
1772649456591539700,4.999539794921875,-0.0421790995597839,-0.1239445787724107,0.0139999568451195,-0.0067841433919966,-0.041780985891819,0.03340445458889
1772649456601511400,5.009511474609375,-0.1017313587248325,-0.0663646425936371,-0.0540791615162044,-0.0165880918502807,-0.013772739097476,0.0431716330349445
1772649456611483600,5.019483642578125,-0.0067640873074531,-0.0501147148646414,-0.0868742735937237,-0.0277778934687376,-0.0033121085725724,0.0379278697073459
1772649456621454600,5.02945458984375,0.2066559605330228,0.0009431260690093,-0.0560690932244062,-0.0231461767107248,-0.0009274675976485,0.0181731097400188
1772649456631426600,5.039426513671875,0.3556418223857879,0.0493262679006904,0.0688842972643673,-0.0123390685766935,0.0106610115617513,-0.0051825460977852
1772649456641398500,5.0493984375,0.3858838159143924,0.0508770775392651,0.1160187542092055,-0.0030511384829878,0.0083018438890576,-0.027447747066617
1772649456651369500,5.059369384765625,0.3077566201388835,0.025201661273837,0.090877956277132,-0.0011645553167909,0.006358535028994,-0.0352795682847499
1772649456661341400,5.069341552734375,0.1033446391403675,0.0001809825900942,0.0700792061373591,-0.0056565743871033,0.0054600983858108,-0.0254456400871276
1772649456671313400,5.0793134765625,-0.0873527047604322,0.0009703794021159,0.0227125478718429,-0.0151613969355821,0.0108639188110828,-0.0113085154443979
1772649456681285600,5.08928564453125,-0.1534814197063446,0.0016439678147435,-0.0037342180922627,-0.0229212492704391,0.003679129295051,-0.0043725208379328
1772649456691256600,5.099256591796875,-0.1443435890048742,-0.0194020350843667,0.0105931440763175,-0.0224850233644247,-0.0047790706157684,0.0091550052165985
1772649456701228500,5.109228515625,-0.1008078141391277,-0.0197656076997518,0.0119403939668089,-0.0157776903361082,-0.0148630365729331,0.0150089729577302
1772649456711200500,5.119200439453125,-0.00736672937572,-0.0451559234134852,-0.0111889910776168,-0.0128442188724875,-0.0206831097602844,0.018092380836606
1772649456721171200,5.129171142578125,0.0779518392086029,-0.0783504831373691,-0.0560774957265704,-0.0007378263399004,-0.0217660684138536,0.0142292268574237
1772649456731143200,5.13914306640625,0.1625309876024722,-0.1027438237030059,-0.0660056000228971,0.0044854311272501,-0.0151941869407892,0.0065065920352935
1772649456741115400,5.149115478515625,0.2227414184153079,-0.0780923436578363,-0.0748516081709414,0.0053421841003,-0.0058897016569972,-0.0007783905602991
1772649456751087000,5.159087158203125,0.203688342899084,-0.1121357022307813,-0.0904999898102134,0.0072737741284072,0.0038361623883247,-0.0069683762267231
1772649456761058300,5.169058349609375,0.1267939037889242,-0.1210628127910196,-0.0532219601649791,0.0071462020277976,0.00660668220371,-0.0105726113542914
1772649456771030300,5.1790302734375,0.0889116246402263,-0.106764457521215,-0.0300291544955223,0.0129151418805122,0.0040939897298812,-0.0162347592413425
1772649456781002200,5.189002197265625,0.062919689771533,-0.0859257406972348,0.0440543188471347,0.0131409782916307,-0.0057988543994724,-0.0087523413822054
1772649456790973200,5.19897314453125,-0.0682990447223186,-0.0245399094294756,0.1204112170144915,0.0242317114025354,-0.0165665484964847,0.0117611894384026
1772649456800945400,5.2089453125,-0.2036895119428634,0.0792671595908701,0.2135887554708868,0.0258810203522443,-0.0300664454698562,0.0277088247239589
1772649456810917000,5.218917236328125,-0.2420078444212675,0.0839155699186027,0.2256730148877948,0.0215291492640972,-0.0186159163713455,0.0512474402785301
1772649456820889300,5.228889404296875,-0.2470592825919389,0.1663559527181088,0.1700735119365155,0.0168558731675148,-0.0002464759163558,0.0652342364192009
1772649456830860000,5.238860107421875,-0.1147398933798074,0.206801944874972,0.1568129752818494,0.0155298858880996,0.0095070861279964,0.0567813590168952
1772649456840832300,5.248832275390625,0.0963508347302675,0.1738473313868045,0.0804136262122541,0.016737837344408,0.0196277108043432,0.0416834875941276
1772649456850804200,5.25880419921875,0.3141220635175705,0.1676692272737622,-0.0359944926407188,0.0161380916833877,0.0114605948328971,0.0007099556969478
1772649456860775200,5.268775146484375,0.5335451511651277,0.0026139818906784,-0.0721180915538221,0.0153885167092084,0.00164195895195,-0.0422013662755489
1772649456870747400,5.278747314453125,0.5561760851681232,-0.0721341659057885,-0.0840943605516105,0.0166439302265644,-0.0039578699506819,-0.0646946877241134
1772649456880719000,5.288718994140625,0.3095966950476169,-0.0408984851647168,-0.143769588509202,0.0165072381496429,-0.015342959202826,-0.0606353245675563
1772649456890691300,5.29869140625,0.0337286666005849,-0.081857760605961,-0.1712427018463611,0.0097207035869359,-0.0179632436484098,-0.032813549041748
1772649456900662300,5.308662353515625,-0.2092225961506366,-0.1353753427166491,-0.1709670997753739,-0.0107128322124481,-0.0020967219024896,-0.0030399253591895
1772649456910634200,5.31863427734375,-0.2364332591593265,-0.1266747343886643,-0.1728755637452006,-0.0328743271529674,0.0254185274243354,0.0081852981820702
1772649456920606200,5.328606201171875,-0.0472650245219469,-0.0225607913762331,-0.1080860615137964,-0.0351810194551944,0.0509187877178192,-0.0021364307031035
1772649456930577200,5.3385771484375,0.1739502072393894,0.0634654140207916,0.1166951921660453,-0.0230012480169534,0.0546910054981708,-0.0228121764957904
1772649456940549000,5.348549072265625,0.322707521033287,0.0924714360136538,0.2501759533077478,-0.0057269209064543,0.0478445515036582,-0.04490203037858
1772649456950521300,5.358521240234375,0.3482604799628258,0.0621462942462414,0.2335592380929738,0.0077382875606417,0.0221786051988601,-0.0590021386742591
1772649456960492000,5.368491943359375,0.1878425389915704,-0.0057467269584536,0.1777428044553846,0.0166585464030504,0.0054411692544817,-0.0548707768321037
1772649456970464300,5.37846435546875,-0.0260030407845973,-0.0165375124987214,0.1417559105992317,0.0187783762812614,0.0043106703087687,-0.0379693396389484
1772649456980436200,5.388436279296875,-0.2025502787798643,-0.050078547572717,0.081633158069849,0.0151791125535964,0.0082444250583648,-0.0126000698655843
1772649456990408200,5.398408203125,-0.2675771699637174,-0.0372513608340173,0.0012628595426678,0.007741782348603,0.0096578076481819,0.0004313168465159
1772649457000379400,5.40837939453125,-0.1937193220704793,-0.042324353249371,-0.0428152785714715,0.0031337146647274,0.0016693891957402,0.0057757487520575
1772649457010351000,5.41835107421875,-0.1015717842489481,-0.1191563946478068,-0.1073287403404712,-0.0120305251330137,0.0071612461470067,0.0103583084419369
1772649457020323300,5.4283232421875,-0.0164168817937374,-0.1391634829532355,-0.1850409986395388,-0.0238285958766937,0.0111993979662656,-0.0019641381222754
1772649457030294300,5.438294189453125,0.1288280399650335,-0.1062007592238485,-0.1760563126731663,-0.027908070012927,0.0132971825078129,-0.0166043825447559
1772649457040266200,5.448266357421875,0.2388742225706577,-0.1281157269772142,-0.0961621072251349,-0.0254611577838659,0.0002974933013319,-0.0352220125496387
1772649457050238200,5.45823828125,0.2440361353784799,-0.1019584454789757,-0.0307042772781103,-0.0176714118570089,-0.0176362320780754,-0.0389176793396472
1772649457060210200,5.468210205078125,0.0741623837977647,-0.0643512569446116,-0.0125808838274329,-0.0031747613102197,-0.0334519483149051,-0.0083730854094028
1772649457070181000,5.47818115234375,-0.2123059491187334,-0.0283903743125498,0.0450818352639675,0.0087210917845368,-0.0401194505393505,0.0159179233014583
1772649457080153300,5.4881533203125,-0.242219441345334,-0.0146206460267305,0.0445434906035661,0.0147984260693192,-0.0459376610815525,0.0247444380074739
1772649457090125300,5.498125244140625,-0.0441495228499174,-0.0537172694012522,0.0226660783816128,0.0194779373705387,-0.045640330761671,0.0184241961687803
1772649457100096300,5.50809619140625,0.0738292063206434,-0.0822910374566912,0.0126052145510911,0.0178869627416133,-0.0443969033658504,0.0166412089020013
1772649457110068200,5.518068115234375,0.0623480273634195,-0.1154396391469985,-0.0318494287252426,0.0146301724016666,-0.0474096685647964,0.0154117997735738
1772649457120040200,5.528040283203125,0.0157417590111494,-0.1463846663784235,-0.0507950252790004,0.0112487562000751,-0.0437656641006469,0.0222151111811399
1772649457130012200,5.53801220703125,0.000656418082118,-0.1636449401937425,-0.0841572697199881,0.001925244461745,-0.0318213403224945,0.0191687569022178
1772649457139983000,5.547983154296875,0.046487025886774,-0.1004431455451995,-0.1093652146041393,-0.0018274160102009,-0.0157358478754758,0.0150485802441835
1772649457149955300,5.557955322265625,0.0932172128796577,-0.0470393260072916,-0.0459101027816534,0.0013101180084049,-0.0230719037353992,0.0089116506278514
1772649457159927000,5.567927001953125,0.1270972706496715,-0.0216026869338005,0.0404397816117852,0.0082535119727253,-0.0291990414261817,-0.0001407006639055
1772649457169898200,5.577898193359375,0.1171861174881458,0.0186254977539181,0.0825518072847276,0.0048138573765754,-0.0296400506049394,0.003679524641484
1772649457179870200,5.5878701171875,0.0164274031877517,0.0518763907749205,0.0439746046744287,0.0053454246371984,-0.0173647422343492,0.0100380880758166
1772649457189842200,5.59784228515625,-0.0417483069270849,0.0913183935210108,0.1466667712554335,0.0121375117450952,-0.0198814496397972,0.0138036608695983
1772649457199813000,5.607813232421875,-0.0435375284314155,0.0676936992403119,0.2076881531249731,0.0176198948174715,-0.0282259322702884,0.0167062394320964
1772649457209785300,5.617785400390625,-0.0013122516423463,-0.0178197343289852,0.2124029066871851,0.029620898887515,-0.0415215007960796,0.0159309934824705
1772649457219757300,5.62775732421875,0.035910686814785,-0.0576766745515167,0.1669809527486562,0.0319271981716156,-0.0578935481607914,0.0085582993924617
1772649457229729300,5.637729248046875,0.0329261180460453,-0.1146173629786819,0.0427841527808457,0.0216367803514003,-0.0553930848836898,0.0169226266443729
1772649457239700200,5.6477001953125,-0.0326911402463913,-0.1238989129997789,-0.0699149554863572,0.0049403579905629,-0.0393368862569332,0.0293990038335323
1772649457249672200,5.657672119140625,-0.0421773459941148,-0.0911269626021385,-0.154126878003031,-0.0093734450638294,-0.0111972671002149,0.030513159930706
1772649457259644200,5.66764404296875,0.0918546923547983,-0.0176417474135756,-0.0907398629806935,-0.0171370916068553,0.0152465905994176,0.0217984989285469
1772649457269615000,5.677614990234375,0.2283767939537763,0.0318443141587078,-0.0211241827018558,-0.019442057237029,0.0261711440980434,-0.0012639430351555
1772649457279587300,5.68758740234375,0.3673603172302246,0.0556141159985214,0.0346169937424361,-0.0129671590402722,0.0301390010863542,-0.0235264208167791
1772649457289559000,5.69755908203125,0.3843073603779077,0.0638722412560135,0.0841549316324293,-0.0089420573785901,0.0365241952240467,-0.0325425527989864
1772649457299531300,5.70753125,0.2543178754180669,0.0253147662594914,0.0478912666615098,-0.0069552287459373,0.0334963202476501,-0.031552281230688
1772649457309502200,5.717502197265625,0.0642915626466274,-0.002069061359018,0.0522857752934098,-0.001315985340625,0.0250650197267532,-0.0187829565256834
1772649457319474200,5.72747412109375,-0.1191664776504039,-0.0297193578939884,0.1942877696081995,0.0159391090273857,0.0128774084150791,-0.0001891771680675
1772649457329446400,5.7374462890625,-0.1940139211028814,0.0063338791966438,0.2462382485326379,0.0273587442934513,-0.0069322488270699,0.0214013364166021
1772649457339417300,5.747417236328125,-0.1983218474298715,-0.0401896062429994,0.1483553088642656,0.0286229085177183,-0.0202507376670837,0.0324245542287826
1772649457349389300,5.757389404296875,-0.1653665032893419,-0.0977499609384685,0.0274555046152323,0.0265608225017786,-0.0201047956943511,0.0374619252979755
1772649457359361300,5.767361328125,-0.0402238738387823,-0.1303206166103482,-0.073987100296095,0.0187777206301689,-0.0128984823822975,0.0297264140099287
1772649457369333200,5.777333251953125,0.0844488000124692,-0.1296122491452843,-0.1266179627001285,0.011890253983438,0.0127181988209486,0.0190197080373764
1772649457379304200,5.78730419921875,0.1661982779383659,-0.0797667796760797,-0.1590885189983993,0.0030314750038087,0.0323981381952762,-0.0030449857003986
1772649457389276200,5.797276123046875,0.2824380544871092,-0.0229561473693698,-0.0803594848722219,0.0005201143212616,0.0323685742914676,-0.0267886649817228
1772649457399248100,5.807248046875,0.3293815919697284,0.0191699798941612,-0.0109875502213835,0.0049003199674189,0.0236487612128257,-0.0346354767680168
1772649457409219300,5.81721923828125,0.1867331164449453,0.0463452062632888,0.052260202460736,0.0122349318116903,0.0082500986754894,-0.0270944684743881
1772649457419191000,5.82719091796875,-0.05246259316504,0.0927652313284575,0.0892317965053021,0.0222299303859472,-0.0039401282556355,-0.0048936656676232
1772649457429163300,5.837163330078125,-0.129362292972207,0.0943435865610837,0.0812926010038703,0.0321818962693214,-0.0235716216266155,0.0127551024779677
1772649457439134200,5.84713427734375,-0.1332978788554668,-0.0198185069307684,0.0427720970168709,0.0346280634403228,-0.0330980606377124,0.0219616144895553
1772649457449106200,5.857106201171875,-0.108172205427289,-0.1183842412315308,-0.0273322435617446,0.0283706989139318,-0.0301664508879184,0.0318275615572929
1772649457459078400,5.867078369140625,-0.027059271839261,-0.1671433767687529,-0.1312313017144799,0.0128029249608516,-0.007680051960051,0.032359130680561
1772649457469050000,5.877050048828125,0.0705962157487869,-0.1951500855259597,-0.2047784762233495,-0.0027398150414228,0.016091588884592,0.0231403298676013
1772649457479021300,5.887021240234375,0.1925268974155187,-0.1678282172277569,-0.1752168661743402,-0.019680930301547,0.0384415909647941,0.0033921557478606
1772649457488993300,5.8969931640625,0.3144751147389412,-0.1172687542703002,-0.1265545420750975,-0.0220330338925123,0.0446715205907821,-0.0148092182353138
1772649457498965200,5.90696533203125,0.3224327957451343,-0.0024349720619618,0.0098822193279862,-0.0185634680092334,0.037448763847351,-0.0267210062593221
1772649457508936200,5.916936279296875,0.1751139903217554,0.1195321691576391,0.1707707734856754,-0.0008502504788339,0.0307900607585906,-0.0153458453714847
1772649457518908200,5.926908203125,-0.059115036791563,0.1896925507724285,0.3062406626179814,0.016804251819849,0.0197088439017534,0.0010198755189776
1772649457528880000,5.936880126953125,-0.1908668552488088,0.2220237716652452,0.3709491355024278,0.0290201734751462,0.0081885419785976,0.0171056352555751
1772649457538852000,5.94685205078125,-0.1835427959710359,0.2261895130425691,0.3038599049612879,0.0378358326852321,0.0076712411828339,0.0271607246249914
1772649457548823000,5.956822998046875,-0.0871364316612482,0.1496542626336217,0.1806370645921677,0.0279754810035228,-0.0090539427474141,0.0233923513442277
1772649457558795300,5.966795166015625,0.0166191263675689,0.038724867452681,-0.0329223186537623,0.0115579944103956,-0.0016821399331092,0.0199208483099937
1772649457568767200,5.976767333984375,0.0649129094153642,-0.0254615543190389,-0.1840048605248332,-0.0026742042973637,0.0025075450539588,0.0092021580785512
1772649457578738200,5.98673828125,0.1320341425299644,-0.0590195405278354,-0.2672429695732891,-0.0183317195624113,0.0091241346672177,0.0001108389114961
1772649457588710400,5.99671044921875,0.150147891369462,-0.0512293250430375,-0.3047347880996763,-0.0296690631657838,0.0219083726406097,-0.0033171819522976
1772649457598682000,6.00668212890625,0.145923551672697,-0.0371487041771411,-0.2328018438544124,-0.0325664281845092,0.0256188176572322,-0.0049522048793733
1772649457608654300,6.016654296875,0.1295534316301345,-0.0231809691011905,-0.1287104049347341,-0.0190476886928081,0.0178839322179555,-0.0056829759851098
1772649457618625300,6.026625244140625,0.1056149221599102,-0.0200125681981444,-0.0078411419544368,-0.0107775535434484,0.013550448231399,-0.0049810172058641
1772649457628597200,6.03659716796875,0.0544680877685546,-0.0200797882154583,0.0634079116798937,-0.0101831359788775,0.0188855603337287,-0.0020526051521301
1772649457638569200,6.0465693359375,0.0304243643581867,-0.0049633945610374,0.0760327807795256,-0.0058244573883712,0.0218996182084083,-0.0066508413292467
1772649457648540200,6.0565400390625,0.063673138487339,-0.0004600187271833,0.1165091680746525,-0.0088479444384574,0.0240048468112945,-0.0139138139784336
1772649457658512100,6.06651220703125,0.1019347723424434,0.0012500000610947,0.1895811993524432,-0.0043585496023297,0.0260812193155288,-0.0204010810703039
1772649457668484000,6.076484130859375,0.0610702625125646,0.0455505487542599,0.1776305031873285,0.0043190945871174,0.0306125879287719,-0.0163040738552808
1772649457678456300,6.086456298828125,-0.0173082776755094,0.0328545871797949,0.1387599436536431,0.0062023904174566,0.0270586274564266,-0.0170932691544294
1772649457688427300,6.09642724609375,-0.0132820908993482,-0.0318089505843818,0.0174550657350569,-0.0027162693440914,0.0209698416292667,-0.015730794519186
1772649457698399200,6.106399169921875,0.0098719901949167,0.0062413786076009,-0.0351614758826792,-0.0025887754745781,0.0165763068944215,-0.0091745965182781
1772649457708371200,6.11637109375,-0.0415922395825386,0.0080227090664207,-0.0837986655406653,-0.003265484701842,0.0123232398182153,0.0028365261387079
1772649457718344000,6.126343994140625,-0.0600111088484525,-0.0363020972851663,-0.1034518989071249,-0.0088926916942,0.0017360616475343,0.0058506554923951
1772649457728316200,6.136316162109375,0.0033072248518466,-0.0672905252669006,-0.1290831837698817,-0.0133012887090444,-0.0026126143056899,0.0041787233203649
1772649457738287900,6.146287841796875,0.0286976866960525,-0.0322526026986539,-0.132081488803029,-0.0102791339159011,0.0059419921599328,0.0134659651666879
1772649457748260000,6.156260009765625,0.0350426718086004,0.0102326402008533,-0.0856610984116792,-0.0109582394361495,0.0076749105937778,0.008406757377088
1772649457758231000,6.16623095703125,0.1448030232101678,-0.0472459544952958,-0.0892834536273032,-0.0143353873863816,0.0045097097754478,-0.0139827895909547
1772649457768203000,6.176203125,0.2339922957479953,-0.0899490779291838,-0.0545223752390593,-0.0091238478198647,-0.0002405708655714,-0.0292554851621389
1772649457778175000,6.186175048828125,0.1858300301253795,-0.1015060986015945,0.0202582865875214,-0.007015592418611,-0.0091797960922122,-0.0281870122998952
1772649457788146000,6.19614599609375,0.0280810161024332,-0.0845356745783239,0.0469686719238758,-0.0071492828428745,-0.0146374125033617,-0.0214614644646644
1772649457798118000,6.206117919921875,-0.0617939006119966,-0.0196200617492198,0.0512666613787412,-0.0063344398513436,-0.0044849179685115,-0.0105522787198424
1772649457808089900,6.21608984375,-0.0986532664537429,0.0266819629594683,0.0977641355942934,-0.004841205663979,0.002430245745927,0.0014639046275988
1772649457818060800,6.226060791015625,-0.1306751291364431,0.0477487163856625,0.0710720165669918,-0.0026187454350292,0.0143465129658579,0.0157149769365787
1772649457828033000,6.236032958984375,-0.1174438916414976,0.0810868492987006,0.1249464492913335,0.0118443500250577,0.0227218903601169,0.0176345836371183
1772649457838005000,6.2460048828125,0.0443190341979265,0.0628409985121339,0.1738526651490479,0.0234081000089645,0.0188560634851455,-2.3370492272e-05
1772649457847977000,6.25597705078125,0.2086614551365375,0.0146907155882567,0.139133526206389,0.0339174680411815,0.0036182566545903,-0.0162361618131399
1772649457857948200,6.2659482421875,0.2132172187447547,-0.0666587301693856,0.0424392118006944,0.0290230065584182,-0.0139481276273727,-0.0237256977707147
1772649457867920000,6.275919921875,0.0816249747633934,-0.1377495975673198,-0.0902064136911183,0.0229501985013484,-0.0228180512785911,-0.0166499447077512
1772649457877892000,6.28589208984375,-0.0152384856641292,-0.1017643842115998,-0.1467242005310952,0.0155452201142907,-0.0277560036629438,-0.0072177061811089
1772649457887863000,6.295863037109375,-0.0726215840965509,-0.0329594357937574,-0.1612895361740142,0.0145774288102984,-0.0384286232292652,0.0097732618451118
1772649457897835000,6.3058349609375,-0.1711456712126731,-0.0019345482591539,-0.1025679556794464,0.0094099082052707,-0.0307471826672554,0.0317996218800544
1772649457907807000,6.315806884765625,-0.1579442443341016,-0.0025553105060011,-0.0771808548361063,0.0090160258114337,-0.0160491950809955,0.0380529873073101
1772649457917779000,6.325779052734375,0.0650432577967643,0.0075661244053393,-0.0429512529760599,0.0024813059717416,0.0017014998011291,0.0185299534350633
1772649457927750000,6.33575,0.3210369574725628,-0.0208240307115018,-0.0245964619223028,0.0052222311496734,0.0125901009887456,-0.0149949854239821
1772649457937721900,6.345721923828125,0.4893249011665582,-0.0701356855649501,0.0674113751675933,0.0094861136749386,0.0138541283085942,-0.0416089445352554
1772649457947694000,6.355694091796875,0.3595966974914074,-0.0756849902551621,0.1089637211311608,0.0139437122270464,0.0163329988718032,-0.0405977442860603
1772649457957665000,6.3656650390625,0.0894318491220474,-0.0547791995443403,0.0633163609389215,0.0113716833293437,0.0200933367013931,-0.0282156802713871
1772649457967637000,6.375636962890625,-0.0570399840831756,-0.0614758476387709,0.0248667302310466,0.0028921789489686,0.0220017582178115,-0.0241410434246063
1772649457977609000,6.38560888671875,-0.0919891323894262,-0.0384879168916493,0.0403647436141967,0.0103118158876895,0.0178310982882976,-0.0116146281361579
1772649457987581000,6.395580810546875,-0.1423556300580501,0.0488667606301605,0.0763675656918436,0.0147672835737466,0.0174625180661678,0.0120606077834963
1772649457997551900,6.4055517578125,-0.2208919911563396,0.0695445878040045,0.1023617655828595,0.0114579703658819,0.0110854599624872,0.0257487520575523
1772649458007524000,6.415524169921875,-0.1248106210172176,0.0159132431205362,0.0211493171431124,0.0029281317256391,0.0122298197820782,0.0268539637327194
1772649458017495800,6.425495849609375,0.0350555312901735,0.0398689959865063,-0.0479950923621654,0.0015525054186582,0.0154547346755862,0.0193210188299417
1772649458027467000,6.435467041015625,0.1921703390628099,0.014343217324838,-0.0568936344150453,-0.0014171854127198,0.0189096555113792,-0.007772384211421
1772649458037439000,6.44543896484375,0.3341208954513073,-0.0369574193887412,-0.0510235733378678,-0.0033324272371828,0.0201069191098213,-0.0282979719340801
1772649458047411000,6.455410888671875,0.3298842807948589,-0.0679164020802825,-0.0714106739368289,-0.0029183058068156,0.0209338292479515,-0.0418497323989868
1772649458057382000,6.4653818359375,0.1680570575475692,-0.0496823878619819,-0.0660779346067458,0.0001962739042937,0.0207127183675766,-0.0403321683406829
1772649458067353900,6.475353759765625,0.0021866963893175,-0.0366983300611376,-0.077276058838889,-0.0012114730197936,0.0130100594833493,-0.0236722342669963
1772649458077326000,6.485326171875,-0.1392407129079103,-0.0402484237581491,-0.0835634685453027,-0.0054827155545353,0.0006986455991864,-0.0021875051315873
1772649458087297800,6.4952978515625,-0.2330295881956815,-0.0592041763797402,-0.0679273618657141,-0.00843988917768,-0.0075347828678786,0.0167001653462648
1772649458097269000,6.50526904296875,-0.1890092446833849,-0.0639637189317494,-0.039677930393815,-0.0138767911121249,-0.0117731234058737,0.0224631018936634
1772649458107241000,6.515240966796875,-0.0701712683349847,-0.0671039166536182,-0.0008667728971689,-0.0107164178043603,-0.010162710212171,0.0205296482890844
1772649458117213000,6.525212890625,0.0495943442523479,-0.0271234961818903,0.0671617843206971,-0.0094732027500867,-0.0009586052037775,0.0108540803194046
1772649458127184000,6.535183837890625,0.1645779832601547,0.021581717211008,0.1030943907063454,-0.0023180874995887,0.0090993549674749,-0.0050002499483525
1772649458137156000,6.545156005859375,0.2780389427453279,0.045405368129909,0.1094414216455072,0.0060067009180784,0.0150855416432023,-0.0204523485153913
1772649458147127800,6.5551279296875,0.3012193273246288,0.0271019419372081,0.0764051942884922,0.0113782957196235,0.0186581723392009,-0.0268559195101261
1772649458157100000,6.56510009765625,0.1718009202510118,-0.0021317513316869,0.0386357278645038,0.0203722584992647,0.0203270204365253,-0.0230420641601085
1772649458167071000,6.575071044921875,0.0329752178847789,-0.0263787422291934,0.0291269449587911,0.0216114278882741,0.013131427578628,-0.0111694261431694
1772649458177043000,6.58504296875,-0.0640928252041339,-0.0570364038866013,0.0060422027736902,0.0178587678819894,0.0074551654979586,0.0029149670153856
1772649458187015200,6.59501513671875,-0.1299415541648864,-0.0677772858705371,-0.0146991180904209,0.0198904927819967,0.0016947481781244,0.0141926556825637
1772649458196985900,6.60498583984375,-0.1316635556519031,-0.0402105759657919,0.0232339413974434,0.0204597152769565,-0.0100874360650777,0.0157012641429901
1772649458206958000,6.6149580078125,-0.0638508331418037,-0.0426406526569277,0.0385131974633783,0.0142076779156923,-0.0093864910304546,0.0220752730965614
1772649458216929800,6.6249296875,-0.0382651409864425,-0.0103788437385112,0.0296346752852201,0.0107771791517734,0.0043135657906532,0.0242300294339656
1772649458226902000,6.634902099609375,0.0463736286401748,0.0386648808937519,0.0426498588766902,0.0137031953781843,0.0138048054650425,0.012919052504003
1772649458236873000,6.644873046875,0.2304933477163314,0.0766208828657865,0.0152215345293283,0.012283181771636,0.0200372375547885,-0.0080730551853775
1772649458246845000,6.654844970703125,0.308884162864089,0.0646999973170459,-0.0012477350387722,0.0203541573137044,0.0232231765985488,-0.0224176384508609
1772649458256817000,6.66481689453125,0.2346884613186121,0.0290358326092362,-0.0031724194910377,0.0236258562654256,0.0146509585902094,-0.0244683604687452
1772649458266788000,6.6747880859375,0.070894321912527,-0.0180433139517903,0.0252011498171836,0.0340944752097129,-0.003744825720787,-0.0130463289096951
1772649458276759800,6.684759765625,-0.1011462523132562,-0.0549224074073135,0.0298616159088909,0.0354208275675773,-0.0147725027054548,0.0058930218219757
1772649458286732000,6.69473193359375,-0.2198340065360069,-0.1009156584277749,0.0245001619409769,0.0388909243047237,-0.0177302099764347,0.0343350507318973
1772649458296704000,6.7047041015625,-0.2805471261739731,-0.1222843174099922,0.0531943415056914,0.0431952364742755,-0.0099568348377943,0.0502326302230358
1772649458306675000,6.714675048828125,-0.1574883172601461,-0.1378212014988064,0.1096364327609539,0.0424492843449115,0.005622124299407,0.0421821624040603
1772649458316647200,6.724647216796875,0.0838560948163271,-0.0661125675287097,0.1526569515809416,0.0462365560233593,0.0288468208163976,0.0266608987003564
1772649458326619000,6.734618896484375,0.2217500692903995,0.0523949347563087,0.1918327776715159,0.043709747493267,0.0504908636212348,0.0035707594361156
1772649458336590000,6.744590087890625,0.2504512631177902,0.1034163161370903,0.1287721450593322,0.0522456280887126,0.0623696185648441,-0.0103444438427686
1772649458346561800,6.754561767578125,0.2808358799874782,0.1629649220403283,0.0780910284835845,0.0496165566146373,0.0745767503976821,-0.0193935986608266
1772649458356534000,6.764533935546875,0.2378220831692218,0.151078084891662,-0.0394826270174235,0.0390068180859088,0.0839255675673484,-0.0297541376203298
1772649458366505000,6.7745048828125,0.2223871981501579,0.1030354270607233,-0.128283046368137,0.0383370332419872,0.0755778923630714,-0.0419271811842918
1772649458376477000,6.784476806640625,0.1377975283622741,0.0524673424053937,-0.0414196594946086,0.0439582206308841,0.0613008961081504,-0.0356208533048629
1772649458386449000,6.794448974609375,-0.0263256968677043,0.0335799057796597,0.0257577607866376,0.0470056757330894,0.0473355501890182,-0.020806485787034
1772649458396420900,6.8044208984375,-0.1342927351117134,0.0107760263625532,-0.0265703923437744,0.0504603385925293,0.0207595340907573,-0.016328552737832
1772649458406391800,6.814391845703125,-0.14461246907413,-0.0241787479668855,-0.0891793356657028,0.0482874661684036,-0.0012019590940326,-0.0037885257042944
1772649458416364000,6.824364013671875,-0.1793646335035562,-0.0821470989413559,-0.1063578494817018,0.0481807738542556,-0.012266919016838,0.0100918840616941
1772649458426336000,6.8343359375,-0.1421943020164966,-0.0751384622883051,-0.1472838802404701,0.0432027913630008,-0.0210034195333719,0.014454941265285
1772649458436307000,6.844306884765625,-0.0446954662948846,-0.0792800921376794,-0.1987350313406437,0.0337360128760337,-0.0210907943546772,0.0190527513623237
1772649458446279200,6.854279052734375,0.0541401709884405,-0.0747678754102438,-0.183499176025018,0.0212351363152265,-0.017397254705429,0.0095660388469696
1772649458456251000,6.8642509765625,0.199861478087306,-0.0328601401377469,-0.1306100280109793,0.0114497076719999,-0.0151362568140029,-0.0137538304552435
1772649458466223000,6.87422314453125,0.2532984692424536,-8.8408935815e-05,-0.1119831420175731,-0.0062944013625383,-0.0137665923684835,-0.022717498242855
1772649458476193800,6.88419384765625,0.1544265916019678,0.0384883552830666,-0.1074327852368354,-0.0209989696741104,-0.0007969131693243,-0.0230875257402658
1772649458486166000,6.894166015625,0.0348410117566585,0.0536031415022909,-0.0461580131281167,-0.0276901610195636,-0.0037916379515081,-0.018091170117259
1772649458496138000,6.904137939453125,-0.0555476996988058,0.0827438227254897,0.0729131874542683,-0.0291127283126115,-0.0111515754833817,-0.0053627560846507
1772649458506109000,6.91410888671875,-0.1450081903934478,0.0825689776152372,0.131948071681708,-0.0257211923599243,-0.0191599670797586,0.0135480845347046
1772649458516081000,6.924080810546875,-0.1679617804795503,0.0480132125407457,0.1337482529714703,-0.0183538198471069,-0.0256751589477062,0.0293732993304729
1772649458526052900,6.934052978515625,-0.1087672487109899,0.0330072935234755,0.0984554788593202,-0.011731868609786,-0.0304304994642734,0.0333057269454002
1772649458536025000,6.944025146484375,0.0027624504506587,-0.0533430292613804,-0.0124189712639898,-0.0143224485218524,-0.0294049866497516,0.0253775585442781
1772649458545996000,6.95399609375,0.0884130274683237,-0.1023217258334159,-0.1200427490282803,-0.0196037627756595,-0.0155296511948108,0.0105892894789576
1772649458555968000,6.963968017578125,0.2376701074779033,-0.083058953089267,-0.1451429957542568,-0.0241532865911722,0.0022925012744963,-0.0102734304964542
1772649458565940000,6.97393994140625,0.3730558985233306,-0.101039796264097,-0.1790849397793412,-0.0307320933789014,0.024826306849718,-0.0302213057875633
1772649458575911200,6.9839111328125,0.3934773397833108,-0.0870268338069319,-0.1463048791404813,-0.03920279443264,0.0463562980294227,-0.0445309095084667
1772649458585883000,6.9938828125,0.2909738276422023,-0.0307661635331809,-0.0593880815792828,-0.0350509285926818,0.0496319867670536,-0.050430342555046
1772649458595855000,7.003855224609375,0.1651198350518941,0.0153965257700532,0.0566815260343253,-0.0180717445909976,0.0456024706363678,-0.0419317223131656
1772649458605827000,7.0138271484375,0.0200987851768732,0.018264336291328,0.210378561252728,0.0034633753821253,0.0324432589113712,-0.0355478562414646
1772649458615798000,7.023798095703125,-0.18211773160398,-0.0412749172616749,0.319301073590666,0.026291511952877,0.0240678377449512,-0.0124082202091813
1772649458625770000,7.03377001953125,-0.2963707182496786,-0.1036251365821808,0.3482146680597215,0.0459581576287746,0.0228965803980827,0.0102672642096877
1772649458635742000,7.043741943359375,-0.2972603605657816,-0.1349896313346922,0.3459337905809283,0.0654989555478096,0.0145029006525874,0.017899552360177
1772649458645713200,7.053713134765625,-0.1509972016751766,-0.1631290265608578,0.3099902244098484,0.0833559855818748,0.0045258998870849,0.0138190574944019
1772649458655684900,7.063684814453125,-0.0365787953346967,-0.151644048211351,0.214248023097217,0.0905627533793449,-0.0013649447355419,0.015343889594078
1772649458665657000,7.073656982421875,-0.0300537774801254,-0.1033540645558387,0.0754641140460967,0.0889890938997268,-0.0101632298901677,0.0247770734131336
1772649458675628000,7.0836279296875,-0.046947629135847,-0.0652422875002026,-0.0841623112212866,0.0783649832010269,-0.0018102379981428,0.0385107770562171
1772649458685600000,7.09360009765625,-0.0100847561627626,2.48421803116e-05,-0.185868681635335,0.0579651705920696,0.0046726949512958,0.0392127893865108
1772649458695572000,7.103572021484375,0.1684580395638942,0.0503882711090147,-0.2400186433654278,0.0448180064558982,0.004991129040718,0.0270364265888929
1772649458705544000,7.1135439453125,0.3035480625331401,0.1072155622895807,-0.1953488960336893,0.0441386327147483,0.0141385542228817,0.0164383761584758
1772649458715515000,7.123514892578125,0.3038280485183,0.109849637120217,-0.1084708230476826,0.0373650453984737,0.0288038738071918,-0.0026217945851385
1772649458725485600,7.133485595703125,0.2973392710208892,0.1223870471321046,-0.0879867648802697,0.0334834866225719,0.0372873768210411,-0.0253542717546224
1772649458735457500,7.14345751953125,0.3109130383431911,0.1043777085151523,-0.0555762682061642,0.0296040028333663,0.039115447551012,-0.0440386235713958
1772649458745428500,7.153428466796875,0.2117407164514064,0.1138938710097223,-0.0045232495781034,0.0276140868663787,0.0441986247897148,-0.0473286919295787
1772649458755400700,7.163400634765625,0.0650146162241697,0.1339955787960439,0.0605332330264151,0.0233233645558357,0.0401171557605266,-0.0437820851802825
1772649458765372700,7.17337255859375,-0.0722048199892044,0.0666447016440331,0.0558380609475076,0.017660953104496,0.0256117172539234,-0.0391929261386394
1772649458775344600,7.1833447265625,-0.1109504379689693,0.0205425103563815,0.0449652962122112,0.0107658207416534,0.0044706668704748,-0.0271401144564151
1772649458785315800,7.19331591796875,-0.1673269897073507,-0.0100216277986764,0.015604031040892,0.0074483221396803,-0.0058376304805278,0.0027064634487032
1772649458795287600,7.20328759765625,-0.2840285385489464,-0.0405851814318448,0.0073269088219851,0.0018366579897701,-0.0213301442563533,0.0281777139753103
1772649458805259800,7.213259765625,-0.2574216866523027,-0.0843649941865354,-0.0547664131280034,-0.0063357846811413,-0.0327487140893936,0.0347895435988903
1772649458815230700,7.223230712890625,-0.0792237588405609,-0.1299256259433925,-0.0665678370155394,-0.0049284072592854,-0.0253559499979019,0.0351667180657386
1772649458825202700,7.23320263671875,0.0892389568984508,-0.1329523533534258,-0.0260232798550277,-0.0102757681161165,-0.0232414007186889,0.016989579424262
1772649458835174700,7.243174560546875,0.2643207985162735,-0.1556173357564955,-0.0787974231872707,-0.0142079778015613,-0.0162532199174165,0.0012870850041508
1772649458845146600,7.253146728515625,0.2583756263762712,-0.1166114594053477,-0.1059279336318373,-0.0103623736649751,-0.0043270518071949,-0.004931129515171
1772649458855117600,7.26311767578125,0.1909960345864295,-0.0591200782928615,-0.0091249712198972,-0.0003796117380261,0.0047131078317761,-0.0107189919799566
1772649458865089500,7.273089599609375,0.1865133362144231,-0.003023147213459,0.0573398438125848,0.0068916166201233,0.0149902468547225,-0.0146191921085119
1772649458875061800,7.283061767578125,0.1791097819596528,-0.0063444736558943,0.0606565671451389,0.0054048900492489,0.0263892151415348,-0.0210922509431839
1772649458885032700,7.29303271484375,0.138262223264575,-0.0221907890200614,0.0100718966811895,-0.0015377046074718,0.0377188324928283,-0.0236765816807746
1772649458895004700,7.303004638671875,0.126337392193079,-0.0091069971717894,-0.0153655461098998,-0.0109546538442373,0.0376717634499073,-0.0299556087702512
1772649458904976600,7.3129765625,0.1931283704400062,0.0287060161329805,0.0399734792742878,-0.0242672637104988,0.0351444222033023,-0.0490222461521625
1772649458914948600,7.322948486328125,0.2202355730742216,0.0636223581481724,0.082918594770506,-0.026578139513731,0.034159630537033,-0.0630000755190849
1772649458924919600,7.33291943359375,0.1240279462069273,0.1544913274012506,0.1443783680573105,-0.0175556167960166,0.0349777564406394,-0.0515010766685009
1772649458934891800,7.342891845703125,-0.1166986262321472,0.1620760103765875,0.1030702791783958,-0.0171996243298053,0.0343549884855747,-0.0213673822581768
1772649458944863500,7.352863525390625,-0.3015565964549779,0.0358951239194721,0.0567429738979786,-0.0128799770027399,0.0251561664044857,0.0057356068864464
1772649458954834700,7.362834716796875,-0.2542553315758705,-0.0130786772817373,-0.013330898477137,-0.0087393727153539,0.0180281735956668,0.0150569304823875
1772649458964806700,7.372806640625,-0.12070318569839,-0.0639097237221896,-0.0584844838030636,-0.0118185188621282,0.0101047363132238,0.0062352092936635
1772649458974778600,7.382778564453125,0.0478033691823482,-0.1198153700131922,-0.0678563424561172,-0.00776141975075,-0.0067458618432283,-0.0075587625615298
1772649458984749600,7.39274951171875,0.1400719030350446,-0.1337270640529692,-0.0733102970130741,0.0034957616589963,-0.0205567479133605,-0.0089065879583358
1772649458994721500,7.402721435546875,0.0621048662573099,-0.0973430606380105,0.0015137655638158,0.0115350000560283,-0.0290024168789386,-0.004422674421221
1772649459004693800,7.41269384765625,-0.0305570508271455,-0.0568379587050527,0.0402574838474392,0.0202123783528804,-0.0384707562625408,0.0020610571373254
1772649459014665700,7.422665771484375,-0.0442161583453416,-0.0295201820600777,0.0917746128559112,0.0323546826839447,-0.0423375405371189,0.013856622390449
1772649459024636700,7.43263671875,-0.0643505993574857,-0.012189984813705,0.1747431111827492,0.0395279079675674,-0.0322492159903049,0.0214247945696115
1772649459034608600,7.442608642578125,-0.0467360322117805,0.0167076814338564,0.1728752714842557,0.0416835322976112,-0.0173451825976371,0.0246486943215131
1772649459044580600,7.45258056640625,0.0178436997264623,-0.000921206498146,0.14744740023911,0.0479225181043148,-0.0120622711256146,0.0236414857208728
1772649459054551600,7.462551513671875,0.107683545127511,-0.029072511357814,0.1354132635742425,0.0536794662475585,-0.0069087538868188,0.0098823513835668
1772649459064523800,7.472523681640625,0.1860661769688129,-0.040497576213628,0.1021385512862354,0.0560566037893295,-0.0054016709327697,-0.0027825776487588
1772649459074495500,7.48249560546875,0.206758251863718,-0.0532251750353723,0.070322805634886,0.0596654117107391,-0.006882376037538,-0.0123974382877349
1772649459084467700,7.4924677734375,0.1649251892626285,-0.0440727312866598,0.0005151829805225,0.0485674850642681,-0.0132691683247685,-0.0154030816629529
1772649459094438700,7.502438720703125,0.0633212563097476,-0.0418443877127021,-0.1195912789337337,0.0286773350089788,0.0008707325905561,-0.0048413095064461
1772649459104410600,7.51241064453125,-0.0411935956537723,0.0157851597614586,-0.1657717230893671,0.0166984349489212,0.0158004127442836,0.0001571779139339
1772649459114382800,7.5223828125,0.0176882169038057,0.1053749028589576,-0.1312740448776632,0.0130011793226003,0.0235560052096843,-0.0030017704702913
1772649459124353500,7.532353515625,0.0981020623117685,0.0927761911138892,-0.045910321977362,0.0038084811531007,0.0286644771695137,-0.0132618648931384
1772649459134325800,7.54232568359375,0.181433256471157,0.0442249261736869,-0.0954473100192844,-0.0061355018988251,0.0252665840089321,-0.0206214245408773
1772649459144297500,7.55229736328125,0.21921265976727,0.031201851536706,-0.0988526614833623,-0.0115867257118225,0.0324928052723407,-0.0337436161935329
1772649459154269700,7.562269775390625,0.1634270596593618,0.0224145878385752,-0.0654755117341876,-0.0167115628719329,0.035357728600502,-0.0407815761864185
1772649459164240600,7.57224072265625,0.1317646779388189,-0.0509838258493691,-0.0938182475127279,-0.0297330878674983,0.0227822847664356,-0.0518046654760837
1772649459174212600,7.582212646484375,0.102498835965991,-0.1198293254733085,-0.0984505104232579,-0.0327093712985515,0.0180864855647087,-0.0495829991996288
1772649459184184600,7.5921845703125,-0.0083481416285038,-0.1260777914088219,-0.0362816390190273,-0.0326393321156501,0.0073587382212281,-0.042985551059246
1772649459194155800,7.60215576171875,-0.1117325282573699,-0.0949411871280521,0.0194569070767611,-0.0255195908248424,-0.0039418656378984,-0.0214738138020038
1772649459204127500,7.61212744140625,-0.2003413705587386,-0.0467091442048549,0.0728144763201475,-0.0166528634727001,-0.0075802765786647,-0.0040165283717215
1772649459214099700,7.622099609375,-0.2127174525290727,-0.0045800212666392,0.1454044962346553,-0.0023912594188004,-0.0132276359945535,0.0119953034445643
1772649459224071700,7.63207177734375,-0.1433113233476877,-0.0239690507389605,0.2140565921783447,0.0127147231251001,-0.015013818629086,0.0168060380965471
1772649459234042600,7.642042724609375,-0.0688368048608303,-0.0130490127958357,0.2413779490198939,0.0278475005179643,-0.0194452255964279,0.0150215253233909
1772649459244014800,7.652014892578125,0.0545206947386264,-0.0313062617592513,0.2059451819151639,0.0336478650569915,-0.0177344121038913,0.0088198212906718
1772649459253986600,7.661986572265625,0.1623836880862712,-0.0624964959233999,0.0905970935091376,0.0329678989946842,-0.0171316564083099,-0.007521744351834
1772649459263957800,7.671957763671875,0.2381447392523288,-0.069117448433116,-0.0593419043499976,0.029631758108735,-0.0104148983955383,-0.0197608340531587
1772649459273929500,7.681929443359375,0.2380518002718687,-0.0713639852508902,-0.09361381098181,0.025762666016817,-0.0044757365249097,-0.0204201973974704
1772649459283901700,7.691901611328125,0.1287082129776477,-0.0347561830174177,-0.0925032193914055,0.0230076257139444,0.0082714837044477,-0.0155868250876665
1772649459293872600,7.70187255859375,0.059573886474967,0.0283036458771675,-0.0457623648740351,0.0266500748693943,0.0148689206689596,-0.0171380676329135
1772649459303844600,7.7118447265625,0.0675584554880857,0.0441871514465659,0.0494719599816948,0.0345399565994739,0.0208056401461362,-0.0145265711471438
1772649459313816600,7.721816650390625,0.0365653513312339,0.0840467220176011,0.0604527151361107,0.0381620749831199,0.0205052457749843,-0.0114168487489223
1772649459323788500,7.73178857421875,-0.0213999309033155,0.0531467029716819,0.0404683501191437,0.0357322096824646,0.0110755264759063,-0.0056550991721451
1772649459333759500,7.741759521484375,-0.0188163441509008,0.022070012184605,0.0306446560453623,0.0357497259974479,0.0018024793826043,-0.0014679550658911
1772649459343731700,7.751731689453125,0.0098678985416889,-0.0279724411614239,-0.0230696907464414,0.0299581512808799,-0.0035289025399833,-0.0067074578255414
1772649459353703700,7.76170361328125,0.1022895771294832,-0.0521945168133825,-0.0296943695832043,0.022502476349473,-0.0079264407977461,-0.020748334005475
1772649459363674600,7.771674560546875,0.1826145752102136,-0.0352140097875148,-0.0143703245274722,0.0181993413716554,-0.0084335068240761,-0.030885124579072
1772649459373646800,7.781646728515625,0.1514443609207868,-0.0420620490513741,-0.0615660832054913,0.0089184455573558,-0.0019931716378778,-0.0388570800423622
1772649459383618600,7.79161865234375,0.0680599752694368,-0.0289309839952737,-0.1039735846936702,0.001284493599087,-0.0010030083358287,-0.0336077250540256
1772649459393590800,7.8015908203125,-0.025132687690854,0.0009083470165729,-0.085651672996208,-0.0032921028323471,0.004341410472989,-0.0242408029735088
1772649459403561500,7.8115615234375,-0.1391319918364286,0.0049769846949726,-0.0256894447907805,-0.0095782279968261,0.0019400380551815,-0.0137511445209383
1772649459413533700,7.82153369140625,-0.1586672979116439,0.0076947192210704,-0.0469374000027775,-0.0091949999332427,-0.0092574888840317,-0.0028236624784767
1772649459423505700,7.831505615234375,-0.0837140559971332,-0.0296958308879286,-0.0059748366259038,-0.004760037176311,-0.0220917947590351,0.0044403760693967
1772649459433476600,7.8414765625,-0.0232563724249601,-0.0537283022519201,0.0667511576931923,0.004288962110877,-0.0243739858269691,0.0157693047076463
1772649459443448600,7.851448486328125,0.0220049110591411,0.0059117082618176,0.0976825217254459,0.0093702729791402,-0.0176897160708904,0.0072708912193775
1772649459453420500,7.861420654296875,0.1723743362247943,-0.0386855583555996,0.0337833193972706,0.0066529847681522,-0.0092332670465111,-0.012411524541676
