time,seconds_elapsed,acc_z,acc_y,acc_x,gyro_z,gyro_y,gyro_x
1772649200212791800,0.064791748046875,-2.316459079784155,0.3262354028984904,0.7988692815050482,-0.0946359112858772,-0.710029661655426,0.2139746397733688
1772649200222763800,0.074763671875,-2.0637439633876085,0.4120847173586487,0.7237077306021005,6.17345795035e-05,-0.5979180335998535,0.282455712556839
1772649200232735700,0.08473583984375,-1.764001138356328,0.2421539748936891,0.4864624244075268,0.0265628509223461,-0.499235451221466,0.2862158417701721
1772649200242706700,0.094706787109375,-1.3323299692571162,0.0664808893844485,0.1788396597813814,0.0064590279944241,-0.4440915882587433,0.2612159848213196
1772649200252678700,0.1046787109375,-1.012304819175601,-0.0439680288031697,-0.0028251404233276,-0.0270970668643713,-0.3576163351535797,0.2229516953229904
1772649200262650600,0.114650634765625,-0.9225409616202116,-0.0849319073542952,-0.0040755058106034,-0.0555031672120094,-0.2263273000717163,0.1923735290765762
1772649200272621600,0.12462158203125,-1.0618412957608698,0.0114557522550225,0.0257387638252228,-0.0390352383255958,-0.0841509774327278,0.1954084634780883
1772649200282593800,0.13459375,-1.306878717136383,0.2306798101991415,0.0784206257641315,0.0026233894750475,0.0461740791797637,0.2331466525793075
1772649200292565800,0.144565673828125,-1.3353005095005035,0.3928416722282767,0.1455314105499535,0.0396911278367042,0.1170810088515281,0.276952713727951
1772649200302537700,0.154537841796875,-1.0983651460379362,0.3715586457028985,0.1450838859781622,0.0607782080769538,0.1217184588313102,0.3149504065513611
1772649200312509000,0.164509033203125,-0.7730144170194864,0.2978630026340484,0.1110239415965974,0.0562124848365783,0.0940373018383979,0.3469400405883789
1772649200322480600,0.174480712890625,-0.4749947625190019,0.2646297183349728,0.0241441881101578,0.0363860726356506,0.0647037625312805,0.3609938323497772
1772649200332452900,0.184452880859375,-0.1804512596964836,0.2131058673247695,-0.0066654492385685,0.0105832396075129,0.0318246372044086,0.3501521050930023
1772649200342423600,0.194423583984375,0.114561614203453,0.2213476259693503,-0.0043337914206087,0.001760886516422,0.0023945556022226,0.3232283592224121
1772649200352395800,0.204395751953125,0.2615244457960128,0.2765954659387469,0.0632072014760226,0.0125368349254131,-0.0145266372710466,0.2869324088096618
1772649200362367700,0.21436767578125,0.3655564826786517,0.3516892853677272,0.1580054730020463,0.0280842185020446,-0.0172772351652383,0.2441695630550384
1772649200372338700,0.224338623046875,0.4139887974143028,0.4121852551236748,0.1619924237463623,0.0288434848189353,0.019110333174467,0.2042674124240875
1772649200382310700,0.234310546875,0.2780675843179225,0.4127101557806134,0.057156230873987,0.0219365619122982,0.0958212018013,0.1886441558599472
1772649200392282600,0.24428271484375,0.0851882202029228,0.3835895674973726,-0.0834578162137418,0.0162840038537979,0.1823046952486038,0.1841154545545578
1772649200402253600,0.254253662109375,0.1349263568401336,0.3694830084726214,-0.1076907785858958,0.0208877697587013,0.2198544442653656,0.1692919284105301
1772649200412225800,0.264225830078125,0.346674672076106,0.3464791495040059,-0.1075540004637092,0.0156304221600294,0.1978649944067001,0.1466326862573623
1772649200422197800,0.27419775390625,0.5364981557518244,0.2924175967097282,-0.0747572809509933,0.0152941169217228,0.1565099060535431,0.1420136839151382
1772649200432169700,0.284169677734375,0.5335416440337896,0.2657785961091518,-0.0245199626199901,0.0085054533556103,0.1238475665450096,0.1532149314880371
1772649200442141000,0.294140869140625,0.4578250165313482,0.2594038003802299,-0.0505504028681665,-0.0114315152168273,0.1004476398229599,0.176349401473999
1772649200452112600,0.304112548828125,0.4042547543853521,0.2830067942857742,-0.0733939567085355,-0.0188585370779037,0.0766363218426704,0.1962048709392547
1772649200462084900,0.3140849609375,0.4350765936285257,0.2778878438368439,-0.0339710970543324,-0.0164292305707931,0.0539843142032623,0.2145205438137054
1772649200472055600,0.3240556640625,0.5581126061886549,0.2785503993988037,0.0507253210436552,-0.0061717992648482,0.0208215676248073,0.2135306447744369
1772649200482027800,0.33402783203125,0.7313917822986841,0.2847659129127859,0.1481904006261378,0.0022029750980436,-0.0062353117391467,0.1945917606353759
1772649200491999700,0.343999755859375,0.8817407491981982,0.2673974294826388,0.2072589679274707,0.0167438350617885,-0.0197266191244125,0.1548651307821273
1772649200501970700,0.353970703125,1.0344774880170822,0.2583662740260362,0.2588515733249485,0.0312573015689849,-0.0088185686618089,0.0866355821490287
1772649200511942700,0.363942626953125,1.06982352668643,0.1985311062663793,0.2478025021746754,0.0426513701677322,0.0147948805242776,0.0165419820696115
1772649200521914600,0.37391455078125,0.9734843823939562,0.1026212933018803,0.2343289803564548,0.0424626395106315,0.0310914199799299,-0.0495892167091369
1772649200531885600,0.383885498046875,0.7559644980192184,0.0891615077480673,0.1905128541793674,0.0381800085306167,0.0644488483667373,-0.0854438841342926
1772649200541857800,0.39385791015625,0.4130278434276581,0.1089808914616703,0.1579620722517371,0.0449021384119987,0.1089386641979217,-0.0828533917665481
1772649200551829800,0.403829833984375,0.1914122141718864,0.1379737617120146,0.1392469234529882,0.0470651574432849,0.10871522128582,-0.0598681792616844
1772649200561801700,0.4138017578125,0.1865326254367828,0.1731634407758712,0.161503325055167,0.0609340034425258,0.0807581394910812,-0.0437895730137825
1772649200571773000,0.42377294921875,0.1901712742000818,0.1657420586034655,0.2529994862958789,0.0696167051792144,0.0491844974458217,-0.0345055274665355
1772649200581744600,0.43374462890625,0.2069587428718805,0.105352179570496,0.2886032260533422,0.0675551667809486,0.0251224674284458,-0.0274789612740278
1772649200591716900,0.443716796875,0.204234870865941,0.0607803396552801,0.3187690125405788,0.0612267032265663,0.0182405933737754,-0.0346519201993942
1772649200601687600,0.4536875,0.1729126808851957,0.0424032637044787,0.3576042815651744,0.0615248158574104,0.0405321270227432,-0.0414908044040203
1772649200611659800,0.46365966796875,0.1580167250484228,0.0474137853428721,0.3921335970241576,0.0748219788074493,0.0562333241105079,-0.0479668155312538
1772649200621631700,0.4736318359375,0.1703711797088384,0.0896443228289484,0.4872669457234442,0.0913357213139534,0.0582203678786754,-0.0506830923259258
1772649200631602700,0.483602783203125,0.1360568221747875,0.1155523788064718,0.5226175875026733,0.1079506501555442,0.0619413331151008,-0.0366415753960609
1772649200641574700,0.49357470703125,0.0560106410354375,0.093373280224204,0.5323140750002116,0.1158841997385025,0.0658784955739975,-0.01452789735049
1772649200651546600,0.503546630859375,0.0645809009820222,0.0752478409469127,0.5402635726999491,0.1198349967598915,0.0493109710514545,-0.0047197421081364
1772649200661517600,0.513517578125,0.1565232716202735,0.0898474441856145,0.5795175055280327,0.1250799149274826,0.0303611047565937,-0.0045952228829264
1772649200671489800,0.52348974609375,0.23661329190135,0.0764849815264344,0.6628248073551803,0.1372691988945007,0.0089711286127567,-0.0058509027585387
1772649200681461800,0.533461669921875,0.3090688717812299,0.0836786924228072,0.7557148341070861,0.1544908732175827,-0.0244520083069801,-0.0256528314203023
1772649200691433700,0.543433837890625,0.3885819689571857,0.1239446518376469,0.7637154774721712,0.1637144535779953,-0.0672316998243331,-0.0605983026325702
1772649200701405000,0.553405029296875,0.3780056298851966,0.126902332599461,0.655166182360798,0.1626373678445816,-0.0746222585439682,-0.0863635465502739
1772649200711376600,0.563376708984375,0.2001478938132524,0.0745215724989771,0.5185005806379019,0.1497114598751068,-0.0349587313830852,-0.0994998514652252
1772649200721348900,0.573348876953125,0.0547767153263092,0.027465806813538,0.3781162506528198,0.1290457993745803,-0.007762701716274,-0.1273793429136276
1772649200731319600,0.583319580078125,0.0498176316142082,0.030052608436346,0.3017397710021585,0.112378142774105,-0.0173956230282783,-0.1486556082963943
1772649200741291800,0.593291748046875,0.0137900404214859,0.0138163439065217,0.2493700437523424,0.0981621593236923,-0.0266434010118246,-0.1555065512657165
1772649200751263700,0.603263671875,-0.1199479834169149,-0.0029538813695311,0.2593477593440562,0.0839608535170555,-0.0152653120458126,-0.1480430364608764
1772649200761234700,0.613234619140625,-0.2983767973750829,-0.0091045129537582,0.186190972392261,0.0642962604761123,0.0104423258453607,-0.1223247796297073
1772649200771206700,0.62320654296875,-0.5194453141421079,-0.016117314325273,0.0653648179013282,0.0512070879340171,0.0548678450286388,-0.0691342577338218
1772649200781178600,0.6331787109375,-0.6125906308293342,0.044338615681231,0.0435672659825533,0.0465924441814422,0.079359196126461,-0.0110297976061701
1772649200791149600,0.643149658203125,-0.5752127940714359,0.1005883261695504,0.1109977111767977,0.0522892139852047,0.0802106112241745,0.0414142347872257
1772649200801121800,0.653121826171875,-0.4415285462468862,0.0972279098257422,0.2083610839504748,0.0524397194385528,0.0787349641323089,0.0872034057974815
1772649200811093800,0.66309375,-0.2433154198884964,0.0433759081289172,0.2160034153971821,0.0484308637678623,0.0709244459867477,0.1096264198422432
1772649200821065700,0.673065673828125,0.0211368960529565,0.0183715229928493,0.2166377677779644,0.0395659431815147,0.0486200302839279,0.1019456684589386
1772649200831037000,0.683036865234375,0.2500181323975324,-0.0115510293230414,0.2273578992348164,0.0341919511556625,0.0186964888125658,0.0831967517733573
1772649200841008600,0.693008544921875,0.4027566247820854,-0.0312085004732012,0.287469180522114,0.0354475378990173,-0.0072311628609895,0.0527967400848865
1772649200850980900,0.70298095703125,0.4884358433723449,-0.0520925908088684,0.324335341430828,0.027847409248352,-0.0169692784547805,0.018348753452301
1772649200860951600,0.71295166015625,0.4807604864388704,-0.0351855874106287,0.3007670535124838,0.0190488249063491,-0.017869483679533,-0.0106543023139238
1772649200870923800,0.722923828125,0.35248598870337,-0.0096750063180923,0.2290956828128546,0.0219367574900388,-0.022149184718728,-0.0242638532072305
1772649200880895500,0.7328955078125,0.2451110711336135,0.0327004925966262,0.2568313926089555,0.0325625911355018,-0.0272145550698041,-0.0253420807421207
1772649200890866700,0.74286669921875,0.1509825886279344,0.0829749280676245,0.285699248240143,0.0435031205415725,-0.0217833034694194,-0.0128214946016669
1772649200900838700,0.752838623046875,0.0707405926555395,0.1298930388480424,0.2673629426911473,0.0552872195839881,-0.0258845426142215,0.0032361077610403
1772649200910810600,0.762810546875,0.0670978522390127,0.1818313158780336,0.2426245150148868,0.0675372257828712,-0.0365893840789794,0.022969864308834
1772649200920781600,0.772781494140625,0.0552940171986818,0.164666830587387,0.2504302203297615,0.0622024349868297,-0.020299457013607,0.0310194585472345
1772649200930753800,0.78275390625,0.0771469525665044,0.1203393208220601,0.2468836337640881,0.0572979561984539,-0.0027790525928139,0.0306620616465806
1772649200940725800,0.792725830078125,0.1268476798027753,0.1285527301549911,0.1725742427110672,0.0543760657310485,0.0014510843902826,0.0112177170813083
1772649200950697700,0.80269775390625,0.2383919920116662,0.1692149954110383,0.1274266487345099,0.0661216750741005,-0.023067308589816,-7.67483725212e-05
1772649200960669000,0.8126689453125,0.2810065603792667,0.1752706421881914,0.2004278067331761,0.084782175719738,-0.0572399273514747,-0.0031508351676166
1772649200970640600,0.822640625,0.3164472915947437,0.1946545570939779,0.2417873335383832,0.0974873155355453,-0.0917084217071533,-0.0051215747371315
1772649200980612900,0.83261279296875,0.3525228135824203,0.1876645520761609,0.2187477456692606,0.114589124917984,-0.1256877928972244,-0.0044124517589807
1772649200990583600,0.84258349609375,0.366572381722927,0.1632286144778132,0.2108881182100623,0.1169785112142562,-0.1681772023439407,-0.0130876991897821
1772649201000555800,0.8525556640625,0.4137836302310228,0.1332175070956349,0.1644222812417894,0.1078564971685409,-0.2026288360357284,-0.0345215052366256
1772649201010527500,0.862527587890625,0.4197814093410968,0.067776189891994,0.122058984221518,0.0777268260717392,-0.212056428194046,-0.0670584142208099
1772649201020498700,0.872498779296875,0.3434405124604702,0.0082262688145041,0.0609433481972664,0.0511014685034751,-0.1970032006502151,-0.0959087759256362
1772649201030470700,0.882470703125,0.1752285566121339,0.050791445082426,0.0294997968591749,0.0446110814809799,-0.1627954244613647,-0.1088583916425705
1772649201040442600,0.892442626953125,-0.024494974309206,0.1336839555636048,0.0979732483003288,0.052231702953577,-0.1087271869182586,-0.1014035493135452
1772649201050414800,0.902414794921875,-0.2097790609896183,0.1460273043081164,0.1106144109476357,0.0523821711540222,-0.0606107898056507,-0.0923144519329071
1772649201060385800,0.9123857421875,-0.2428986557811498,0.1580894980236888,0.1026424822203815,0.041806124150753,-0.0509982369840145,-0.0678561478853225
1772649201070357800,0.922357666015625,-0.1396037010014057,0.131624684946239,0.1471823195621371,0.036803375929594,-0.0655164569616317,-0.050440140068531
1772649201080329700,0.932329833984375,-0.0009977788656949,0.0691995006933808,0.2411413637850433,0.026422768831253,-0.0862444043159484,-0.0381124392151832
1772649201090300700,0.94230078125,0.1262058747678995,0.0520870378509163,0.3104221860863268,0.0184865482151508,-0.1014366745948791,-0.0439058803021907
1772649201100272600,0.952272705078125,0.2143324865102767,0.0370247855365276,0.2950617545429617,0.0054069962352514,-0.104865163564682,-0.0591557770967483
1772649201110244900,0.962244873046875,0.2715051570624113,0.0288669057831168,0.3058051207449287,-0.0002045505680143,-0.0931616351008415,-0.0788043141365051
1772649201120215600,0.972215576171875,0.2825204720735549,-0.0103808164998888,0.2974995030838996,-0.01078069396317,-0.0899267345666885,-0.1076358929276466
1772649201130187800,0.982187744140625,0.3502192128151655,-0.0188800570368766,0.2855933767128735,-0.0317743942141532,-0.0918029323220253,-0.1411517709493637
1772649201140159500,0.992159423828125,0.3136719816625118,-0.0484466355219483,0.2506436438847333,-0.0486562699079513,-0.0897589772939682,-0.1665761470794677
1772649201150130700,1.002130615234375,0.2563584413349628,-0.059799511924386,0.2474857643757015,-0.0736183449625969,-0.0903336852788925,-0.1829985231161117
1772649201160102700,1.0121025390625,0.1569634166032076,-0.0702376115694642,0.2603353821419179,-0.0937973409891128,-0.094671331346035,-0.1886467784643173
1772649201170074600,1.02207470703125,-0.0404927539080381,-0.034454058265686,0.2920267707612365,-0.0876054912805557,-0.0952913165092468,-0.167805403470993
1772649201180046800,1.032046875,-0.2541670687705278,0.0750903122976422,0.3993456472948193,-0.0636948868632316,-0.089008554816246,-0.1251894384622573
1772649201190017800,1.042017822265625,-0.4212327771931886,0.1806482435733079,0.5132666255071759,-0.038698986172676,-0.086137406527996,-0.0794214084744453
1772649201199989800,1.05198974609375,-0.4440034119278192,0.1841828474402427,0.5223140745114535,-0.0204068720340728,-0.094742938876152,-0.0388361737132072
1772649201209961700,1.061961669921875,-0.3620850071758031,0.1390788003444671,0.5087650032389909,-0.008597083389759,-0.1021840795874595,-0.0229400303214788
1772649201219932700,1.0719326171875,-0.2083387990534305,0.0718348176330327,0.4513764979790896,-0.0032238189596682,-0.1072762459516525,-0.0223418790847063
1772649201229904600,1.081904541015625,-0.0400666374504566,0.0076923080682754,0.3347965296905487,-0.0156988650560379,-0.1000223308801651,-0.0333697609603405
1772649201239876900,1.091876953125,0.1035761098086833,-0.0665919485434889,0.2001876413017511,-0.0330786816775798,-0.0963819995522499,-0.0627065747976303
1772649201249847600,1.10184765625,0.1928086369663476,-0.0850137404188513,0.1213346154697239,-0.0433390438556671,-0.1022425517439842,-0.0955769047141075
1772649201259819800,1.11181982421875,0.2284159569203853,-0.0848462748974561,0.1418302910096943,-0.0458730943500995,-0.1161955595016479,-0.1147747561335563
1772649201269791500,1.12179150390625,0.2118716493546962,-0.06230038882941,0.1901010585080832,-0.0392599329352378,-0.1471233814954757,-0.1173271238803863
1772649201279762700,1.1317626953125,0.1363964293926954,-0.0222924958288669,0.229151285457611,-0.033603087067604,-0.1826582551002502,-0.1105409041047096
1772649201289734700,1.141734619140625,0.0288490778654813,-0.003537818737328,0.2425846944611519,-0.0294706579297781,-0.202880173921585,-0.0853452682495117
1772649201299706600,1.15170654296875,-0.0776315212130546,0.0232046422377228,0.2026637490916997,-0.0290184114128351,-0.2166693657636642,-0.0523518547415733
1772649201309678800,1.161678955078125,-0.1507265680402517,0.0395583956673741,0.1430933332154527,-0.0302386712282896,-0.2258223891258239,-0.0287993922829628
1772649201319649800,1.17164990234375,-0.1268313131898641,0.0519657495588064,0.0885606192454695,-0.0377039201557636,-0.2274558395147323,-0.0259564761072397
1772649201329621800,1.181621826171875,-0.0946487069875001,0.0509688474759459,0.0457389109332114,-0.0385990105569362,-0.2191116213798523,-0.0269224047660827
1772649201339593700,1.19159375,-0.1124713639259338,0.0588368043720722,0.0542951788870617,-0.0235982201993465,-0.1996231526136398,-0.0244784206151962
1772649201349564700,1.201564697265625,-0.1441179635554552,0.0958309025093913,0.0877928132107481,-0.0169033017009496,-0.1857014745473861,-0.0234986431896686
1772649201359536600,1.21153662109375,-0.0951549029439687,0.0846791016370058,0.0238150657536461,-0.0189972445368766,-0.1843459010124206,-0.032291904091835
1772649201369508900,1.2215087890625,-0.0244751005649566,0.0322717457905411,-0.0268617765057831,-0.0249203816056251,-0.1917617470026016,-0.0387143827974796
1772649201379479600,1.2314794921875,-0.0026215806752443,-0.0271136323750019,-0.0588246390102431,-0.0350555889308452,-0.1912449896335601,-0.034273911267519
1772649201389451800,1.24145166015625,0.0242880535602569,-0.0615989625617861,-0.1016578185645863,-0.0558463558554649,-0.1942080110311508,-0.0407355390489101
1772649201399423500,1.251423583984375,0.0988473277211189,-0.0709361152276396,-0.1365078538779169,-0.0664509087800979,-0.1930887550115585,-0.0563915744423866
1772649201409394700,1.261394775390625,0.1486556069850921,-0.0591226355761289,-0.1175064720163121,-0.0688789114356041,-0.1928381472826004,-0.0683776661753654
1772649201419366700,1.27136669921875,0.1505494579076766,-0.0261067934200167,-0.0835534586079418,-0.0714721828699112,-0.1898063421249389,-0.0742359682917594
1772649201429338600,1.281338623046875,0.1485153217315673,-0.00158522336483,-0.0316802827034145,-0.0721606165170669,-0.1783443689346313,-0.0826164036989212
1772649201439310800,1.291310791015625,0.1425017605304717,0.0169306765347719,-0.0772096425391733,-0.0818118005990982,-0.1519739329814911,-0.0963281169533729
1772649201449281800,1.30128173828125,0.0761813224047422,-0.000954816506803,-0.1883673300506547,-0.0858821719884872,-0.1122680678963661,-0.096544362604618
1772649201459253800,1.311253662109375,-0.012982231169939,0.0051698038533329,-0.2260441862877458,-0.0865551903843879,-0.0769473686814308,-0.0770330876111984
1772649201469225500,1.3212255859375,0.0044511341899633,0.0269534733772277,-0.1929853087075054,-0.0942216366529464,-0.089882344007492,-0.0647793486714363
1772649201479196400,1.331196533203125,0.2134562881976366,0.0015282324805855,-0.1452787874957546,-0.1019653975963592,-0.1308394819498062,-0.065680980682373
1772649201489168400,1.34116845703125,0.4233405631273985,-0.0486494646176695,-0.0928903555454686,-0.0976718515157699,-0.1682470440864563,-0.069830983877182
1772649201499140400,1.351140380859375,0.520739445605874,-0.0525572857111692,-0.0650907867329195,-0.0988557115197181,-0.1944900453090667,-0.0900205001235008
1772649201509111300,1.361111328125,0.5840425817370415,-0.0458279774561524,-0.0927485359219834,-0.108711801469326,-0.2056556344032287,-0.1259417533874511
1772649201519083300,1.371083251953125,0.5755050550162791,-0.0259150702401995,-0.1817939430097118,-0.1091444790363311,-0.1683721989393234,-0.1606367826461792
1772649201529055200,1.38105517578125,0.4072913456022739,0.0056555415436625,-0.2158652490355074,-0.0988356471061706,-0.1141369342803955,-0.1828992068767547
1772649201539026200,1.391026123046875,0.2780582319676876,0.039511926177144,-0.2072146721280179,-0.0828534737229347,-0.0762118697166442,-0.2087083011865615
1772649201548998400,1.400998291015625,0.1824561697781085,0.0850873901769518,-0.2347105087536387,-0.0679240599274635,-0.0489578731358051,-0.2287725508213043
1772649201558970000,1.41097021484375,0.1600228041738271,0.0773866065412759,-0.2819362972437404,-0.0528265237808227,-0.0357658378779888,-0.2333944588899612
1772649201568942300,1.4209423828125,0.1420516786754131,0.0279784325107932,-0.2965998873630538,-0.0445254519581794,-0.0424807332456111,-0.2201154083013534
1772649201578913300,1.430913330078125,0.1473795956999063,-0.0057648471370339,-0.2966016591950319,-0.0439486652612686,-0.0598122254014015,-0.206570491194725
1772649201588885200,1.44088525390625,0.2265676987051963,-0.0594204494789242,-0.3199530346933752,-0.0449159294366836,-0.093287892639637,-0.1964619308710098
1772649201598857500,1.450857421875,0.333205534172058,-0.1297530458554625,-0.328615868294239,-0.0526146367192268,-0.1307640075683593,-0.2002362161874771
1772649201608828400,1.460828369140625,0.4403057264536619,-0.1675920703843235,-0.3385936934838071,-0.0532351545989513,-0.1554975807666778,-0.2202586531639099
1772649201618800400,1.47080029296875,0.5405670126259327,-0.1891223496690392,-0.3551314251782372,-0.0466038845479488,-0.1527390778064727,-0.2601661384105682
1772649201628772400,1.4807724609375,0.5357686724334955,-0.1867266867041587,-0.423823889664933,-0.0400053709745407,-0.1176335588097572,-0.30874964594841
1772649201638743300,1.490743408203125,0.5403250205636024,-0.1824213907256722,-0.5104436770409345,-0.0355927608907222,-0.0709918662905693,-0.3621020019054413
1772649201648715300,1.50071533203125,0.5034463654994964,-0.2221931368827819,-0.5631563359769061,-0.0328326635062694,-0.0244893413037061,-0.3979792892932892
1772649201658687200,1.510687255859375,0.4457067087143659,-0.2794751130282878,-0.5369644580893218,-0.032993659377098,0.0014811395667493,-0.4106405079364776
1772649201668658200,1.520658203125,0.3845750714033842,-0.3152332396298646,-0.4683716180521994,-0.0293182302266359,0.0099558513611555,-0.4003013074398041
1772649201678630400,1.53063037109375,0.2521644967764616,-0.356441740591824,-0.4030406293552369,-0.0157826282083988,0.0042936662212014,-0.3530019223690033
1772649201688602400,1.540602294921875,0.1396381877928972,-0.3387012089788913,-0.3074403937965631,-0.0060884552076458,-0.0025202971883118,-0.2870412766933441
1772649201698573300,1.5505732421875,0.1539063671201467,-0.3540288342311978,-0.210718533796817,0.0008107023313641,-0.018423581495881,-0.2330584079027176
1772649201708545500,1.560545654296875,0.2465285367161035,-0.3924249081209301,-0.1580724007584154,0.0104580037295818,-0.0243919920176267,-0.2029135525226593
1772649201718517200,1.570517333984375,0.4329693922162055,-0.5017980137705803,-0.1216934205784462,0.0135561004281044,-0.0308845043182373,-0.1972912549972534
1772649201728489500,1.580489501953125,0.6520189703762531,-0.5432938072413206,-0.088620039548818,0.0144256222993135,-0.0359423793852329,-0.2102837413549423
1772649201738460400,1.59046044921875,0.8489297819644213,-0.588304915356636,-0.0778688371002674,0.0154633838683366,-0.0275441668927669,-0.2438222616910934
1772649201748432400,1.600432373046875,0.9661825349479912,-0.628268092432618,-0.0669307520437985,0.0043872958049178,0.0011985301971435,-0.2977334558963775
1772649201758404400,1.610404296875,1.0550772084534168,-0.6911532954126596,-0.0254701212179847,0.0057281861081719,0.0293049439787864,-0.3440137505531311
1772649201768375300,1.620375244140625,1.0478478417217731,-0.7574503526628017,0.0606845511306077,0.0204003397375345,0.056899819523096,-0.3750078678131103
1772649201778347300,1.63034716796875,0.8647481133431195,-0.7948004246309399,0.1030883080254308,0.0364501327276229,0.0796703249216079,-0.3736900091171264
1772649201788319200,1.6403193359375,0.6894523367136717,-0.8409951895728707,0.12364628994558,0.0458929017186164,0.0802490338683128,-0.3463747799396515
1772649201798290200,1.650290283203125,0.5365571924626827,-0.905508578276634,0.1391622591105289,0.0447261519730091,0.0607799850404262,-0.2929003834724426
1772649201808262400,1.660262451171875,0.4275970515280962,-0.9793652571260928,0.1158355431294068,0.0385742485523223,0.0432161726057529,-0.2379468530416488
1772649201818234400,1.670234375,0.3967722896754741,-1.0719070549622178,0.1644315422604791,0.0350105389952659,0.0173372495919466,-0.1903869211673736
1772649201828205300,1.680205322265625,0.478351671731472,-1.1167714480832218,0.2301650290774181,0.0398273989558219,0.002300243359059,-0.1670880019664764
1772649201838177500,1.690177490234375,0.5737368762999773,-1.1821177804797889,0.2570890023655258,0.0351608805358409,0.0224854350090026,-0.1731530129909515
1772649201848149200,1.700149169921875,0.6232879659324884,-1.25309744258821,0.180100345633272,0.0239329952746629,0.0516827329993248,-0.2018586844205856
1772649201858121500,1.71012158203125,0.6490402468264103,-1.345214000749588,0.1079827472697943,0.0104684131219983,0.083296500146389,-0.2321515679359436
1772649201868092400,1.720092529296875,0.592909778803587,-1.420024619323015,0.0828289437256753,-0.0083074048161506,0.1290535926818847,-0.2567130923271179
1772649201878064400,1.730064453125,0.4492465732783079,-1.504287541374564,0.0525681176324374,-0.0246990323066711,0.1949753314256668,-0.2728444933891296
1772649201888036400,1.740036376953125,0.2990489975482225,-1.541274040727317,0.0144190225074067,-0.0457547828555107,0.2404631972312927,-0.2777015566825866
1772649201898007300,1.75000732421875,0.1855354310929775,-1.5599740650221705,0.0210817317996174,-0.0500470139086246,0.2554841637611389,-0.2484508603811264
1772649201907979300,1.759979248046875,0.0971025298804044,-1.563164093235135,0.1416717394471168,-0.0525743514299392,0.2402998805046081,-0.2014109194278717
1772649201917951200,1.769951171875,0.0672679481089115,-1.5910101315379142,0.2315982767509296,-0.0635352507233619,0.1982724070549011,-0.1502454727888107
1772649201927922200,1.779922119140625,0.0259106863260269,-1.612135337153077,0.2634395952349528,-0.0717228725552558,0.1700743287801742,-0.1001838967204094
1772649201937894400,1.789894287109375,-0.1190975040674209,-1.615626686400175,0.2703973784836009,-0.070577822625637,0.1609288454055786,-0.0478629507124424
1772649201947866400,1.799866455078125,-0.2519260118454695,-1.565105290430784,0.3382845544693991,-0.054548792541027,0.1627371311187744,0.0014942117268219
1772649201957837300,1.80983740234375,-0.3541951307088136,-1.5196525760278106,0.3700916784228756,-0.0409743078052997,0.1874442100524902,0.0483026131987571
1772649201967809500,1.8198095703125,-0.3862947348028421,-1.4709087111249566,0.3201120977126062,-0.0272494424134492,0.2256363332271576,0.0842502266168594
1772649201977781200,1.82978125,-0.3677712361186742,-1.496574482779205,0.2437663785263895,-0.0148636261001229,0.2539043724536896,0.1068754941225051
1772649201987753500,1.83975341796875,-0.2718418416708708,-1.5442358131423592,0.1510317615319043,-0.0088451486080884,0.272657573223114,0.1294785439968109
1772649201997724400,1.849724365234375,-0.1512029533803462,-1.6031792927592992,0.1289393183197826,-0.0148125924170017,0.2744970023632049,0.1525578051805496
1772649202007696400,1.8596962890625,-0.0031979192584753,-1.645418013551831,0.1333407681491226,-0.0193783156573772,0.268477201461792,0.178709790110588
1772649202017668400,1.86966845703125,0.1257563774347305,-1.6685615732520818,0.1504111454155296,-0.0258810818195343,0.2520087659358978,0.1864338219165802
1772649202027639300,1.879639404296875,0.312505860492587,-1.687528139528632,0.1526627237346023,-0.0396096780896186,0.2242500931024551,0.1673392206430435
1772649202037611300,1.889611328125,0.4465770618081092,-1.7129861136510969,0.1710536820802837,-0.0600137561559677,0.1906388700008392,0.1304959803819656
1772649202047583200,1.899583251953125,0.4462339474588632,-1.7393410366132855,0.2405617372661828,-0.0658138543367385,0.1854174733161926,0.088612176477909
1772649202057554200,1.90955419921875,0.2200847664266824,-1.7095029477104544,0.3061696432083845,-0.0667068064212799,0.2112184464931488,0.0536643154919147
1772649202067526400,1.9195263671875,-0.0722480746090412,-1.6347528271526095,0.244728282361105,-0.0598739385604858,0.2506659924983978,0.0237210653722286
1772649202077498400,1.929498291015625,-0.426144514632225,-1.5585180209949612,0.152150755624473,-0.0575612485408782,0.2792592942714691,0.0160748641937971
1772649202087469300,1.93946923828125,-0.8057686856299638,-1.5348156583681702,0.1350952106010168,-0.0550285838544368,0.283190906047821,0.0343747735023498
1772649202097441500,1.949441650390625,-1.1961164952158927,-1.5147408385887742,0.1800900251686573,-0.0446858741343021,0.3057693839073181,0.0987635403871536
1772649202107413200,1.959413330078125,-1.5863409706830978,-1.514685016748309,0.2447298167310655,-0.0348106063902378,0.3566397428512573,0.196559339761734
1772649202117385500,1.969385498046875,-1.91053025470674,-1.5656661391839384,0.355128904427588,-0.0151622258126735,0.361871600151062,0.3344044089317322
1772649202127356400,1.9793564453125,-1.966773535454273,-1.61433986146003,0.6266418794702738,0.0057566384784877,0.3230386972427368,0.4659688174724579
1772649202137328400,1.989328369140625,-1.7080343364626167,-1.7349810878381131,0.9386631713163108,0.0246319212019443,0.2559955716133117,0.5492849349975586
1772649202147300400,1.99930029296875,-1.305382925620675,-1.9141727028623223,1.1815680376425384,0.0363713987171649,0.1809215992689132,0.5588062405586243
1772649202157271300,2.009271240234375,-0.8587298759669065,-2.0917060292854903,1.2867004369825124,0.0303662940859794,0.1134936213493347,0.4737405776977539
1772649202167243300,2.0192431640625,-0.3745125270724296,-2.218597255969047,1.2904285175949337,-0.0150541849434375,0.0631108731031417,0.2693853080272674
1772649202177215200,2.02921533203125,-0.0053898763447999,-2.294309791818261,1.1132428355656565,-0.0768446922302246,0.0345891416072845,-0.0323581434786319
1772649202187186200,2.039186279296875,0.0477794037848711,-2.2889146547764536,0.8519269179537892,-0.1183652356266975,0.0546920113265514,-0.3532456159591675
1772649202197158400,2.049158447265625,-0.4117407262265682,-2.0146759810969237,0.6362098452173173,-0.1155711933970451,0.1345790922641754,-0.5884510278701782
1772649202207130400,2.05913037109375,-1.3471353242009878,-1.55290661085397,0.5483745445717125,-0.0843693315982818,0.2356918603181839,-0.6972155570983887
1772649202217101300,2.069101318359375,-2.377810497325658,-1.0697434471875429,0.4625272028729319,-0.0433148071169853,0.3332420885562897,-0.6787365078926086
1772649202227073500,2.079073486328125,-3.2970606007069345,-0.6638721975162625,0.2946649372451007,0.0059251766651868,0.4056896567344665,-0.5423043370246887
1772649202237045200,2.089045166015625,-3.98051924996376,-0.3406222401693463,0.220959722630307,0.0671854987740516,0.4644056856632232,-0.2771626710891723
1772649202247016400,2.099016357421875,-4.520229938021302,0.0039963761597871,0.1822190730866044,0.1421343237161636,0.5182102918624878,0.097177930176258
1772649202256988200,2.10898828125,-4.73636801264882,0.3587885959789156,0.1938243898801505,0.2346208840608596,0.5528323650360107,0.5302078723907471
1772649202266960400,2.11896044921875,-4.468633021774888,0.7263122870773077,0.2607112297169864,0.3372759222984314,0.5607481002807617,0.9554723501205444
1772649202276932400,2.128932373046875,-3.754029877191782,0.987416461634636,0.3900654855132103,0.437173992395401,0.5686447024345398,1.3153804540634155
1772649202286903300,2.1389033203125,-2.8149492841809987,1.089258587257564,0.4814418928317725,0.5232917666435242,0.5717555284500122,1.592532992362976
1772649202296875300,2.148875244140625,-1.7995207800269126,1.164023028601706,0.4789750643268227,0.5830886363983154,0.5578498840332031,1.7697824239730835
1772649202306847200,2.15884716796875,-0.7525006213009356,1.2461658897593615,0.4547146294258534,0.6151885390281677,0.5224620699882507,1.8335906267166135
1772649202316818200,2.168818115234375,0.213723999223113,1.23967886582762,0.5107618030793964,0.61362224817276,0.4686926603317261,1.7952879667282104
1772649202326790400,2.178790283203125,0.9921376449376345,1.1272080864235758,0.7302450964815914,0.612199604511261,0.3866377472877502,1.6960070133209229
1772649202336762400,2.188762451171875,1.420153214138746,1.0493597075894474,0.9570698386877776,0.6257766485214233,0.2857682406902313,1.5699058771133425
1772649202346733300,2.1987333984375,1.5808137316942217,1.1197016563162208,1.1145745225608348,0.6449119448661804,0.1988301426172256,1.4350581169128418
1772649202356705500,2.20870556640625,1.5829489901572464,1.2422212437868116,1.072856026250124,0.6431442499160767,0.1333814263343811,1.286257266998291
1772649202366677200,2.21867724609375,1.435105284076929,1.3353808812603354,0.8049614609003066,0.6003075838088989,0.0532051026821136,1.1148836612701416
1772649202376648400,2.2286484375,1.2131336809903384,1.3549404449939726,0.4071294330388307,0.5077966451644897,-0.0190493203699588,0.907200038433075
1772649202386620200,2.2386201171875,0.9442752390444278,1.3361793381616471,-0.0265789409764111,0.3799180686473846,-0.0451365821063518,0.6937194466590881
1772649202396592400,2.24859228515625,0.4894891518175601,1.388651575937867,-0.4006894631192088,0.242682933807373,-0.0178726874291896,0.504244327545166
1772649202406564400,2.258564453125,-0.0726186614871025,1.569583312627673,-0.6768668497763574,0.1209583729505539,0.043884951621294,0.367210328578949
1772649202416535300,2.268535400390625,-0.6370218922525644,1.862570233657956,-0.7358462774895131,0.0360710397362709,0.1044023260474205,0.320048063993454
1772649202426507300,2.27850732421875,-1.101233979472518,2.258919914007187,-0.5994106851302087,-0.0128016956150531,0.1384532451629638,0.3570162057876587
1772649202436479200,2.288479248046875,-1.257243456351757,2.651995394991338,-0.3076104896664619,-0.0249044727534055,0.1344890147447586,0.4495359659194946
1772649202446450200,2.2984501953125,-1.113582004392147,2.939280012726784,-0.0566178131483495,-0.0234557148069143,0.1122771799564361,0.5351105332374573
1772649202456422400,2.30842236328125,-0.7154793428957462,3.147656221181154,0.1054357662007212,-0.0172826237976551,0.0968021750450134,0.5883926153182983
1772649202466394400,2.318394287109375,-0.2138859117865562,3.264752614559233,0.2070532892875373,-0.0020719803869724,0.1182954832911491,0.604413628578186
1772649202476365000,2.328364990234375,0.2981353898346424,3.3148812118187543,0.238288970028609,0.0154465101659297,0.1893554776906967,0.5820287466049194
1772649202486337300,2.338337158203125,0.8125304348498582,3.365284242105484,0.200172005341202,0.027209959924221,0.2977519929409027,0.5244756937026978
1772649202496309000,2.34830908203125,1.296207100996375,3.348028571400046,0.080570935665816,0.0195995271205902,0.438907116651535,0.4306718409061432
1772649202506280200,2.3582802734375,1.6944278359144924,3.2755931575253605,-0.0532129731409251,0.0044711744412779,0.5613855719566345,0.3308469951152801
1772649202516252200,2.368252197265625,1.966961751502752,3.201289027169347,-0.038101036465913,0.022702669724822,0.6236034035682678,0.2635406255722046
1772649202526224100,2.37822412109375,2.200394075280428,3.242020266008377,0.1969623956449329,0.0704251825809478,0.6208334565162659,0.2385497838258743
1772649202536195000,2.388195068359375,2.4112732064664364,3.265826673531532,0.4211800240926444,0.1103894710540771,0.5623368620872498,0.2172713577747345
1772649202546167000,2.3981669921875,2.662086873155832,3.189676330786943,0.492355939425528,0.1393172740936279,0.4661970138549804,0.1977895349264145
1772649202556139300,2.40813916015625,2.836554382267594,3.0331027902841567,0.4720994794689118,0.1519065946340561,0.3814126551151275,0.1728113293647766
1772649202566111000,2.418111083984375,2.962374472588301,2.857421813729405,0.3821664028264582,0.1489773839712143,0.3038547337055206,0.1324838697910308
1772649202576082200,2.428082275390625,3.1188521515011787,2.682796483707428,0.2450213470235467,0.118038959801197,0.2353130728006363,0.0442890785634517
1772649202586054100,2.43805419921875,3.243005185392499,2.4577660775721077,-0.039602380939573,0.0674636662006378,0.2019034475088119,-0.0794096887111663
1772649202596026000,2.448026123046875,3.340777577358484,2.214281730857492,-0.1789537146151065,0.0264975056052207,0.1941199749708175,-0.2203637659549713
1772649202605997000,2.4579970703125,3.3777859962821006,1.9913053346425291,-0.0782069830134511,-0.0003389008343219,0.1983341574668884,-0.3696672320365906
1772649202615969300,2.46796923828125,3.3114053524017333,1.773111496528983,0.0062670975707471,-0.0190478451550006,0.2220247834920883,-0.5196838974952698
1772649202625941000,2.47794091796875,3.1677795562773943,1.5956193788990378,0.0503324492685496,-0.0315569788217544,0.2504825294017792,-0.6550766229629517
1772649202635912200,2.487912109375,2.9920506489276883,1.4187912781357763,0.0132765379413962,-0.0464543774724006,0.2516520917415619,-0.7698906660079956
1772649202645884200,2.49788427734375,2.755544324532151,1.2321294733613728,-0.069698974648118,-0.0633824989199638,0.2261438071727752,-0.8611782789230347
1772649202655856000,2.507856201171875,2.520717916047573,1.0340540019080042,-0.0854411720506846,-0.078025534749031,0.1639679074287414,-0.9344512224197388
1772649202665827000,2.5178271484375,2.312245846003294,0.8497878600984812,0.0013341712132096,-0.0792886763811111,0.0741264224052429,-0.982935905456543
1772649202675799000,2.527799072265625,2.1042741266965863,0.6716086369872093,0.079853873437643,-0.0674332529306411,-0.003369941143319,-1.0217853784561155
1772649202685771300,2.537771240234375,1.8518395808070895,0.4886848496973514,0.0919132906742394,-0.0501043274998664,-0.0607432164251804,-1.0400546789169312
1772649202695743000,2.547742919921875,1.5648632983684538,0.3118783762440085,0.0906155059486627,-0.0219207238405942,-0.1070209890604019,-1.0469852685928345
1772649202705714200,2.557714111328125,1.315681616795063,0.1795999035641551,0.0834510211467742,0.003018447663635,-0.1488941311836242,-1.0448342561721802
1772649202715686100,2.56768603515625,1.141928393432498,0.0184425424024462,0.0703976244367659,0.0261304527521133,-0.1868990957736969,-1.0532410144805908
1772649202725658000,2.577658203125,1.0166945785671473,-0.2101753668308258,0.0090023677535355,0.0458935014903545,-0.2176655232906341,-1.0727558135986328
1772649202735629000,2.587629150390625,0.8707546602815389,-0.467674502633512,-0.0165881467074155,0.0694532468914985,-0.2380255460739135,-1.0994645357131958
1772649202745601300,2.597601318359375,0.6096645142495631,-0.7139949495568871,0.0455029832854866,0.0780035853385925,-0.2513096332550049,-1.1373592615127563
1772649202755573000,2.607572998046875,0.3379489293068647,-0.9186778564512728,0.0225705821178853,0.0918208509683609,-0.2701148092746734,-1.1681878566741943
1772649202765544200,2.617544189453125,0.08914718696177,-1.0815519584029911,0.0265497148819267,0.1066290885210037,-0.286616563796997,-1.176811695098877
1772649202775516200,2.62751611328125,-0.270852830633521,-1.2789368172436952,0.0717969698406755,0.131318137049675,-0.3101122081279754,-1.1542128324508667
1772649202785488100,2.637488037109375,-0.7996276986569165,-1.5144897864371538,0.1693107108704745,0.1601913273334503,-0.3311996459960937,-1.0896737575531006
1772649202795459000,2.647458984375,-1.4401450318098068,-1.7365318244114518,0.2469853405728936,0.1962265372276306,-0.3554533720016479,-0.9673081040382384
1772649202805431000,2.65743115234375,-2.081467251604795,-1.9231579733505844,0.2958333965025842,0.2408818900585174,-0.4277227818965912,-0.7839662432670593
1772649202815403300,2.6674033203125,-2.5888112090647217,-2.0719845529884098,0.3156701697424054,0.268158882856369,-0.5566988587379456,-0.5623161792755127
1772649202825374200,2.677374267578125,-2.978836362567544,-2.211742275507748,0.3366090590052306,0.2701796889305115,-0.6935813426971436,-0.3266956508159637
1772649202835346200,2.68734619140625,-3.38377325399816,-2.382666120663285,0.3163900084495544,0.2576593160629272,-0.7559179663658142,-0.080750435590744
1772649202845318100,2.697318115234375,-3.813143744939565,-2.553029701587558,0.2343012155666947,0.2374968081712722,-0.7710532546043396,0.1419553309679031
1772649202855290000,2.7072900390625,-3.9680958217203615,-2.570704182226956,0.2198522728450596,0.2081068307161331,-0.7665095925331116,0.3094203174114227
1772649202865261000,2.717260986328125,-3.8600913740754126,-2.5995605666160584,0.234461447629705,0.1941646486520767,-0.7346056699752808,0.4173561036586761
1772649202875233300,2.7272333984375,-3.616578970310092,-2.623425426328182,0.2506036041352897,0.193572923541069,-0.6641369462013245,0.4842892587184906
1772649202885205000,2.737205078125,-3.2719565545886757,-2.541549399413168,0.2895451830785721,0.2055749893188476,-0.5680626034736633,0.524564802646637
1772649202895176200,2.74717626953125,-2.908194554111361,-2.444345747245848,0.3233495452638715,0.2160360962152481,-0.4626066386699676,0.5585926175117493
1772649202905148000,2.75714794921875,-2.5207769527584314,-2.366923484869301,0.3342456178095191,0.2274754345417022,-0.3419446647167206,0.5872676372528076
1772649202915120000,2.7671201171875,-2.112731573918462,-2.3600799025848507,0.4714532174546271,0.235829472541809,-0.2335952520370483,0.6102063059806824
1772649202925091000,2.777091064453125,-1.5925830799430607,-2.395866963019967,0.6387980350796133,0.2339522242546081,-0.1757897436618805,0.5907082557678223
1772649202935063000,2.78706298828125,-0.91334935490489,-2.3353262773394583,0.7159392154924571,0.2050877511501312,-0.1735165268182754,0.5085223317146301
1772649202945035300,2.79703515625,-0.2634703191667795,-2.288921961300075,0.7451303847938776,0.1375686228275299,-0.1969704627990722,0.3681795597076416
1772649202955006200,2.807006103515625,0.1395335583746433,-2.327394899818301,0.6374005163066089,0.0435294695198535,-0.1796734929084777,0.1908947974443435
1772649202964978200,2.816978271484375,0.3586380815923213,-2.3013678936362267,0.3971690339080989,-0.0630102828145027,-0.1077692061662674,-0.0110095618292689
1772649202974950100,2.8269501953125,0.515407436928153,-2.147015536314249,0.1178504996810108,-0.1692476719617843,-0.0288053452968597,-0.2089598178863525
1772649202984921300,2.83692138671875,0.6111854402065277,-1.870735419934988,-0.0928797976188361,-0.2775141894817352,0.0302340053021907,-0.3912917971611023
1772649202994893000,2.84689306640625,0.5720990459650754,-1.5794304606422782,-0.3258675194341689,-0.3746601939201355,0.0974716320633888,-0.5230631232261658
1772649203004865300,2.856865234375,0.2863344774037599,-1.2155892574489116,-0.7294543844953179,-0.4761042594909668,0.139199361205101,-0.5837416648864746
1772649203014837000,2.8668369140625,0.0182294841736555,-0.7831567485883831,-1.0307901778064668,-0.5744994878768921,0.1258202940225601,-0.5753287076950073
1772649203024808200,2.87680810546875,-0.2314145542144775,-0.4005073845505714,-1.003489425361529,-0.663424551486969,0.0678158476948738,-0.5215775966644287
1772649203034780000,2.88677978515625,-0.5487047263741492,-0.0922036519229412,-0.8034594588395207,-0.7361487150192261,0.0236161351203918,-0.4561648368835449
1772649203044752100,2.896752197265625,-0.7861281656146049,0.2123603096544742,-0.5095035466466099,-0.7746428847312927,0.0463576689362525,-0.4096186459064483
1772649203054723000,2.90672314453125,-1.025634256348014,0.5494838940531015,-0.1892174806065857,-0.7500465512275696,0.1367616206407547,-0.3524935245513916
1772649203064695000,2.916695068359375,-1.316356739577651,0.9507157934859396,0.203846017678827,-0.6424974203109741,0.2847585678100586,-0.248087465763092
1772649203074667300,2.926667236328125,-1.6010335129022597,1.3334823541626333,0.5879841589696705,-0.4786683619022369,0.4327931702136993,-0.0928025841712951
1772649203084638200,2.93663818359375,-1.7334814969301222,1.6618416173472998,0.7659884639054536,-0.2881932258605957,0.5168148875236511,0.1041560173034668
1772649203094610200,2.946610107421875,-1.617116632696986,1.8384493533581492,0.8769819372985511,-0.1075281053781509,0.4807644188404083,0.3417653739452362
1772649203104582100,2.95658203125,-1.386077926057577,1.8360361547365784,0.8928124705716967,0.033829815685749,0.3223095238208771,0.6134224534034729
1772649203114553000,2.966552978515625,-1.123233045312762,1.7021809342592953,0.7393933024466037,0.1043044030666351,0.1020988002419471,0.8926260471343994
1772649203124525000,2.976525146484375,-0.910958660376072,1.529331089477241,0.4409437320962548,0.1145796775817871,-0.112630546092987,1.1253583431243896
1772649203134497300,2.986497314453125,-0.6577028612315654,1.3705585776254534,-0.008864274457097,0.0758702531456947,-0.2901012599468231,1.261092185974121
1772649203144468000,2.996468017578125,-0.3075093673795461,1.24656102655679,-0.4123643380176275,0.0174543503671884,-0.4073322713375091,1.2778993844985962
1772649203154440200,3.006440185546875,0.0788309601306915,1.138630813191831,-0.807707106346637,-0.0658707842230796,-0.4748327136039734,1.162242770195007
1772649203164412000,3.016411865234375,0.4729086038947105,1.0414636936426165,-1.2307868265807629,-0.1757280379533767,-0.5291659832000732,0.9271997213363647
1772649203174384000,3.026384033203125,0.7403869896590709,0.9418968194752932,-1.710359856800735,-0.3135122656822204,-0.5332896113395691,0.6165989637374878
1772649203184355000,3.03635498046875,0.7250467971861362,0.830479640777409,-2.0727058530002838,-0.4549524784088135,-0.4822416007518768,0.2980529367923736
1772649203194327000,3.0463271484375,0.4655044651180505,0.8269003209859133,-2.197232396379113,-0.5681074261665344,-0.3797813355922699,0.0415246784687042
1772649203204299300,3.05629931640625,0.0606803864121437,0.9704720488354563,-2.1125679077893493,-0.6389861106872559,-0.2625332474708557,-0.1197430342435836
1772649203214270200,3.066270263671875,-0.336128143620491,1.2300813086599112,-1.8986092230275275,-0.6862888336181641,-0.1494853496551513,-0.1935915052890777
1772649203224242200,3.0762421875,-0.6009194822579622,1.4413304422020912,-1.714977579729259,-0.7199376225471497,-0.0271370746195316,-0.2076154500246048
1772649203234214100,3.086214111328125,-0.7928162650763988,1.5263050196543335,-1.6671636891528965,-0.7368614673614502,0.0947832316160202,-0.1492964774370193
1772649203244185000,3.09618505859375,-0.842398918890953,1.6259750619351865,-1.5744645087979734,-0.7418887615203857,0.2106107771396637,-0.0516080036759376
1772649203254157000,3.106156982421875,-0.7206079379558563,1.7349474778294562,-1.427390325785428,-0.7243353724479675,0.3132656216621399,0.0626548379659652
1772649203264129300,3.11612939453125,-0.3902180457264185,1.7572805979296564,-1.204083236311376,-0.694874107837677,0.3815629184246063,0.159113734960556
1772649203274100000,3.126099853515625,0.1226239246279001,1.7180872361823916,-0.9649930329024792,-0.6464308500289917,0.4086949229240417,0.2173028141260147
1772649203284072200,3.136072265625,0.762379041236639,1.6962945065692066,-0.682030662280321,-0.5678084492683411,0.3898833990097046,0.2354543954133987
1772649203294044000,3.1460439453125,1.3330512692689895,1.6165248042836784,-0.3984020828343927,-0.4693567752838135,0.3318143188953399,0.2281377166509628
1772649203304015000,3.15601513671875,1.84078042665422,1.4923381603837012,-0.1756931053839623,-0.3544363379478454,0.2395315319299698,0.2191034704446792
1772649203313987000,3.165987060546875,2.241822648733854,1.3620409246489404,0.0045462651275098,-0.2420341372489929,0.1126225367188453,0.2074033617973327
1772649203323959000,3.175958984375,2.472553896859288,1.1989885435208678,0.1051655709572136,-0.1294932216405868,-0.0296714901924133,0.2069034874439239
1772649203333931300,3.18593115234375,2.616931388133764,1.045052658045292,0.0948696562618017,-0.0340477786958217,-0.1533276140689849,0.2024254500865936
1772649203343902200,3.195902099609375,2.661266204422712,0.860948428799212,0.0307740545786917,0.0284965615719556,-0.2515873610973358,0.1856043934822082
1772649203353874200,3.205874267578125,2.6203829898923634,0.6445663162827492,-0.198904615753889,0.051289040595293,-0.2900861501693725,0.1592893153429031
1772649203363846100,3.21584619140625,2.4513234773039816,0.3956695891305804,-0.5166375632449984,0.0437826551496982,-0.2805493772029876,0.1197080835700035
1772649203373817000,3.225817138671875,2.336130579459667,0.2209130339443683,-0.7830788610465824,0.0116089340299367,-0.2395181208848953,0.073876678943634
1772649203383789000,3.2357890625,2.310878064781427,0.151777830658853,-0.9234450708530842,-0.0226584915071725,-0.1928249150514602,0.0058544836938381
1772649203393761300,3.24576123046875,2.375987958073616,0.1086307628497481,-1.0004781877815725,-0.0547306574881076,-0.1432398855686187,-0.0728631466627121
1772649203403732000,3.25573193359375,2.433043139725924,0.0566509847655892,-0.9604290859878064,-0.079689010977745,-0.111932560801506,-0.1492359489202499
1772649203413704200,3.2657041015625,2.4890268927544352,-0.020695874287188,-0.7971510794103145,-0.0949067845940589,-0.1350062787532806,-0.2309055924415588
1772649203423676000,3.275676025390625,2.5273984167248007,-0.0856444395378231,-0.541284513245523,-0.1018480435013771,-0.1959750950336456,-0.3215002119541168
1772649203433647000,3.285647216796875,2.4791326907277105,-0.1804956833600997,-0.2938869386099279,-0.0951736941933631,-0.2617181539535522,-0.4252142012119293
1772649203443619000,3.295619140625,2.260557744342089,-0.2592149998098612,-0.1451537363439798,-0.0774793848395347,-0.3025247156620025,-0.5136708617210388
1772649203453591000,3.305591064453125,1.852965954488516,-0.2829007035627961,-0.1083935930930077,-0.0554850101470947,-0.2900691330432892,-0.5741084218025208
1772649203463562000,3.31556201171875,1.4257231232255696,-0.3482549270048737,-0.0880257817164063,-0.0398410707712173,-0.2454526722431183,-0.6282371282577515
1772649203473534500,3.325534423828125,1.1143109031885865,-0.4747524781957268,-0.0918494316577911,-0.0296322293579578,-0.2065208554267883,-0.6802495121955872
1772649203483506400,3.33550634765625,0.8334908052921295,-0.6940405412867665,-0.1439301858983933,-0.0261354986578226,-0.1651393324136734,-0.7343001961708069
1772649203493478700,3.345478759765625,0.5863865145146846,-0.8954635696023702,-0.1274769906822592,-0.029430067166686,-0.1388478428125381,-0.7880311608314514
1772649203503449300,3.355449462890625,0.330357743525505,-1.0215724137365818,-0.1409186560574919,-0.0413490459322929,-0.0811038538813591,-0.8312779664993286
1772649203513421600,3.365421630859375,-0.0090162501484155,-1.1467451460644602,-0.0973876304320991,-0.0512626618146896,0.003051767591387,-0.8508375287055969
1772649203523393300,3.375393310546875,-0.4153215073227882,-1.2710492788642644,-0.1117269022341817,-0.0643555596470832,0.0728777199983596,-0.8248932957649231
1772649203533364500,3.385364501953125,-0.8338111232876777,-1.3644517851829527,-0.0740450410284102,-0.0603113286197185,0.1262681186199188,-0.7406226396560669
1772649203543336400,3.39533642578125,-1.203698913168907,-1.3424880829170345,0.07683350270316,-0.0328821018338203,0.1597983837127685,-0.5917133092880249
1772649203553308400,3.405308349609375,-1.420318049311638,-1.2831509278073907,0.3007357815913856,0.0073312539607286,0.1602158993482589,-0.4258435070514679
1772649203563279400,3.415279296875,-1.396984519997239,-1.2696639619857073,0.5849034363500774,0.065495491027832,0.105575293302536,-0.2683593332767486
1772649203573251600,3.42525146484375,-1.2263631649196147,-1.3311527421712874,0.8628774971656501,0.1318895369768142,0.0165924951434135,-0.1151680797338485
1772649203583223600,3.4352236328125,-1.015579895323515,-1.4125439081788065,1.1247015104301272,0.201152503490448,-0.0907257050275802,0.0216318499296903
1772649203593194500,3.445194580078125,-0.7639186718940735,-1.4724413275197148,1.2399927540823816,0.252535879611969,-0.201530709862709,0.1170350685715675
1772649203603166500,3.45516650390625,-0.5300350972175598,-1.5047975367233155,1.2514791937366128,0.2889117300510406,-0.2705521285533905,0.1553062945604324
1772649203613138400,3.465138427734375,-0.3779828335314988,-1.5480714457824825,1.1529740305166691,0.3151236176490783,-0.27676922082901,0.1372272968292236
1772649203623109600,3.475109619140625,-0.4136778317689895,-1.591105408605933,0.9039911594510078,0.3171436190605163,-0.2229107916355133,0.0848149582743644
1772649203633081300,3.485081298828125,-0.5365624531596899,-1.620266913421452,0.4958709618091583,0.2962725758552551,-0.1192115843296051,0.0204747822135686
1772649203643053600,3.495053466796875,-0.6803209357529878,-1.6476327669918536,0.1845927434153854,0.2565190494060516,-0.0193158760666847,-0.0404892340302467
1772649203653025300,3.505025390625,-0.7808113545060157,-1.5778671568483114,0.0941892727822065,0.2202029675245285,0.0385165028274059,-0.078775979578495
1772649203662996500,3.51499658203125,-0.945975613221526,-1.452929110059142,0.2874233686190098,0.2178692370653152,0.0670991390943527,-0.0543691702187061
1772649203672968400,3.524968505859375,-1.2627473144650458,-1.333224287748337,0.6072808339834213,0.2444965094327926,0.1138428822159767,0.0152043094858527
1772649203682940400,3.5349404296875,-1.5222130741655826,-1.1522165632128716,0.9807583189196885,0.2912496626377105,0.1511942446231842,0.1066261008381843
1772649203692911400,3.544911376953125,-1.646208871668577,-1.021914943563938,1.3850479984879494,0.3500458896160126,0.1214828044176101,0.1786137968301773
1772649203702883600,3.554883544921875,-1.4748779070168734,-0.9737003632321952,1.814163053363561,0.4110440015792846,0.0233309417963027,0.1930723637342453
1772649203712855600,3.56485546875,-1.1641817262947558,-1.047447151966393,2.220757648873329,0.4789853096008301,-0.0935790464282035,0.1387248486280441
1772649203722826500,3.574826416015625,-0.8780407256364822,-1.1513272131577132,2.507298754765093,0.551011323928833,-0.179704338312149,0.0357257574796676
1772649203732798500,3.584798583984375,-0.7860323040246963,-1.1914938038513063,2.6280823122233152,0.6236545443534851,-0.2240940332412719,-0.0305532813072204
1772649203742770400,3.5947705078125,-0.9090835141539572,-1.0594134840920566,2.4751214092597364,0.6868076920509338,-0.2278224527835846,-0.0196977034211158
1772649203752741600,3.60474169921875,-1.1743541607409715,-0.8068608647808432,2.056597452633828,0.7356495261192322,-0.2191987186670303,0.0747693330049514
1772649203762713300,3.61471337890625,-1.464745804581046,-0.5153042688146233,1.493386500392854,0.7541071176528931,-0.2377385795116424,0.2649669647216797
1772649203772685600,3.624685546875,-1.489078281804919,-0.1472667829751968,0.8936685759443789,0.7450361251831055,-0.3182080090045929,0.4884098172187805
1772649203782657300,3.6346572265625,-1.1103916839182375,0.2593444714084267,0.4608879112333059,0.6959823369979858,-0.4755060374736786,0.6129781007766724
1772649203792628500,3.64462841796875,-0.3949234469383955,0.4958537184134125,0.0507530858334153,0.6306588053703308,-0.6479931473731995,0.5407031774520874
1772649203802600400,3.654600341796875,0.2898416087418794,0.5040267957359552,-0.324592859855853,0.5559741854667664,-0.7538934946060181,0.2691451907157898
1772649203812572400,3.664572509765625,0.5117711262524127,0.3968304496034979,-0.5493730175571516,0.499134361743927,-0.724800169467926,-0.1248514354228973
1772649203822543400,3.67454345703125,0.0507891069948673,0.4037161174640059,-0.6127663161898032,0.4914258122444153,-0.5270804166793823,-0.5019207000732422
1772649203832515600,3.684515625,-0.9053910893768072,0.6742819478496909,-0.6667188191190362,0.5049329996109009,-0.1847716569900512,-0.7593735456466675
1772649203842487600,3.694487548828125,-2.107644479912519,1.1518901077374817,-0.8219476670145988,0.5410792827606201,0.2394944131374359,-0.8390968441963196
1772649203852458500,3.70445849609375,-3.332190950798988,1.671876981410384,-0.92044786179848,0.6110761165618896,0.6816692352294922,-0.7148242592811584
1772649203862430500,3.714430419921875,-4.2092958568900825,2.116544702465832,-0.8089530147545039,0.7138512134552002,1.0579677820205688,-0.3899047076702118
1772649203872402400,3.72440234375,-4.602565691402554,2.436820612438023,-0.4033663176456466,0.8433972597122192,1.3155046701431274,0.0841821879148483
1772649203882373600,3.73437353515625,-4.335930186203122,2.639018132257461,0.088064140965417,0.978728175163269,1.4307996034622192,0.5902136564254761
1772649203892345300,3.744345458984375,-3.324319194510579,2.70346605450958,0.4204961334817111,1.093790888786316,1.3270357847213743,1.0295275449752808
1772649203902317600,3.754317626953125,-1.9502040934473277,2.638802151419222,0.7546782576009631,1.2009605169296265,1.0515376329421997,1.3664010763168335
1772649203912288500,3.76428857421875,-0.5050479554772377,2.4632582452476024,0.9987377738550304,1.265008807182312,0.7108534574508667,1.5990548133850098
1772649203922260500,3.774260498046875,0.7122714867651462,2.18882697160542,0.9976258670903742,1.264644742012024,0.3790763318538666,1.7256689071655271
1772649203932232400,3.784232421875,1.5700784026682375,1.8632687373161316,0.785013993827626,1.1857963800430298,0.1189367696642875,1.712620496749878
1772649203942204400,3.794204345703125,2.1735592598468063,1.514028598666191,0.4199698445852846,1.044186234474182,-0.0142625644803047,1.561761736869812
1772649203952175400,3.80417529296875,2.5978543472200637,1.1626993787825106,0.2190348189823329,0.904101312160492,-0.0971657633781433,1.3072901964187622
1772649203962147600,3.814147705078125,2.8435967019945383,0.9118485949531197,0.1479054462049156,0.7734820246696472,-0.2054757326841354,0.951573610305786
1772649203972119600,3.82411962890625,3.055376581412553,0.751556326188147,-0.1597002211559564,0.6365628242492676,-0.262599766254425,0.5138280391693115
1772649203982090500,3.834090576171875,3.0597558194100856,0.6998761155724526,-0.2485721348403021,0.514505922794342,-0.2575125992298126,0.0247417446225881
1772649203992062500,3.8440625,2.8161189124822616,0.7184238719150423,-0.2675882758796215,0.438662976026535,-0.2218862473964691,-0.4237257838249206
1772649204002034400,3.854034423828125,2.125007118123769,0.8039341636791825,-0.2578194903308525,0.3926481008529663,-0.1541274487972259,-0.7620084881782532
1772649204012005600,3.864005615234375,1.2475474072456358,0.9989248208597302,-0.3260099235795438,0.3291474878787994,-0.0682672709226608,-0.9707823395729064
1772649204021977300,3.873977294921875,0.2905482957065105,1.1878414188235995,-0.4977815446708351,0.2503259181976318,-0.0051745851524174,-1.046001672744751
1772649204031949600,3.883949462890625,-0.6112970838874578,1.3461889832615852,-0.7314686469271778,0.1768809556961059,0.044095005840063,-0.98368102312088
1772649204041920500,3.89392041015625,-1.3643763818591832,1.483106806179881,-0.8256071393702179,0.1265948712825775,0.101325012743473,-0.7967385649681091
1772649204051892500,3.903892578125,-1.8452566952854397,1.624880836957693,-0.7532046779170631,0.0886993780732154,0.1737673431634903,-0.5480765104293823
1772649204061864700,3.91386474609375,-2.0257570548206565,1.6723220948293804,-0.6306890359692275,0.0665764957666397,0.2327510267496109,-0.2883391976356506
1772649204071835400,3.92383544921875,-1.7763012324810028,1.6834186583831905,-0.4945769764758646,0.0694844126701355,0.2399965822696685,-0.067506618797779
1772649204081807600,3.9338076171875,-1.1848434060513973,1.6626333522468804,-0.2725160511380061,0.0882186889648437,0.2141487449407577,0.0885258540511131
1772649204091779600,3.943779541015625,-0.42490415918231,1.5636419398799537,-0.1230486893786117,0.0954556912183761,0.2030845135450363,0.1620733141899109
1772649204101750500,3.95375048828125,0.2596118901729584,1.3326777597814798,-0.1182378184981644,0.0802540928125381,0.2376872301101684,0.177718311548233
1772649204111722500,3.963722412109375,0.6954150445103645,1.118055934935808,-0.2832263553205877,0.0697557851672172,0.2782179117202759,0.1743473559617996
1772649204121694500,3.973694580078125,1.0082365468233825,1.0138979335859415,-0.3390629549633711,0.0654182955622673,0.3143649995326996,0.1771210432052612
1772649204131666400,3.98366650390625,1.328507196098566,0.9094576081633567,-0.3399973132040351,0.0516492389142513,0.3156786561012268,0.1803938746452331
1772649204141637600,3.9936376953125,1.6439777516156433,0.7401978968277573,-0.2929179474472999,0.0317053571343421,0.2514402568340301,0.1781807839870453
1772649204151609300,4.003609375,1.9198048635303973,0.5598810771659016,-0.2245041172388941,0.012193065136671,0.143133133649826,0.1709731072187423
1772649204161581600,4.01358154296875,2.127846140941977,0.3782289172470569,-0.1509980784580111,-0.0078986203297972,0.0196069460362195,0.1428101807832718
1772649204171552500,4.023552490234375,2.2487504021704194,0.198483175471425,-0.0730429513137787,-0.0315458364784717,-0.0889071077108383,0.0920220166444778
1772649204181524500,4.0335244140625,2.265864618578553,0.0260234990507364,-0.0199252552408725,-0.0491003319621086,-0.1617485582828521,0.0311384256929159
1772649204191496700,4.04349658203125,2.1608587682276963,-0.146016782914102,-0.0322473420016467,-0.063956581056118,-0.1904348731040954,-0.0375796593725681
1772649204201467400,4.05346728515625,1.944065444561839,-0.2886374936491251,-0.1208164368145167,-0.0949552431702613,-0.1919102668762207,-0.120112620294094
1772649204211439600,4.063439697265625,1.7334803278863429,-0.4265367288202047,-0.1708557118227705,-0.1221178695559501,-0.164885401725769,-0.1942448168992996
1772649204221411600,4.07341162109375,1.391281339919567,-0.5247086414977907,-0.1779485196279361,-0.1280109137296676,-0.1046809181571006,-0.2346034198999405
1772649204231382500,4.083382568359375,1.0245283409327268,-0.5656324802994728,-0.1779663110129535,-0.1312578320503235,-0.0409697890281677,-0.2529412806034088
1772649204241354500,4.0933544921875,0.7552215706974268,-0.5961775484278797,-0.1077492673074826,-0.1227524876594543,-0.0150724137201905,-0.2502189874649048
1772649204251326500,4.103326416015625,0.5704945333778858,-0.6585840279802679,-0.0350002939715981,-0.1050582230091095,-0.0140178110450506,-0.2244218587875366
1772649204261297400,4.11329736328125,0.4401069890111684,-0.7235968906387686,0.0365319239856675,-0.0821707472205162,-0.0266593042761087,-0.1843764334917068
1772649204271269600,4.12326953125,0.3509077796012163,-0.7916022131115198,0.0665838748348876,-0.0638650357723236,-0.0670814663171768,-0.1317280679941177
1772649204281241300,4.133241455078125,0.2763064198642969,-0.8665417187616229,0.0979717504629865,-0.0524006597697734,-0.1040067225694656,-0.0586551874876022
1772649204291213600,4.143213623046875,0.1898679073393344,-0.9242974498987198,0.1324696844030171,-0.0615538619458675,-0.1403651535511016,0.0075554111972451
1772649204301184500,4.1531845703125,0.1256388885349035,-1.0106307484835386,0.1770523745058104,-0.0758821964263916,-0.1845501810312271,0.0622993484139442
1772649204311156500,4.163156494140625,0.0702116003453731,-1.063109416000545,0.2319124572666361,-0.0852343291044235,-0.2201729863882064,0.1118735820055008
1772649204321128700,4.173128662109375,0.0020166005194187,-1.0517919031724332,0.2324141597110778,-0.0919082090258598,-0.2476757168769836,0.1526444554328918
1772649204331099400,4.183099365234375,-0.0295651171803474,-1.0102478866457938,0.192496502277255,-0.1025282070040702,-0.270418643951416,0.167139396071434
1772649204341071600,4.193071533203125,-0.0326513927578926,-0.9656181790634988,0.1017096583496779,-0.1132434383034706,-0.2990095615386963,0.1482453346252441
1772649204351043600,4.203043701171875,-0.0434580334544181,-0.924196327611804,0.0160049765245988,-0.1206970587372779,-0.3250758051872253,0.1008253172039985
1772649204361014500,4.2130146484375,-0.0828325969874858,-0.9212409849375486,0.0072220602080225,-0.1314317435026168,-0.3568023145198822,0.0292667094618082
1772649204370986500,4.222986572265625,-0.3159364194631576,-0.9348501158341764,-0.0207588565208017,-0.1307076215744018,-0.3554496765136719,-0.0182052012532949
1772649204380958500,4.23295849609375,-0.7842758157461881,-0.8869532231494783,-0.0558979013759642,-0.1254950165748596,-0.3131515085697174,-0.0020762989297509
1772649204390929400,4.242929443359375,-1.298980072841048,-0.7257175360545516,-0.0813644606636837,-0.1238536536693573,-0.2691756188869476,0.0706385746598243
1772649204400901600,4.252901611328125,-1.7117016267985103,-0.5219774629682302,-0.1219306451341137,-0.1236219629645347,-0.2293107658624649,0.1986095905303955
1772649204410873300,4.262873291015625,-1.983379802340269,-0.3409180082455277,-0.0962064212908968,-0.1179789900779724,-0.2034155130386352,0.3525304496288299
1772649204420844500,4.272844482421875,-1.9665502480924129,-0.2095721402406692,0.1725762885376811,-0.0994226112961769,-0.2391996085643768,0.5106963515281677
1772649204430816500,4.28281640625,-1.6447054813683033,-0.0533309004321694,0.5709362857960164,-0.0647269561886787,-0.3444368839263916,0.6132639050483704
1772649204440788500,4.29278857421875,-1.1821727255374193,0.0769561061695218,0.956402168559283,-0.0091451909393072,-0.4924079775810241,0.6582154035568237
1772649204450760700,4.3027607421875,-0.7689297780543566,0.1414504979118704,1.1243765893246978,0.0223693363368511,-0.627314031124115,0.617143988609314
1772649204460731400,4.3127314453125,-0.5195633875638246,0.0748316613614559,1.0916313077382742,0.0192811340093612,-0.7459871768951416,0.4881604313850403
1772649204470703600,4.32270361328125,-0.3158376352638006,-0.0082309449896216,0.9035756374526768,-0.0164555013179779,-0.8278379440307617,0.3022885024547577
1772649204480676000,4.332676025390625,-0.3385819665133953,-0.0663259910836815,0.5835914769686759,-0.0682688951492309,-0.8637251257896423,0.0896776989102363
1772649204490647000,4.34264697265625,-0.5577969643682241,-0.0423097402021288,0.1407759139853995,-0.1312614232301712,-0.8734309077262878,-0.1173208579421043
1772649204500619300,4.352619384765625,-0.9568231704503296,0.0837207779988646,-0.3353068903654813,-0.2226065099239349,-0.8562766909599304,-0.3048486709594726
1772649204510591000,4.362591064453125,-1.3862433457523584,0.2400622633114457,-0.7867122491128742,-0.3336057662963867,-0.7797277569770813,-0.4626460671424866
1772649204520562200,4.372562255859375,-1.8528543108075857,0.3444672251597047,-1.0650153957523405,-0.4436832666397095,-0.6209349036216736,-0.5576010942459106
1772649204530534100,4.3825341796875,-2.3700638287216425,0.453502184896171,-1.1693518224090338,-0.5428653359413147,-0.3520639836788177,-0.546238362789154
1772649204540506000,4.392506103515625,-2.8588515542715784,0.7025377359971403,-1.1328460192453116,-0.6141486167907715,-0.025010485202074,-0.4291306436061859
1772649204550477000,4.40247705078125,-3.061457362630964,1.0838801090896129,-0.912629516197741,-0.6275483965873718,0.2627852261066437,-0.2349554598331451
1772649204560449000,4.412448974609375,-2.836869439566135,1.4525330964788794,-0.3784497569235041,-0.5725900530815125,0.434952974319458,-0.0003125983057543
1772649204570421000,4.4224208984375,-2.263804763439297,1.7387477468952537,0.2359269170723855,-0.476907730102539,0.5194563865661621,0.2325432449579239
1772649204580392200,4.43239208984375,-1.4965782821714877,1.8499004294380543,0.7288519616227597,-0.3866119384765625,0.5214720964431763,0.4156840443611145
1772649204590364000,4.442364013671875,-0.6084884562075138,1.798488806630671,1.0604187156118452,-0.2866756021976471,0.4402893781661987,0.527743399143219
1772649204600336100,4.452336181640625,0.2523229022085666,1.7136901702672245,1.2365651177212595,-0.1916127353906631,0.2995660603046417,0.5500681400299072
1772649204610307000,4.46230712890625,0.9157821350097656,1.5149942288279532,1.2649807726055382,-0.1315494924783706,0.125084787607193,0.5072357654571533
1772649204620279000,4.472279052734375,1.2840133898556232,1.216209435173869,1.2307104003436862,-0.1007332652807235,-0.0581537447869777,0.4258069396018982
1772649204630251300,4.482251220703125,1.347383161482215,0.9549266891792416,1.1102887350004165,-0.0739393830299377,-0.2205971181392669,0.3489642441272735
1772649204640223000,4.492222900390625,1.116468373483419,0.8379384323507547,0.8985815554924309,-0.0503523014485836,-0.3091285824775696,0.2844409048557281
1772649204650194200,4.502194091796875,0.7561690806806087,0.823635181710124,0.4648923976343125,-0.0654249638319015,-0.3187176287174225,0.2016477137804031
1772649204660166100,4.512166259765625,0.5616349350959062,0.7206859716281294,-0.1496559431340545,-0.1329779177904129,-0.3059576153755188,0.06971126049757
1772649204670138000,4.52213818359375,0.5379197129875422,0.5098810747221112,-0.6921336847521364,-0.2444982081651687,-0.3117720782756805,-0.0983720496296882
1772649204680109000,4.532109130859375,0.5157102192670107,0.2700049816325306,-1.160715365358442,-0.3805684149265289,-0.3349032402038574,-0.2862333059310913
1772649204690081000,4.5420810546875,0.436808531987667,0.1486845408186316,-1.5522538460336626,-0.5133855938911438,-0.3165417909622192,-0.4538627862930298
1772649204700053000,4.552052978515625,0.2521037064999342,0.2249146708011627,-1.6329484080791472,-0.6103087067604065,-0.2294407188892364,-0.5656910538673401
1772649204710024200,4.562024169921875,0.0322989260584115,0.4555456734225153,-1.3567740901619194,-0.6444109678268433,-0.1076093986630439,-0.621947705745697
1772649204719996000,4.571995849609375,-0.1053179850399494,0.6336050695464015,-0.8927103984367102,-0.6310355067253113,0.0228290390223264,-0.6241227388381958
1772649204729968000,4.581968017578125,-0.1403489664107561,0.7714207180872559,-0.4375187626162544,-0.5829289555549622,0.1306839287281036,-0.5736290216445923
1772649204739939000,4.59193896484375,-0.0705862788766622,0.8657073137640953,-0.1102629123625345,-0.5309680104255676,0.217851847410202,-0.4916616976261139
1772649204749911000,4.6019111328125,0.0106131639510393,0.8623159177601337,0.0710275929033756,-0.4835332632064819,0.2638775706291199,-0.3847341537475586
1772649204759883300,4.61188330078125,0.105893154579401,0.7795113778233528,0.0916006079958751,-0.4345017969608307,0.2688164114952087,-0.2586806118488312
1772649204769854000,4.62185400390625,0.228974175325036,0.7237418520674109,0.1675315358361229,-0.3805189132690429,0.2429399341344833,-0.1210821196436882
1772649204779826200,4.631826171875,0.4696171611338853,0.6750695910960436,0.2166681811825372,-0.3297334909439087,0.184590071439743,-0.0054892119951546
1772649204789798100,4.641798095703125,0.756119980841875,0.5710813933551311,0.2351430366856977,-0.2924469113349914,0.1156366616487503,0.0749923959374427
1772649204799769000,4.65176904296875,0.9605722938507796,0.3774564715698361,0.2311269329121336,-0.2460360080003738,0.0756450369954109,0.1435666680335998
1772649204809741000,4.661740966796875,1.091875199496746,0.2503855044052004,0.1946635441180318,-0.1982258111238479,0.0709392949938774,0.1877301335334777
1772649204819713000,4.671713134765625,1.2959902433753012,0.1726899780452251,0.1291798856100067,-0.1518902629613876,0.0496667698025703,0.1953286677598953
1772649204829685000,4.68168505859375,1.516169117826223,0.0748167560532689,0.1336194754926487,-0.107475645840168,0.0062253423966467,0.1793985813856125
1772649204839656200,4.69165625,1.6407786633133887,-0.0764262370765209,0.0800230925247073,-0.079026959836483,-0.024977583438158,0.1510231345891952
1772649204849628000,4.7016279296875,1.6735422842741012,-0.255778011098504,-0.0506798744667321,-0.0660706385970115,-0.0359672717750072,0.1105849370360374
1772649204859600100,4.71160009765625,1.6259785690665245,-0.375834131065011,-0.2012823412032797,-0.0671785101294517,-0.0416829474270343,0.0671740844845771
1772649204869571000,4.721571044921875,1.567861895662546,-0.4909796826362609,-0.3237535960201174,-0.0778419375419616,-0.0667919963598251,0.0216737762093544
1772649204879543000,4.73154296875,1.4836936661571265,-0.5861050672248006,-0.360061684654653,-0.1011115685105323,-0.0939876660704612,-0.0440900549292564
1772649204889515300,4.741515380859375,1.3910101217627524,-0.6764131146594882,-0.4526961657429114,-0.1307572424411773,-0.1040913611650466,-0.1166349798440933
1772649204899486000,4.75148583984375,1.2721592859327793,-0.7827703796193003,-0.5376057516675442,-0.1592538505792617,-0.1110667139291763,-0.2022684067487716
1772649204909458200,4.761458251953125,1.1638228298544884,-0.8282771622970699,-0.5615156560977921,-0.1890275925397873,-0.115039587020874,-0.2878159880638122
1772649204919430100,4.77143017578125,1.039766826596856,-0.8438532093524932,-0.5244397248959168,-0.2234875708818435,-0.0953902527689933,-0.3717170059680938
1772649204929401000,4.781401123046875,0.840628986608982,-0.9037684566110372,-0.5032860603712499,-0.2644387185573578,-0.0460803285241127,-0.4449245631694793
1772649204939373000,4.791373046875,0.453554499605298,-0.9487219893202186,-0.5539473397353664,-0.2927938997745514,0.0387208461761474,-0.4708826541900635
1772649204949345000,4.801344970703125,-0.0218131878793239,-0.8552356041103601,-0.5076819207100197,-0.2961891293525696,0.1298011243343353,-0.4376440942287445
1772649204959316000,4.81131591796875,-0.4746919801801443,-0.6909738471925259,-0.3408715752879157,-0.2744249701499939,0.1958168894052505,-0.3412464559078216
1772649204969288200,4.8212880859375,-0.8000012081444263,-0.5797410851508379,-0.1515360577922314,-0.2377057075500488,0.2361347824335098,-0.1965552270412445
1772649204979260000,4.831260009765625,-0.9485393262296916,-0.5141860784396529,0.019811419602856,-0.1897704154253006,0.2388477474451065,-0.039705965667963
1772649204989232000,4.841232177734375,-0.8114987537145614,-0.5057923441037535,0.2241958550073206,-0.1341788917779922,0.2054548114538192,0.0837295725941658
1772649204999203000,4.851203125,-0.4517307913094758,-0.5673468830019235,0.3638669952217489,-0.0863535851240158,0.1372334212064743,0.1608379483222961
1772649205009175000,4.861175048828125,-0.046446109354496,-0.6555027208387851,0.4470668180864304,-0.0409498810768127,0.0672860369086265,0.2071668207645416
1772649205019147300,4.871147216796875,0.2454460021764039,-0.7412097042188048,0.4054598923914134,-0.0116540435701608,0.0386266931891441,0.2244744449853897
1772649205029118000,4.881117919921875,0.4419663531422614,-0.8027315098911524,0.3010295038409531,-0.0076243868097662,0.0462563335895538,0.2156558781862259
1772649205039090200,4.891090087890625,0.5313000025868415,-0.9014490737527608,0.1450032219573855,-0.0268510784953832,0.0820526778697967,0.1885566115379333
1772649205049062000,4.901061767578125,0.4974485863894224,-1.030464160722494,0.0292386251723393,-0.0416416153311729,0.1475096940994262,0.154585525393486
1772649205059033000,4.911033203125,0.4646539857685565,-1.0614894135832786,0.0793033268827945,-0.0450925417244434,0.2104415148496627,0.1195915937423706
1772649205069005000,4.921005126953125,0.4887152448356151,-1.0302037562206388,0.1752819307671859,-0.029938481748104,0.2388356328010559,0.0790567547082901
1772649205078977000,4.93097705078125,0.5059457810997963,-0.9870905906811356,0.3419356973880901,-0.0043039573356509,0.2321401834487915,0.0507465489208698
1772649205088948000,4.940947998046875,0.4348632431387901,-0.9793062204152344,0.5318280450489372,0.0288932286202907,0.212171658873558,0.042454682290554
1772649205098920200,4.950920166015625,0.2707610606968402,-0.9654510058030484,0.6468280506696552,0.0500022396445274,0.1871203631162643,0.0436403229832649
1772649205108892000,4.960891845703125,0.1098433535099029,-0.8863727929130196,0.7165035713769495,0.0848468467593193,0.1653714627027511,0.0526082552969455
1772649205118863000,4.970863037109375,-0.081360770869255,-0.7553308762907981,0.8622014245349914,0.150891900062561,0.1563097834587097,0.0831086486577987
1772649205128835000,4.9808349609375,-0.3103559889823198,-0.6250783564805984,1.0394127524621783,0.2336250096559524,0.1762129515409469,0.1219719499349594
1772649205138807000,4.99080712890625,-0.4678939906030893,-0.5079354936122894,1.1418461219765246,0.3213569819927215,0.2122143656015396,0.163301020860672
1772649205148778000,5.000778076171875,-0.5008721310973168,-0.4283715430319309,1.1867861376170068,0.4023044407367706,0.2540765702724457,0.192847654223442
1772649205158750000,5.01075,-0.4378068953752517,-0.4563236720576882,1.1585147865742444,0.469632089138031,0.295263409614563,0.2153156846761703
1772649205168722200,5.02072216796875,-0.3737964877575636,-0.6414163278192281,1.1145678736243396,0.531779408454895,0.3350251913070678,0.2465877085924148
1772649205178694000,5.03069384765625,-0.3065805620968341,-0.7880649788960814,1.161875349048525,0.5989624261856079,0.3284589052200317,0.2977222800254822
1772649205188665000,5.0406650390625,-0.1872451576203107,-0.8650389129832387,1.36827075894922,0.6712377071380615,0.2680745124816894,0.3500294387340545
1772649205198637000,5.050636962890625,0.0593020837962627,-0.909222045841813,1.617493357054889,0.7416471242904663,0.1590178161859512,0.3440000414848327
1772649205208609000,5.060609130859375,0.4119914861172437,-1.0159811696007848,1.7130980495929715,0.7852359414100647,0.0369038358330726,0.2429358661174774
1772649205218580000,5.070580078125,0.6749760675936937,-1.1948133036628366,1.6085460804894565,0.8021885752677917,-0.0717595294117927,0.0881462842226028
1772649205228552200,5.08055224609375,0.6901151845365763,-1.2650833561971784,1.2378320689171551,0.7890949845314026,-0.1373611241579055,-0.052940621972084
1772649205238524200,5.090524169921875,0.4071966530561446,-1.224424598072469,0.711538788576424,0.7464995980262756,-0.150246575474739,-0.1083647310733795
1772649205248495000,5.1004951171875,-0.1389443603098392,-0.9623454410031436,0.1765493934197351,0.6738040447235107,-0.1691073626279831,-0.0668778494000434
1772649205258467000,5.110467041015625,-0.60415013474226,-0.6173126909151673,-0.1467096605490893,0.5770279765129089,-0.2529425919055938,-0.0286276657134294
1772649205268439000,5.12043896484375,-0.6784060420423745,-0.3185655989229679,-0.2134192441228777,0.4857396185398102,-0.4106664061546325,-0.0843230038881301
1772649205278410200,5.13041015625,-0.6612725364118814,-0.2267635135382413,-0.0372768606014549,0.4432238638401031,-0.5146654844284058,-0.2312189787626266
1772649205288382000,5.1403818359375,-0.9880413155347108,-0.256593126873672,0.1861270220442674,0.4388816654682159,-0.4732705354690552,-0.4400516450405121
1772649205298354200,5.150354248046875,-1.5104694448798894,-0.139578858821094,0.150794591775164,0.4449174404144287,-0.3418211638927459,-0.6512645483016968
1772649205308325000,5.1603251953125,-2.1732792738616467,0.13913871383816,0.0232192918175831,0.4475172460079193,-0.1006240397691726,-0.7927330732345581
1772649205318297000,5.170297119140625,-3.05333133932054,0.4066302513450384,-0.0628120464122854,0.45777627825737,0.1965959221124649,-0.7758358716964722
1772649205328269000,5.18026904296875,-4.037944433972239,0.7019345094069838,-0.0457289009958505,0.4899967610836029,0.5239150524139404,-0.5730542540550232
1772649205338240300,5.190240234375,-4.688350123932957,1.096836036774516,0.1169739543084986,0.5460041165351868,0.7918226718902588,-0.2237252742052078
1772649205348212000,5.2002119140625,-4.734021157261729,1.4608262930497526,0.448292523956485,0.6200866103172302,0.9415624737739564,0.1912206560373306
1772649205358184200,5.21018408203125,-4.094182454022765,1.7016197932451962,0.9256488645076753,0.7137529253959656,0.9999218583106996,0.5807439088821411
1772649205368156200,5.22015625,-2.963498508182168,1.7455629798680543,1.336612468881905,0.812224268913269,0.937443196773529,0.8634061217308044
1772649205378127000,5.230127197265625,-1.5942957290798423,1.694201333682239,1.5746446876704692,0.8976129293441772,0.7285799980163574,1.0324469804763794
1772649205388099000,5.24009912109375,-0.4871054715514182,1.5352303766489028,1.61232983681187,0.9355990290641784,0.4667825996875763,1.091830849647522
1772649205398071000,5.250071044921875,0.3758399762839078,1.2920768693238496,1.5360156818076969,0.9296314120292664,0.1721046417951584,1.0715186595916748
1772649205408042200,5.260042236328125,0.9091098176389932,1.093423305721581,1.433916512683779,0.8751650452613831,-0.1224669069051742,0.9775441884994508
1772649205418014000,5.270013916015625,1.0807032326191663,0.9131304514572024,1.1438533701457083,0.7912791967391968,-0.3157367408275604,0.8333097696304321
1772649205427986200,5.279986083984375,0.982388404339552,0.812646462444961,0.7852358198847621,0.6879532933235168,-0.3590365350246429,0.6469852328300476
1772649205437957000,5.28995703125,0.6773913120418786,0.7417503869667649,0.3467607063917443,0.5745964050292969,-0.3129118978977203,0.4216234683990478
1772649205447929000,5.29992919921875,0.3652443479895591,0.7658730208322405,-0.0646784796049818,0.4487267136573791,-0.2337125092744827,0.1688069701194763
1772649205457901000,5.309901123046875,0.0900520268470048,0.8469862466812134,-0.4130194774581119,0.3020416498184204,-0.1347670257091522,-0.073406733572483
1772649205467871200,5.319871337890625,-0.2188134313166141,0.8766641765862703,-0.7446895091585815,0.135417640209198,-0.0212754290550947,-0.2801119387149811
1772649205477843000,5.329843017578125,-0.604642302173376,0.891084916126728,-1.0003490084439517,-0.03102433308959,0.0920577868819236,-0.4144284725189209
1772649205487814000,5.33981396484375,-1.0879612409234047,1.0333350399836898,-1.083594424016029,-0.1722715049982071,0.1900714784860611,-0.447160005569458
1772649205497786000,5.3497861328125,-1.4538760355204343,1.286180504761636,-0.8852392588384449,-0.2603651285171509,0.2586316168308258,-0.3883190751075744
1772649205507757800,5.3597578125,-1.5695429806172847,1.6240511081352829,-0.4673708435118198,-0.2868394553661346,0.3095483183860779,-0.2625110447406769
1772649205517729000,5.36972900390625,-1.4795400536090135,1.9449360899165271,-0.0529421568429097,-0.2556543946266174,0.3692108392715454,-0.1103846281766891
1772649205527701000,5.379700927734375,-1.205299334102869,2.154246072089672,0.2598579556222073,-0.193958967924118,0.4461550116539001,0.0378412120044231
1772649205537673000,5.3896728515625,-0.7221615971386433,2.285337965333462,0.3980328111305832,-0.1182013601064682,0.4983806908130646,0.1588967889547348
1772649205547645200,5.399645263671875,-0.0908235957413911,2.31508837595284,0.4418689206497743,-0.0585595555603504,0.5066791772842407,0.2414276599884033
1772649205557615900,5.409615966796875,0.6164654264360666,2.241868533702194,0.356156493909657,-0.0265989601612091,0.498834878206253,0.2735203802585602
1772649205567588000,5.419588134765625,1.2496984477996826,2.0914239974737168,0.1584757208622992,-0.0356783531606197,0.4951931238174438,0.2654227316379547
1772649205577560000,5.42956005859375,1.742170999342203,1.8569339813366528,-0.039963177075982,-0.0701777413487434,0.4635923206806183,0.2292594164609909
1772649205587531000,5.439531005859375,2.065297038048506,1.6474036344110965,-0.1591242113662883,-0.1035372093319892,0.4151523113250732,0.1884361654520034
1772649205597503000,5.4495029296875,2.1853765388906,1.5544076630666852,-0.1530229718817398,-0.1246872320771217,0.3890309631824493,0.1737267225980758
1772649205607475000,5.459474853515625,2.174492741304636,1.572110493017733,-0.0903054901514202,-0.1310978829860687,0.3756363987922668,0.1690343469381332
1772649205617446000,5.46944580078125,2.248179908806085,1.5769064951226115,-0.0140779174521565,-0.1330848634243011,0.341890424489975,0.1651535928249359
1772649205627418000,5.479418212890625,2.392657937845588,1.5211515824139117,0.114941115040332,-0.1316866129636764,0.2829382717609405,0.1407437324523925
1772649205637389800,5.489389892578125,2.5757366234362125,1.33125064958781,0.2322344192299991,-0.1230103150010109,0.2031459808349609,0.1080656871199607
1772649205647361000,5.499361083984375,2.701263283768296,1.1470511432737112,0.3523739796962589,-0.1216653361916542,0.1128164827823638,0.0556979738175869
1772649205657333000,5.5093330078125,2.829302219182253,0.9565551671639084,0.3980113299511373,-0.1311975866556167,0.0040362044237554,-0.019379997625947
1772649205667305000,5.519304931640625,2.8828765729814765,0.7640265161827207,0.3685748075865209,-0.1434656977653503,-0.1094377264380455,-0.0999522507190704
1772649205677276000,5.52927587890625,2.774727163907885,0.6230810451835394,0.2536539316166192,-0.1498807221651077,-0.1913456469774246,-0.1888504326343536
1772649205687248000,5.539247802734375,2.538233698993921,0.5418558833926915,0.0772539200723171,-0.1598107069730758,-0.2456461936235427,-0.2659943103790283
1772649205697220000,5.54922021484375,2.1812802094876766,0.4620969947621226,-0.0661816872421652,-0.1731289178133011,-0.2623809576034546,-0.3179741501808166
1772649205707191000,5.55919091796875,1.7289356701940295,0.3651619304031133,-0.1247269613217562,-0.1879969835281372,-0.2417519986629486,-0.3544590473175049
1772649205717163000,5.5691630859375,1.4520727854907511,0.3731719261184335,-0.1407040634587407,-0.2497937679290771,-0.3066609501838684,-0.4290496706962585
1772649205727135000,5.579135009765625,1.4233534714847802,0.601346767759323,-0.3779883134242147,-0.2607662081718445,-0.2733429670333862,-0.4709762632846832
1772649205737107000,5.58910693359375,1.0804559798598288,0.0604480389609932,0.0588031943634152,-0.1994940638542175,-0.1811832338571548,-0.4730889499187469
1772649205747078000,5.599077880859375,0.7225918052494525,-0.4439034586846828,0.3666269614543765,-0.1643583923578262,-0.1305425763130188,-0.4766958951950073
1772649205757050000,5.609050048828125,0.5348550647199154,-0.3615250352054834,0.1496490750018507,-0.1810984909534454,-0.1271039098501205,-0.4675367474555969
1772649205767021800,5.619021728515625,0.3214583977550268,-0.2065954625174403,-0.2271292781107127,-0.2069903463125229,-0.0828940048813819,-0.4063726365566253
1772649205776993000,5.628992919921875,-0.1472410640120506,-0.3747559804394841,-0.2944631310626864,-0.2447411864995956,-0.0410605370998382,-0.3059134185314178
1772649205786965000,5.638965087890625,-0.5446785395979881,-0.5385033580943942,-0.211590859651938,-0.2852948307991028,-0.0077598583884537,-0.1930267810821533
1772649205796937000,5.64893701171875,-0.7020026062071323,-0.6377469916567206,-0.027105010677129,-0.3120747804641723,0.0008749086409807,-0.1033959612250328
1772649205806908000,5.658907958984375,-0.5618453629761934,-0.7276239541977644,0.2135863443180918,-0.3167111277580261,-0.0420161671936512,-0.0639420300722122
1772649205816879900,5.6688798828125,-0.3089350162684917,-0.7901236649915575,0.5238767937835306,-0.2944875955581665,-0.1259472817182541,-0.0658917278051376
1772649205826852000,5.67885205078125,-0.1065448964864015,-0.879395062854886,0.8399998949252069,-0.2777019441127777,-0.2110374122858047,-0.1107880994677543
1772649205836823000,5.688822998046875,-0.0159130239248275,-0.9107268974468112,0.943533992223069,-0.2637496590614319,-0.2632044553756714,-0.1905678808689117
1772649205846796000,5.698796142578125,-0.1245721360862255,-0.9252750627592206,0.8975694558404386,-0.2498982846736908,-0.2733886539936065,-0.2735322713851928
1772649205856767000,5.70876708984375,-0.3652268123328686,-0.8935755638986825,0.9318862245272844,-0.2249004691839218,-0.2468385398387909,-0.3472156822681427
1772649205866739000,5.718739013671875,-0.659165919521451,-0.8266784949287772,1.028894134926796,-0.194549486041069,-0.1790980994701385,-0.3941349983215332
1772649205876711000,5.7287109375,-1.1299316661685703,-0.7475432911545038,0.9871602949164808,-0.156171441078186,-0.0516493879258632,-0.3877383768558502
1772649205886682000,5.73868212890625,-1.690687480342388,-0.6505871840074658,0.951573067902401,-0.1177353709936142,0.0883354097604751,-0.3085082769393921
1772649205896653800,5.74865380859375,-2.02946233907938,-0.5925976441144943,1.0274208475038409,-0.0834459885954856,0.1753769665956497,-0.196896806359291
1772649205906626000,5.7586259765625,-1.980622612586617,-0.5866247071847319,1.1905642679162325,-0.0409390032291412,0.1710173785686493,-0.091510996222496
1772649205916597000,5.768596923828125,-1.5899252589106558,-0.6025333471953869,1.410448835595697,0.0096828807145357,0.0758633688092231,-0.0316920131444931
1772649205926569000,5.77856884765625,-1.089561077335477,-0.7310010294154285,1.5956854298725722,0.0275729298591613,-0.0733902975916862,-0.0285497512668371
1772649205936541200,5.788541259765625,-0.6274614522248506,-0.916626184618473,1.5249959828823805,0.0200563706457614,-0.241224467754364,-0.090576559305191
1772649205946512000,5.798511962890625,-0.2002484315782785,-1.0861331487134098,1.3568886564522982,-0.0280682817101478,-0.4295065104961395,-0.2364546805620193
1772649205956484000,5.808484130859375,-0.003707622346282,-1.1936121111795306,1.054116254466772,-0.0797457471489906,-0.6186922788619995,-0.4388939440250397
1772649205966456000,5.8184560546875,-0.1168102699130773,-1.1627291893988847,0.7150049303170293,-0.1020164340734481,-0.7335296869277954,-0.5972585678100586
1772649205976427000,5.828427001953125,-0.7094242806404829,-0.9332336205482482,0.389396536743082,-0.1101795807480812,-0.718925416469574,-0.6341052055358887
1772649205986399000,5.83839892578125,-1.571972253590822,-0.5425324674800038,0.0106164153540506,-0.1524346321821212,-0.610590934753418,-0.5694476366043091
1772649205996371000,5.848370849609375,-2.2493863619863985,-0.190269766138494,-0.4506208207735792,-0.2271936982870102,-0.4665476977825165,-0.467596560716629
1772649206006343000,5.858343017578125,-2.5067045882642267,0.0415004696458578,-0.7661455541633069,-0.3132511079311371,-0.3428880572319031,-0.4196945428848266
1772649206016314000,5.868314208984375,-2.3735768052786588,0.1219219138383865,-0.8215795643545687,-0.3486650586128235,-0.2210846096277237,-0.4136153161525726
1772649206026285800,5.878285888671875,-2.183334219408035,0.1880649495705962,-0.5942132260849698,-0.3356158137321472,-0.1063106134533882,-0.3991471529006958
1772649206036258000,5.888258056640625,-1.961529205060005,0.360830038678646,-0.2041435027880594,-0.2900134027004242,-0.025335170328617,-0.327389657497406
1772649206046229000,5.89822900390625,-1.9143138648986813,0.5367381019875407,0.2463683777183294,-0.2283218055963516,0.0521665439009666,-0.1978327482938766
1772649206056201000,5.908200927734375,-1.8481956713467835,0.695167791751027,0.5316753752378747,-0.1635447740554809,0.1422835737466812,-0.0216588992625474
1772649206066173200,5.918173095703125,-1.734015165415406,0.8377671674370765,0.7227844782773405,-0.0879514813423156,0.2013370394706726,0.1863414347171783
1772649206076143900,5.928143798828125,-1.707922108259797,0.9846823604956269,0.7265086864322423,0.0034848619252443,0.2250854969024658,0.4408046305179596
1772649206086116000,5.9381162109375,-1.5962024394840002,1.2331351432725786,0.6515675733469426,0.1061702221632003,0.218599647283554,0.7222411036491394
1772649206096087800,5.948087890625,-1.252030690139532,1.4235373036190866,0.6868719648316503,0.2044855058193206,0.1400419026613235,0.9713783860206604
1772649206106059000,5.95805908203125,-0.6959300082951784,1.4026602275460958,0.7237693245962262,0.2813011705875397,-0.0120512284338474,1.1466045379638672
1772649206116031000,5.968031005859375,-0.0608265168845653,1.2090601479411125,0.6806820241503417,0.3371857106685638,-0.1830921769142151,1.235884666442871
1772649206126003000,5.9780029296875,0.4761988776117563,0.9556842295482754,0.5178575334940105,0.3724685907363891,-0.3211959600448608,1.2567723989486694
1772649206135974000,5.987973876953125,0.832135883551836,0.7545493705242872,0.2215831152256578,0.3778945207595825,-0.4385294914245605,1.2102158069610596
1772649206145946000,5.997946044921875,1.0796908407062291,0.6392991895347834,-0.2147695262206718,0.3325558006763458,-0.518293023109436,1.0977134704589844
1772649206155917800,6.007917724609375,1.2098299632698295,0.4986451026976108,-0.8323286296449601,0.2242515236139297,-0.5312010645866394,0.918559432029724
1772649206165889000,6.017888916015625,1.2736989165902135,0.2357189734101295,-1.4466453536145387,0.0539724677801132,-0.4970207512378692,0.6660802960395813
1772649206175861000,6.027861083984375,1.3210691550523042,-0.037883740453422,-1.9258891518801449,-0.1661813259124755,-0.4580959379673004,0.3467857241630554
1772649206185833000,6.0378330078125,1.3278297352284192,-0.2290846499621868,-2.217614528542012,-0.3782474994659424,-0.3789811432361603,-0.0012507911305874
1772649206195805200,6.04780517578125,1.20764735853374,-0.1796855360209941,-2.3383144993700085,-0.5450903177261353,-0.2250740528106689,-0.3384878635406494
1772649206205776000,6.05777587890625,0.917224735033512,0.0140495681405067,-2.168399685126543,-0.6490271091461182,-0.0312832742929458,-0.6178470849990845
1772649206215748000,6.067748046875,0.5904658927828074,0.3208718300387263,-1.7339543751388786,-0.6955546736717224,0.1303052008152008,-0.8141193389892578
1772649206225719800,6.0777197265625,0.3027951983392238,0.680311291141808,-1.1556582280993462,-0.6848386526107788,0.2141324579715728,-0.8930873870849609
1772649206235691000,6.08769091796875,-0.0186971016854047,1.017228539313376,-0.5478673987671733,-0.6246713995933533,0.2338380515575409,-0.8275521397590637
1772649206245663000,6.0976630859375,-0.3505845389962196,1.3026944171890615,-0.000327514921315,-0.5320218801498413,0.2021427005529403,-0.6642468571662903
1772649206255635000,6.107635009765625,-0.4727104509741067,1.465479087291658,0.4616198057044297,-0.4266496300697326,0.1216581985354423,-0.4558260440826416
1772649206265606000,6.11760595703125,-0.424372828784585,1.5052151776134968,0.7306320499725639,-0.312751829624176,0.0282478220760822,-0.2457106411457061
1772649206275578000,6.127578125,-0.2416401801526546,1.4318743393316864,0.8250871340841054,-0.2136653661727905,-0.0205963440239429,-0.0743084177374839
1772649206285549800,6.1375498046875,0.1313040746897459,1.3554811277419327,0.8168836616232991,-0.128229022026062,-0.0348304063081741,0.0292922761291265
1772649206295521000,6.14752099609375,0.5752361749470234,1.2262889306396243,0.5990427651332692,-0.0847664028406143,-0.0113687925040721,0.0509638376533985
1772649206305493000,6.157492919921875,0.9256967953026294,1.0219292643502351,0.2889537565240636,-0.0541592240333557,0.0206810198724269,0.0341579616069793
1772649206315465000,6.16746484375,1.1749971348196266,0.8719684199854731,0.1320365902153775,-0.0136549044400453,0.0419397093355655,0.0213799513876438
1772649206325436200,6.177436279296875,1.2723328889340162,0.8149301894679665,0.1795441913215443,0.0354604460299015,0.0524211153388023,0.0215533226728439
1772649206335407900,6.187407958984375,1.267653791207075,0.7459642052695155,0.2763301660660654,0.0897809118032455,0.0462255850434303,0.0400370322167873
1772649206345380000,6.197380126953125,1.231795126840472,0.6525424097284674,0.3283248859910294,0.147276684641838,-0.0112238600850105,0.0805021673440933
1772649206355351000,6.20735107421875,1.2060498602092264,0.5458233257189393,0.3724865742027759,0.1888384073972702,-0.101624883711338,0.1487521082162857
1772649206365323000,6.217322998046875,1.173196807399392,0.4246989919990301,0.378749835848622,0.2100406438112259,-0.2007943391799926,0.2145990282297134
1772649206375295000,6.227294921875,1.2154630007207392,0.3247080472007393,0.3807754233920946,0.2175968885421753,-0.2953039109706878,0.2520930469036102
1772649206385267000,6.237266845703125,1.2672668377161025,0.2518029699876904,0.3673755513319745,0.2278497815132141,-0.3788243532180786,0.2546834945678711
1772649206395238000,6.24723779296875,1.3003683123290537,0.1995841224506497,0.4589077702667564,0.2380954623222351,-0.4531606435775757,0.2338337898254394
1772649206405210000,6.257210205078125,1.2898913419783116,0.1396951786771416,0.5146045961126685,0.2512602806091308,-0.488518625497818,0.1895318329334259
1772649206415182000,6.26718212890625,1.1670394538134337,0.0703872491732239,0.3976491821078583,0.2492163926362991,-0.4906831681728363,0.1418632268905639
1772649206425153000,6.277153076171875,0.9994470911681652,-0.0006426818177103,0.302456997627113,0.2525637447834015,-0.4628235697746277,0.0946238040924072
1772649206435125000,6.287125,0.8536918817996978,-0.0565472321301698,0.2544060651581734,0.2534355819225311,-0.4423826038837433,0.0547079294919967
1772649206445097000,6.297096923828125,0.6670984660863876,-0.0958417161643505,0.2711120295589789,0.256328821182251,-0.4131743907928467,0.0386328250169754
1772649206455068200,6.307068115234375,0.446288307994604,-0.1477560277968645,0.2710934892552905,0.2553579211235046,-0.3566462695598602,0.0353943035006523
1772649206465040000,6.317039794921875,0.2756213602095842,-0.1955915456831455,0.2701015008095652,0.2425731420516967,-0.2670796513557434,0.0163428485393524
1772649206475012000,6.32701220703125,0.1152677166461944,-0.3122720517367124,0.1034446654487401,0.2092606574296951,-0.1664846539497375,-0.0071299909614026
1772649206484982000,6.33698193359375,-0.0030208091259002,-0.4059355470791458,-0.0421258806683588,0.1891106516122818,-0.0810251608490943,-0.0214239750057458
1772649206494954000,6.3469541015625,-0.1196580605596303,-0.4644581709355115,-0.0550491390595212,0.183362528681755,0.0067285085096955,-0.0225959885865449
1772649206504926200,6.35692626953125,-0.2613280464410781,-0.4644195924907922,-0.0092809107002802,0.179107055068016,0.073082759976387,0.0055144755169749
1772649206514897200,6.366897216796875,-0.3012999913454056,-0.5018143803834915,0.0177577202097512,0.1685943156480789,0.103657841682434,0.0448481813073158
1772649206524869000,6.376869140625,-0.3247118465930223,-0.5581567375913262,0.0797120903467759,0.1689631640911102,0.1043896749615669,0.1032483801245689
1772649206534841000,6.386841064453125,-0.3300923705875873,-0.6183376500487328,0.187748467499949,0.1818219423294067,0.0897687077522277,0.1601423174142837
1772649206544812300,6.396812255859375,-0.2693780819058418,-0.6720543349280953,0.2586415838360786,0.1989274322986602,0.0564277917146682,0.2150335311889648
1772649206554784000,6.406783935546875,-0.1801718582332134,-0.7438754162967205,0.2336755579490214,0.2027444392442703,0.0263297352939844,0.2594285905361175
1772649206564756200,6.416756103515625,-0.1077402437508106,-0.8164645594283938,0.1329728390190284,0.1844376027584076,0.0442016758024692,0.2879917919635772
1772649206574728000,6.42672802734375,-0.0920049144804477,-0.928724326430261,-0.0424732602007687,0.1509172320365905,0.1102450415492057,0.2788442969322204
1772649206584699100,6.43669921875,-0.0546305848538875,-0.95501349067986,-0.1779879017902538,0.1300199329853058,0.2254691123962402,0.2533466517925262
1772649206594671000,6.446671142578125,-0.06542436606884,-0.9235749808430672,-0.249477668845281,0.1198538690805435,0.3607548177242279,0.2146297544240951
1772649206604643000,6.45664306640625,-0.0075035074979066,-0.8848433913886546,-0.2652143132898956,0.1100220158696174,0.4737351536750793,0.1655889749526977
1772649206614614000,6.466614013671875,0.0303191504180431,-0.8468374858602881,-0.2184859163952991,0.1074304953217506,0.5297852158546448,0.1237463951110839
1772649206624586000,6.4765859375,0.0665063160866498,-0.852635943005979,-0.1043301065137609,0.1250409185886383,0.5341938138008118,0.1052709817886352
1772649206634558200,6.48655810546875,0.0671188950270414,-0.8251020393922924,0.0840265012134797,0.1487521380186081,0.509290337562561,0.099858745932579
1772649206644529200,6.496529052734375,-0.0590741202592849,-0.8073550780385732,0.2104687237542122,0.1803452223539352,0.494351327419281,0.1094772815704345
1772649206654501000,6.506501220703125,-0.2339683303505182,-0.8129422305211425,0.2618946673478931,0.229056566953659,0.4878960847854614,0.1283947825431823
1772649206664473000,6.51647314453125,-0.4182902940005064,-0.791392954275012,0.2805624333409592,0.2918925285339355,0.5006899237632751,0.1496254950761795
1772649206674444300,6.5264443359375,-0.606236877888441,-0.7803755934372544,0.2590822585419751,0.3592291474342346,0.540477991104126,0.1616573929786682
1772649206684416000,6.536416015625,-0.7548270184218883,-0.7905299077048897,0.2307001954000443,0.4428819715976715,0.5999253392219543,0.1954441219568252
1772649206694388200,6.54638818359375,-0.9251222102850676,-0.769324330329895,0.348989744085446,0.5445485711097717,0.6713014841079712,0.2810627818107605
1772649206704359200,6.556359130859375,-1.0048404746443034,-0.7786050766333937,0.6702119949970394,0.6530463099479675,0.7316908240318298,0.3874153196811676
1772649206714331100,6.5663310546875,-0.8503548463314771,-0.8217351933076977,1.041711750119552,0.7708029747009277,0.7525104284286499,0.4855487048625946
1772649206724303000,6.57630322265625,-0.4954600429207086,-0.7970119632005691,1.3719446251563727,0.8877671360969543,0.7365394830703735,0.5428282618522644
1772649206734275000,6.586275146484375,0.0022504092752933,-0.7990265178933739,1.558635071503371,0.9838963747024536,0.656663715839386,0.532895565032959
1772649206744246000,6.59624609375,0.5776870752304792,-0.814798672042787,1.518502821470797,1.0348719358444214,0.5012474656105042,0.4299891293048858
1772649206754218000,6.606218017578125,1.1640461172163483,-0.8429252808526158,1.3718239213861525,1.0168442726135254,0.293377161026001,0.2120063155889511
1772649206764190200,6.616190185546875,1.560716700083017,-0.8145660323306918,1.0529325245749204,0.9419466853141784,0.0587460063397884,-0.0785565450787544
1772649206774161200,6.6261611328125,1.464380478399992,-0.7377431971520185,0.3896862769372761,0.8440141081809998,-0.0955863818526268,-0.3433723449707031
1772649206784133000,6.636133056640625,0.7825339405149221,-0.643012949360907,-0.488798027748242,0.721679151058197,-0.1197247430682182,-0.5194128751754761
1772649206794105000,6.64610498046875,-0.0985246716380119,-0.4593889048472047,-1.0741637478478252,0.5698387622833252,-0.0780414789915084,-0.6290871500968933
1772649206804076300,6.656076171875,-0.9436790267169476,-0.1739148436650633,-1.3263944417282938,0.4273449778556824,-0.0137849943712353,-0.6932440400123596
1772649206814048000,6.666048095703125,-1.6287252374261616,0.176619718709588,-1.3447021057046948,0.3198204040527344,0.1339585483074188,-0.6990997195243835
1772649206824020200,6.676020263671875,-2.2369337076485154,0.4911261053696274,-1.0959292971931398,0.2926604151725769,0.3707007765769958,-0.5943360328674316
1772649206833991200,6.6859912109375,-2.7946482544302937,0.8543000768259167,-0.6106602107560262,0.33664271235466,0.5968489646911621,-0.3761754333972931
1772649206843963100,6.695963134765625,-2.962854365059733,1.2625023997932672,-0.003922178412415,0.444872498512268,0.7638315558433533,-0.0755953639745712
1772649206853935000,6.70593505859375,-2.7349861051499844,1.6131506516754626,0.6639276540305465,0.5678573250770569,0.8754326105117798,0.2277809828519821
1772649206863906000,6.715906005859375,-2.004479873514175,1.6967781984329222,1.1521417444109916,0.6658323407173157,0.8497583866119385,0.4346766471862793
1772649206873878300,6.725878173828125,-0.932562589418888,1.6208134413883089,1.3497320626959204,0.7434920072555542,0.683170735836029,0.5400295257568359
1772649206883850000,6.73585009765625,0.0640805502444505,1.3970771667167543,1.438895324009657,0.8014730215072632,0.410130113363266,0.5550308227539062
1772649206893821200,6.7458212890625,0.7622785034716129,1.1469117348030209,1.4932668195359409,0.8288288712501526,0.1045713946223259,0.5188671350479126
1772649206903793200,6.755793212890625,1.0252204148501156,0.8814765453040599,1.338815970275551,0.811159610748291,-0.1641077399253845,0.4658294916152954
1772649206913765000,6.76576513671875,0.8848322854727506,0.7083557746261357,0.8903035564906895,0.731419026851654,-0.3299861848354339,0.4071822464466095
1772649206923737000,6.775737060546875,0.3915659532040357,0.6114072662636637,0.1878036134869791,0.5907255411148071,-0.4105395972728729,0.3228665590286255
1772649206933708300,6.785708251953125,-0.1275783321648836,0.5304401708871126,-0.4294751934248954,0.410718560218811,-0.4414435923099518,0.1902146637439727
1772649206943680000,6.795679931640625,-0.5893289977073669,0.4655167400777339,-0.8748173066105693,0.2143128365278244,-0.4076457023620605,0.0034671486355364
1772649206953652200,6.80565234375,-0.9732008892774582,0.4076519956082105,-1.176514918971434,0.031226310878992,-0.3172696530818939,-0.1997697800397873
1772649206963623200,6.815623046875,-1.396208859449625,0.471245931379497,-1.2912475788928568,-0.1304755061864853,-0.1602491289377212,-0.3569588661193847
1772649206973595100,6.82559521484375,-1.8257038535535333,0.7299331079229712,-1.3252918873138726,-0.2552822828292846,0.0281503200531005,-0.444370299577713
1772649206983567400,6.8355673828125,-2.1353245139986274,1.1255918833985925,-1.2365233244061469,-0.3357198536396026,0.2055133879184723,-0.4580221772193908
1772649206993538000,6.8455380859375,-2.1923042923271656,1.53521693264544,-0.9700367992233484,-0.3664746284484863,0.3297971189022064,-0.4204700589179992
1772649207003510300,6.85551025390625,-1.9592682743906973,1.7942314414471388,-0.5813990449583157,-0.3542235791683197,0.3852329552173614,-0.3488653600215912
1772649207013482000,6.86548193359375,-1.5848814195245504,1.9316729959785937,-0.2009872489805333,-0.3155240714550018,0.3970999717712402,-0.2390361130237579
1772649207023453200,6.875453125,-1.2282190219193696,1.9541779655143616,0.0750583097241818,-0.2808518409729004,0.3959012925624847,-0.1051472872495651
1772649207033425200,6.885425048828125,-0.8381360007494687,1.8994050495803356,0.1504604461836628,-0.2652074694633484,0.3649235367774963,0.0176423955708742
1772649207043397000,6.895397216796875,-0.3058990095734596,1.82875944173187,0.0999714363802224,-0.2610297799110412,0.2897467613220215,0.1220612153410911
1772649207053368000,6.9053681640625,0.2176607541501521,1.766037612619996,0.0883274315441027,-0.2617720663547516,0.2173318564891815,0.2051386833190918
1772649207063340300,6.91534033203125,0.6115232938587665,1.5997814670145512,0.1484827346362173,-0.2742071747779846,0.1854572892189026,0.2496291697025299
1772649207073312000,6.92531201171875,0.9388286640763284,1.4137757880613206,0.1600609076945111,-0.2931080758571625,0.1832634508609771,0.2608225643634796
1772649207083283200,6.935283203125,1.222128888350725,1.3163085165217518,0.2186161186462268,-0.2937189936637878,0.1861820071935653,0.2403697371482849
1772649207093255200,6.945255126953125,1.5206851339459415,1.3162152852803468,0.3519651796996593,-0.2723771929740906,0.1777040660381317,0.1892556548118591
1772649207103227100,6.95522705078125,1.723891830807924,1.23693745816499,0.4450143060034141,-0.2463628947734832,0.1551854312419891,0.1217889934778213
1772649207113199400,6.965199462890625,1.858974254992604,1.1142772931799292,0.5224219188001007,-0.2230020016431808,0.1129321306943893,0.0532840900123119
1772649207123170000,6.975170166015625,1.943043115776777,0.979415526008606,0.5896564395634457,-0.2110627889633178,0.0353728868067264,-0.0057035963982343
1772649207133142300,6.985142333984375,1.9161942718178036,0.8191597898617387,0.6163399003602564,-0.1996368318796157,-0.0426090620458126,-0.0506388545036315
1772649207143114000,6.995114013671875,1.7587538853526117,0.673179539565742,0.6342966320071369,-0.187200665473938,-0.0864500179886818,-0.0621005669236183
1772649207153085200,7.005085205078125,1.5294190600216389,0.5752452350363135,0.6200471573803573,-0.1789810508489608,-0.1147915348410606,-0.072298564016819
1772649207163057200,7.01505712890625,1.3212047641307114,0.5398693857505917,0.5574305056760087,-0.1649240851402282,-0.1360225230455398,-0.0786131843924522
1772649207173029000,7.025029052734375,1.141031152331829,0.463258147495985,0.4077170602010563,-0.1728868931531906,-0.1369362324476242,-0.0847852230072021
1772649207183000000,7.035,0.946460766389966,0.3273503784030676,0.2699195318387821,-0.1845518052577972,-0.1272314041852951,-0.0933920219540596
1772649207192972300,7.04497216796875,0.851738994166255,0.1928521838471293,0.1746483821040019,-0.2021716237068176,-0.115290455520153,-0.1169315874576568
1772649207202944000,7.054944091796875,0.8563619777917861,0.0770858700290322,0.158790339769423,-0.2116847038269043,-0.1225835233926773,-0.1508195251226425
1772649207212915200,7.064915283203125,0.9333435106635092,-0.0203194421902298,0.189486872132495,-0.210611030459404,-0.1464220881462097,-0.1930160820484161
1772649207222887000,7.074886962890625,0.9986819520145654,-0.0614382190421223,0.1890572120109573,-0.2201680392026901,-0.1780894696712494,-0.2390251159667968
1772649207232859100,7.084859130859375,0.983190368372202,-0.1428963128060102,0.1514093626726418,-0.2431709915399551,-0.18721604347229,-0.2697946429252624
1772649207242830000,7.094830078125,0.814703687235713,-0.218875098375976,0.0762175627619028,-0.2664520740509033,-0.1594778895378112,-0.2827104330062866
1772649207252802000,7.104802001953125,0.5668336727827787,-0.238644213207066,0.0562367048762738,-0.2812663316726684,-0.1172854080796241,-0.2621194422245025
1772649207262774300,7.114774169921875,0.4604851756513118,-0.2175830127388238,0.1379775611042976,-0.2771837115287781,-0.1006928533315658,-0.2433217912912368
1772649207272745200,7.1247451171875,0.5389315203785896,-0.1957707016423344,0.2690575447145849,-0.2643104493618011,-0.1411027908325195,-0.2454666942358017
1772649207282717200,7.13471728515625,0.7112438972830772,-0.2490349665790796,0.4113572068016976,-0.2413012832403183,-0.2139069586992263,-0.2634401023387909
1772649207292689200,7.144689208984375,0.808325384375453,-0.3252075211554766,0.5080755596701055,-0.2173927873373031,-0.2766751050949096,-0.2834553718566894
1772649207302661000,7.1546611328125,0.7751771480113268,-0.365041226632893,0.4845633858531713,-0.207967072725296,-0.3136560320854187,-0.302908182144165
1772649207312632000,7.164632080078125,0.6623924803525209,-0.4339095956757664,0.3823673322260379,-0.2150470167398452,-0.3216968476772308,-0.3151611089706421
1772649207322604300,7.174604248046875,0.3824620247721672,-0.477001426166296,0.2859822664326056,-0.2382969409227371,-0.3168935775756836,-0.3163416981697082
1772649207332576000,7.184575927734375,0.0977285528242588,-0.4856836220547557,0.1719465757993981,-0.2452173382043838,-0.324089765548706,-0.2997328639030456
1772649207342547200,7.194547119140625,-0.1340349609583616,-0.4021349857524037,0.188842948205769,-0.244008257985115,-0.3367762863636017,-0.2688556313514709
1772649207352519000,7.204518798828125,-0.2991857756704091,-0.311743059426546,0.2046561650179326,-0.2541074752807617,-0.3213699460029602,-0.2338082194328308
1772649207362491100,7.2144912109375,-0.4819681086629628,-0.2489759298682212,0.120063426490128,-0.2746106088161468,-0.3127000331878662,-0.1944759935140609
1772649207372462000,7.224462158203125,-0.6419365523010492,-0.2004196964919567,0.0705741865800693,-0.2806217968463897,-0.3219516277313232,-0.1588453650474548
1772649207382434000,7.23443408203125,-0.8314332882404327,-0.1505579334750771,0.1747851602261886,-0.2683105170726776,-0.3117463886737823,-0.1064021363854408
1772649207392406300,7.24440625,-0.9231763369143008,-0.0835308083847165,0.3740580978358164,-0.2477236986160278,-0.2700547277927398,-0.0748028829693794
1772649207402377200,7.254377197265625,-0.8905985939145088,-0.0473670235916972,0.5206933049092068,-0.2302554994821548,-0.2500450909137726,-0.0585882253944873
1772649207412349200,7.26434912109375,-0.7784796966880559,-0.0699696082830429,0.727783601738885,-0.1922307312488556,-0.2487455457448959,-0.0524500161409378
1772649207422321200,7.274321044921875,-0.6502326714813709,-0.054805064637959,1.0248847531549632,-0.1557193249464035,-0.2783567011356354,-0.0578700825572013
1772649207432292000,7.2842919921875,-0.4187228401988744,-0.0245125099658966,1.258193888944387,-0.1060925647616386,-0.3360949754714966,-0.082033060491085
1772649207442264000,7.29426416015625,-0.1798234831869602,-0.0080900752142071,1.317825204695016,-0.0634654760360717,-0.4239590466022491,-0.1504741609096527
1772649207452236300,7.304236328125,0.0275233822196722,-0.0617418781638145,1.206426365371421,-0.059519425034523,-0.534321129322052,-0.2654468715190887
1772649207462207000,7.31420703125,0.233866039019823,-0.1965153825297951,0.9580978665612636,-0.1039870157837867,-0.6730539798736572,-0.4417923390865326
1772649207472179200,7.32417919921875,0.2787245869219303,-0.3697328915804624,0.5454695803778246,-0.1929209530353546,-0.7930858135223389,-0.6439121961593628
1772649207482151700,7.334151611328125,-0.0131716162621974,-0.4598214510455727,0.0087345277222513,-0.2838902771472931,-0.8232336044311523,-0.7878611087799072
1772649207492124000,7.3441240234375,-0.6377712493151426,-0.3600508709996938,-0.4006996922522783,-0.3840647637844085,-0.7593117356300354,-0.8331636786460876
1772649207502094800,7.3540947265625,-1.2629080579847096,-0.0749696085274219,-0.6852057121198624,-0.4994531273841858,-0.6678329706192017,-0.8389842510223389
1772649207512066800,7.36406689453125,-1.6286322984457016,0.2030243260324001,-0.8526317052222788,-0.6108362078666687,-0.5903887152671814,-0.862697422504425
1772649207522039000,7.3740390625,-1.7733213398873804,0.3382511271238327,-0.8677773980364203,-0.6746748089790344,-0.4841329157352447,-0.9069450497627258
1772649207532009700,7.384009765625,-1.8903601578593248,0.3769505678743123,-0.6620183863431215,-0.6771756410598755,-0.3497151732444763,-0.9427303075790404
1772649207541982000,7.39398193359375,-1.9781769730001688,0.4837459319904446,-0.3519361728008836,-0.636478841304779,-0.1879904866218567,-0.9300235509872437
1772649207551954000,7.403953857421875,-2.1585066521435974,0.6063438453942537,-0.0531845050982665,-0.5654624700546265,0.0107347015291452,-0.8330108523368835
1772649207561924900,7.4139248046875,-2.331844864964485,0.7127998945534229,0.1733981628471985,-0.4852876961231231,0.1902445405721664,-0.6449354887008667
1772649207571896800,7.423896728515625,-2.4258774858802554,0.8406994214966893,0.3571249736156314,-0.3858378529548645,0.3468896448612213,-0.3705863654613495
1772649207581868800,7.433868896484375,-2.5437135917097327,0.8926493889644741,0.4796102934904396,-0.2707373797893524,0.4355505406856537,-0.024061182513833
1772649207591839700,7.44383984375,-2.3917957680583,0.9874953720897436,0.5777321930138394,-0.1669899076223373,0.4627121388912201,0.3455084562301636
1772649207601812000,7.45381201171875,-1.8033704411923883,1.0632938326567412,0.6270675575364381,-0.0839450880885124,0.3999267816543579,0.670132577419281
1772649207611783700,7.46378369140625,-0.9705915835618972,1.0170675035327672,0.6943906698986888,-0.0144720347598195,0.2450134009122848,0.9010337591171264
1772649207621755000,7.4737548828125,-0.1885170772522687,0.8779068701237439,0.7995983264319598,0.059271965175867,0.0490268468856811,1.0322157144546509
1772649207631726800,7.483726806640625,0.4551566741049289,0.7072597960829734,0.8164883056301623,0.1166699454188346,-0.1071456670761108,1.0817395448684692
1772649207641698800,7.49369873046875,0.913377411955595,0.5062175837785006,0.719271793981269,0.1393110752105713,-0.2027278542518615,1.0475683212280271
1772649207651671000,7.503671142578125,1.3058259932130574,0.2805310518220066,0.3831086521126329,0.1229710727930069,-0.281649649143219,0.9175629019737244
1772649207661641700,7.513641845703125,1.6446370923072098,0.1022697033852338,-0.0489054212732706,0.0733598470687866,-0.3800025880336761,0.694631814956665
1772649207671614000,7.523614013671875,1.896824969959259,-0.0859495599642395,-0.5941658798119053,-0.02015171200037,-0.4808065295219421,0.3983975946903229
1772649207681585700,7.533585693359375,1.9688842439979315,-0.3811217160791158,-1.1603713011611252,-0.1665022671222686,-0.561959981918335,0.0347695685923099
1772649207691556900,7.543556884765625,1.7869377773076294,-0.6489353251472115,-1.691909131091833,-0.3487781286239624,-0.5955979824066162,-0.3371376097202301
1772649207701528800,7.55352880859375,1.2646470106065273,-0.8070353445649147,-2.086499400553107,-0.5305452942848206,-0.5292173624038696,-0.6792251467704773
1772649207711500800,7.563500732421875,0.4827209728568792,-0.7660346411347388,-2.231320690072328,-0.6677724719047546,-0.3873591721057892,-0.9364340901374816
1772649207721471700,7.5734716796875,-0.4308236123591661,-0.4781842062100768,-2.1559949615836143,-0.7429881691932678,-0.2127389162778854,-1.0572712421417236
1772649207731444000,7.58344384765625,-1.3338117322474716,-0.0901104790359735,-1.8238604176439344,-0.7346658706665039,-0.0272662099450826,-1.022322654724121
1772649207741415700,7.593415771484375,-1.957450411313772,0.3026052287250757,-1.311630295577645,-0.6756086945533752,0.1357400119304657,-0.8521624207496643
1772649207751387000,7.603386962890625,-2.2589222520947456,0.5170271470844745,-0.8366775455694645,-0.5852845907211304,0.2452765256166458,-0.6016543507575989
1772649207761358800,7.61335888671875,-2.305641333171725,0.5650868291154504,-0.432246959693171,-0.4891526699066162,0.2768746614456177,-0.3055540025234222
1772649207771330800,7.623330810546875,-2.1043226420134307,0.5720145825520158,-0.1262418045978061,-0.4095387160778045,0.2571600973606109,-0.0042362669482827
1772649207781301800,7.6333017578125,-1.7270687072783708,0.5204027609974146,0.0609283789569977,-0.3343364000320434,0.2008736729621887,0.28040212392807
1772649207791273700,7.643273681640625,-1.220356617981195,0.5208882064267992,0.1657076083445921,-0.2535353600978851,0.1471355408430099,0.5145205855369568
1772649207801246000,7.653245849609375,-0.5923626663148402,0.5784089597642421,0.2199354028175585,-0.1710559278726577,0.0965123102068901,0.6757246255874634
1772649207811217000,7.663216796875,0.0921878698319196,0.5735074514582753,0.227830156389065,-0.1048850268125534,0.0650984942913055,0.7438550591468811
1772649207821188900,7.67318896484375,0.7201496727943419,0.4698816572889685,0.1793336538434028,-0.0568679608404636,0.0369171872735023,0.7377942204475403
1772649207831160800,7.683160888671875,1.2864672127485277,0.3510115322366356,0.1034983318647369,-0.0262461304664611,0.0010836631990969,0.6868318915367126
1772649207841132000,7.693132080078125,1.728062394490838,0.2816895742073655,0.0395639760247897,-0.0159018822014331,-0.0345355831086635,0.5864413976669312
1772649207851103700,7.703103759765625,2.042589531677961,0.2129614904180169,0.0248714155393186,-0.0149013921618461,-0.0808197408914566,0.4584545791149139
1772649207861076000,7.713075927734375,2.1710124979734418,0.1541626799687743,0.0648121981204021,-0.0201323740184307,-0.1208443865180015,0.3335035741329193
1772649207871047700,7.723047607421875,2.103299728706479,0.1107543308749794,0.1014603597637265,-0.0197611283510923,-0.1299036592245102,0.2189991027116775
1772649207881019000,7.733018798828125,1.853098056435585,0.1583610084414482,0.0595825081728398,-0.0269569903612136,-0.1010115593671798,0.1283381730318069
1772649207890990800,7.742990966796875,1.548677302721143,0.2205713808998465,0.0049513387970626,-0.0445100329816341,-0.0512006767094135,0.0494250245392322
1772649207900962800,7.752962890625,1.2900818961143492,0.2786719799518585,-0.0299049390273867,-0.0646267533302307,0.008631233125925,-0.0249264370650053
1772649207910933800,7.762933837890625,1.1034060628145932,0.3236123609185218,-0.0527366380331804,-0.082131490111351,0.0494832098484039,-0.095363363623619
1772649207920905700,7.77290576171875,0.9972592257350684,0.4148223256289958,0.0315230006493162,-0.0766024962067604,0.0561967752873897,-0.1660529822111129
1772649207930878000,7.7828779296875,0.8864309528410435,0.4822992403134703,0.1940139393691904,-0.0620024614036083,0.057344764471054,-0.2269560843706131
1772649207940849000,7.792848876953125,0.7108434997886419,0.5019020586669445,0.3472545177906751,-0.0331971794366836,0.0641321018338203,-0.2716303467750549
1772649207950820900,7.80282080078125,0.4166127161771059,0.5151677829533815,0.4827408831337466,0.0152331301942467,0.0674093142151832,-0.2939543128013611
1772649207960792800,7.812792724609375,0.1535872181683778,0.58835343067348,0.5931749690784142,0.0729427635669708,0.0652305856347084,-0.3061369359493255
1772649207970764000,7.822763916015625,-0.0547948355048894,0.6399845414504408,0.6501973079070449,0.1350751668214798,0.0579443499445915,-0.2929833829402923
1772649207980735700,7.83273583984375,-0.2770516852736473,0.6189481831625103,0.6207981949433684,0.1870142668485641,0.0764349400997161,-0.2675565779209137
1772649207990708000,7.8427080078125,-0.5120294849276542,0.507514637851715,0.5018794449763372,0.2137548178434372,0.1303135156631469,-0.2202097624540329
1772649208000678700,7.8526787109375,-0.7901789023101329,0.4116846121251583,0.3061167074447498,0.2302498966455459,0.2067201435565948,-0.1461765468120575
1772649208010651000,7.86265087890625,-0.9576216273516416,0.3873796074301004,0.1718977864879183,0.2572785317897796,0.2809263467788696,-0.0484116896986961
1772649208020622800,7.872622802734375,-0.9174871853619814,0.4008376394182443,0.1769948904312215,0.283066987991333,0.3281106352806091,0.0379104167222976
