time,seconds_elapsed,acc_z,acc_y,acc_x,gyro_z,gyro_y,gyro_x
1772649436264381700,0.067381591796875,-0.0567412933975458,0.4216766485031694,0.8649139714293181,0.1290333569049835,-0.1377063542604446,0.0573015734553337
1772649436274353700,0.077353759765625,0.0553723431318998,0.2528079823117703,0.6017223230734468,0.1323354393243789,-0.1131022796034812,0.0689716413617134
1772649436284325600,0.08732568359375,0.4076315373420715,0.120410340231657,0.4182310380939394,0.1237107887864112,-0.0880592465400695,0.0290697645395994
1772649436294297600,0.097297607421875,0.6112286948263644,0.0084846274897456,0.2659034645978361,0.1129986941814422,-0.0660803616046905,-0.0281635764986276
1772649436304268500,0.1072685546875,0.4975467860668897,-0.0539843228396028,0.1491597571149468,0.1221019104123115,-0.0384471379220485,-0.0680867508053779
1772649436314240800,0.11724072265625,0.3182768451094627,-0.1378968970835208,-0.0277648628253489,0.1311559230089187,-0.0047468123957514,-0.0816957205533981
1772649436324212500,0.12721240234375,0.1428343534857034,-0.2183316391490399,-0.2220494175631552,0.125493511557579,6.60526566207e-05,-0.062024813145399
1772649436334183700,0.13718359375,-0.1167126547574996,-0.3704270113244652,-0.4487934226833284,0.109299212694168,0.0048023574054241,-0.0217116344720125
1772649436344155600,0.14715576171875,-0.2644371183723211,-0.533479757778719,-0.6164156690102071,0.0787104070186615,0.0132214082404971,0.0260146092623472
1772649436354127600,0.157127685546875,-0.2972287963837385,-0.6749811090949922,-0.8059034179255365,0.0397341810166835,0.026969825848937,0.0573303923010826
1772649436364099800,0.167099853515625,-0.2532002695649862,-0.7360437728229909,-0.8161044939443468,0.0102444654330611,0.0529193989932537,0.0863697677850723
1772649436374070500,0.177070556640625,-0.039140754777193,-0.751900098124519,-0.7230869683552533,-0.0242166630923748,0.0685098394751548,0.0873992443084716
1772649436384042800,0.187042724609375,0.1661269662678241,-0.7298780167348683,-0.5294142619054765,-0.041122943162918,0.0777795016765594,0.0681480541825294
1772649436394014700,0.1970146484375,0.3591694119900465,-0.6165749512251466,-0.3141772277709097,-0.0515494979918003,0.0712271258234977,0.0296184103935956
1772649436403985700,0.206985595703125,0.4471358647346496,-0.4840344666082412,-0.0852629659395664,-0.0554398447275161,0.061133749783039,-0.014647320844233
1772649436413957600,0.21695751953125,0.2409557050198316,-0.3213615863170475,0.1062962554875761,-0.054514393210411,0.0792168751358985,-0.0315578617155551
1772649436423929600,0.2269296875,-0.062127078089118,-0.2158934522166848,0.1968592275314032,-0.0655737072229385,0.0997692868113517,-0.0208285171538591
1772649436433900500,0.236900634765625,-0.2866951274096965,-0.0214976921893656,0.3000488953057676,-0.06720632314682,0.0956726446747779,0.0165900327265262
1772649436443872800,0.246872802734375,-0.4952314948618411,0.1032894748870283,0.4662709925111383,-0.048808142542839,0.0893945023417472,0.0648542344570159
1772649436453844500,0.256844482421875,-0.4856552727431059,0.1242740299224853,0.5867483335644006,-0.0178211852908134,0.075392872095108,0.089799091219902
1772649436463816700,0.266816650390625,-0.3902829276561737,0.154861622018367,0.5286033839140087,-0.0086628422141075,0.0724721774458885,0.1052441000938415
1772649436473787600,0.27678759765625,-0.2603524794071912,0.118363856030628,0.4426708481498062,0.0015386631712317,0.0817317217588424,0.1144077703356742
1772649436483759600,0.286759521484375,-0.0999561657458543,0.1098596470575779,0.3231776958283037,0.0067893518134951,0.0878753736615181,0.1105254143476486
1772649436493731800,0.29673193359375,0.0491945312798023,0.0983433967869728,0.2434286710046231,0.0074561550281941,0.0955386683344841,0.1021623238921165
1772649436503702500,0.30670263671875,0.102097853949666,0.1243623657930642,0.2184349533930421,0.0193546265363693,0.1267392039299011,0.1007476523518562
1772649436513674800,0.3166748046875,0.1735492252230644,0.2166863561600446,0.1760707065246999,0.0416484735906124,0.1263980865478515,0.0992038995027542
1772649436523646700,0.326646728515625,0.1833826369732618,0.2355756924819201,0.0949253319717943,0.0555621571838855,0.1151584684848785,0.0976765751838684
1772649436533618700,0.33661865234375,0.0930886180639267,0.2632209475155919,-0.0182304340217262,0.0567229762673378,0.1207285225391388,0.1032359600067138
1772649436543589600,0.346589599609375,0.1593716467887163,0.3563583731573075,-0.0942565658647567,0.0648568049073219,0.1071687713265419,0.0874924212694168
1772649436553561600,0.3565615234375,0.3452402553588152,0.2734683468941599,-0.077910995741561,0.0788006782531738,0.0706075057387352,0.0535576380789279
1772649436563533600,0.366533447265625,0.4745686460614204,0.0992895185306668,-0.0681135320875793,0.0700074583292007,0.0333072692155838,-0.0017229277873411
1772649436573504800,0.3765048828125,0.4918862760871648,0.0436645888771861,-0.0809670223113149,0.0560528635978698,0.0078007513657212,-0.0573947839438915
1772649436583476500,0.3864765625,0.3332072877377271,0.1855970250871032,-0.0547344836197793,0.0716640427708625,-0.0212277062237262,-0.0844839215278625
1772649436593448700,0.39644873046875,-0.0331172567039728,0.1543730347838252,-0.0628273353129625,0.0947970747947692,-0.015072907321155,-0.0562121607363224
1772649436603420700,0.406420654296875,-0.3377642203897237,-0.0793432935670018,-0.2871948936253786,0.0660048350691795,0.0102215306833386,-0.0080456966534256
1772649436613391600,0.4163916015625,-0.3932610666841268,-0.1477244636148214,-0.4980418761074542,0.0172915216535329,0.0377176962792873,0.0282439403235912
1772649436623363800,0.42636376953125,-0.2131733796030283,-0.1009795174442231,-0.4873416914600879,-0.0134344324469566,0.0500912740826606,0.0362592563033103
1772649436633335600,0.43633544921875,0.0939975496023893,-0.1162879996046423,-0.2372873187053948,-0.0185281001031398,0.0253857560455799,0.0118194986134767
1772649436643306800,0.446306640625,0.332646146723628,-0.094141634248197,0.0590381721630692,-0.0071444171480834,-0.0108987484127283,-0.0349080562591552
1772649436653278500,0.456278564453125,0.3298994783639907,0.021474968900904,0.2503532095707952,0.0183547064661979,-0.0346950329840183,-0.0748726278543472
1772649436663250700,0.466250732421875,0.1804723024845123,0.0263289117380976,0.2810674237210303,0.0384320095181465,-0.0482076443731784,-0.0778702795505523
1772649436673221600,0.4762216796875,-0.061200026372075,-0.020287951073423,0.1974542708151042,0.049843493849039,-0.0693841278553009,-0.0502472482621669
1772649436683193600,0.486193603515625,-0.3376718659311533,-0.119254886586219,0.0686052611272782,0.0530728437006473,-0.0690626874566078,0.0037187812849879
1772649436693166300,0.496166259765625,-0.5461304919719696,-0.308860928118974,-0.0932820948094129,0.0340155847370624,-0.0279957577586174,0.0643766745924949
1772649436703138000,0.506137939453125,-0.4956874219357967,-0.4117361961819231,-0.1865981649536639,0.003088831435889,0.0017996896058321,0.110368937253952
1772649436713109200,0.516109130859375,-0.2466489482253789,-0.4068485702708363,-0.1710151767008006,-0.0077255251817405,0.0352557301521301,0.1227868497371673
1772649436723081200,0.526081298828125,0.0864309137403964,-0.3269705853052437,0.0289753345936536,-0.0045840605162084,0.0619600415229797,0.104131668806076
1772649436733053200,0.53605322265625,0.3550041090041398,-0.1836870998125523,0.2539222271639854,0.0104773361235857,0.079983115196228,0.0709246098995208
1772649436743025200,0.546025146484375,0.4732721765100955,0.0472370405364781,0.4826390667270869,0.0385129638016223,0.0766080915927887,0.0347761921584606
1772649436752996000,0.55599609375,0.3923942207217216,0.1811926526483148,0.6123463737446815,0.0894773080945015,0.0647447556257247,0.0229364391416311
1772649436762968000,0.565968017578125,0.2374474046379327,0.2012645498182624,0.7073652292188256,0.140408918261528,0.0525264367461204,0.0283953864127397
1772649436772940000,0.57593994140625,0.1199503215044736,0.1925415835279971,0.6413023460507392,0.1683227270841598,0.0303587112575769,0.0286190714687109
1772649436782911000,0.585910888671875,0.012454407903552,0.1903835287112742,0.4409873520422727,0.1633175909519195,0.0110374763607978,0.0370780676603317
1772649436792883200,0.59588330078125,-0.2555810272216797,0.1820620558939874,0.288268368075788,0.1548076272010803,0.0296303927898406,0.0710783675312995
1772649436802855200,0.605855224609375,-0.308650938630104,0.237622176682949,0.203594746331498,0.155218556523323,0.0414985045790672,0.0945069938898086
1772649436812826000,0.615826171875,-0.0954261211007833,0.21481603224352,0.069376318565011,0.1549074798822403,0.0343647301197052,0.0939827039837837
1772649436822798300,0.62579833984375,0.1400888541698455,0.1002793332856148,-0.1042706679441034,0.1481808722019195,0.0340709835290908,0.066690094769001
1772649436832770000,0.63577001953125,0.3539847028285264,-0.0287721401717513,-0.3064336279068142,0.1374717205762863,0.0424885153770446,0.0248671378940343
1772649436842742300,0.6457421875,0.5871013847857713,-0.1540939255814999,-0.4553841261852532,0.1165384799242019,0.0329109914600849,-0.0346569083631038
1772649436852713200,0.655713134765625,0.7505383813172578,-0.2333765750024467,-0.5512182435650378,0.0841622725129127,0.026723276823759,-0.1063064858317375
1772649436862685200,0.665685302734375,0.7411544669002295,-0.2105894275244325,-0.5324553831670433,0.0634508654475212,0.013568059541285,-0.1668446660041809
1772649436872657200,0.6756572265625,0.6284113002955913,-0.0551902645632624,-0.336237668409571,0.0574079453945159,-0.002008051611483,-0.2138402611017227
1772649436882628000,0.685628173828125,0.3122404875546694,0.018422011071071,-0.2218053066089749,0.0435331389307975,-0.0077700670808553,-0.2209263890981674
1772649436892600000,0.69560009765625,-0.1873936261802911,0.0247820476222783,-0.1661366839442402,0.0362424701452255,0.0048461258411407,-0.1785754710435867
1772649436902572000,0.705572021484375,-0.4597726434677839,0.0255481366239488,-0.0751634505990892,0.0252137891948223,0.0205039158463478,-0.1155459135770797
1772649436912544300,0.715544189453125,-0.4752881925076246,-0.017419044573605,-0.0092525431223213,0.0160939507186412,0.0278935134410858,-0.0712579190731048
1772649436922515200,0.72551513671875,-0.3359562941849232,-0.0939116979498416,0.0537068210724741,0.0110592441633343,0.0221876911818981,-0.0517920739948749
1772649436932487200,0.735487060546875,-0.1239466976642608,-0.1304031072620302,0.1682937889128923,0.0115122981369495,0.0052744429558515,-0.0579027347266674
1772649436942459100,0.745459228515625,0.0707025987327098,-0.1106982167735695,0.2643158300802111,0.018080186098814,-0.0184079837054014,-0.0776021406054496
1772649436952430300,0.755430419921875,0.1176274315148591,-0.0198253750629723,0.3985388609565794,0.0268066190183162,-0.0468037202954292,-0.0829913467168808
1772649436962402000,0.765402099609375,-0.0086111764788627,0.12851977773346,0.4747107579458504,0.0430953092873096,-0.0643954947590828,-0.0717650577425956
1772649436972374300,0.775374267578125,-0.1941027684301138,0.1432263484779745,0.4427088420726359,0.0650822818279266,-0.0640143677592277,-0.0334649085998535
1772649436982346000,0.785345947265625,-0.2948468696832657,0.0659254474587738,0.3419719012126326,0.0756214708089828,-0.0656271800398826,0.0108916386961936
1772649436992317200,0.795317138671875,-0.3343149567186832,0.0443574665121734,0.1304286070294678,0.0716483294963836,-0.0597745664417743,0.0439856350421905
1772649437002289200,0.8052890625,-0.2721481311410665,-0.0495523317415267,-0.0644355742271989,0.0565122589468956,-0.0391387939453125,0.0700350776314735
1772649437012261000,0.81526123046875,-0.1546674146205186,-0.1132660945001989,-0.1401582661442458,0.0492959469556808,-0.0112683605402708,0.0868640020489692
1772649437022232000,0.825232177734375,0.0640507396280765,-0.1674585071325302,-0.2271973749108612,0.036221157759428,0.001126523129642,0.0759748667478561
1772649437032204000,0.8352041015625,0.3275011850506067,-0.2091312646053731,-0.2836724185876548,0.0256919302046298,0.0025607743300497,0.0398715659976005
1772649437042176300,0.84517626953125,0.4528653482973575,-0.1680179676461964,-0.3144692695200443,0.0230298340320587,0.0200883708894252,-0.0009685403201729
1772649437052148200,0.855148193359375,0.4738870935380458,-0.115389224134013,-0.2329341649971902,0.0103490427136421,0.0246978737413883,-0.0318846218287944
1772649437062119200,0.865119140625,0.5045908593595028,-0.0770250797525048,-0.1611477165505289,0.0069521809928119,0.0128761017695069,-0.0635706484317779
1772649437072091100,0.875091064453125,0.3714595692425966,0.0049701165627688,-0.1063172252103686,0.0128279123455286,0.0132510745897889,-0.086706593632698
1772649437082063000,0.88506298828125,0.086593995347619,0.0326344416230916,-0.1015505222652107,0.0135227311402559,0.0274214893579483,-0.0737196877598762
1772649437092034000,0.895033935546875,-0.1658826361179351,0.0707535252023488,-0.0866867881976067,0.0049012750387191,0.049667440354824,-0.0420852452516555
1772649437102006300,0.90500634765625,-0.2250824285835027,0.1033132210887968,-0.0510781530693173,0.000816251616925,0.0648312121629715,-0.0192294605076313
1772649437111978000,0.91497802734375,-0.1339572195470333,0.0731743226084858,-0.0046162616237998,0.0046302690170705,0.0750454068183898,-0.0133908186107873
1772649437121950200,0.9249501953125,0.0120949269413948,0.0375377034947276,-0.0093441669285297,0.0089475195854902,0.0699686259031295,-0.0188961047679185
1772649437131921200,0.934921142578125,0.0721259095340967,-0.0116828390091657,-0.0503361025303602,0.0160960741341114,0.0649112239480018,-0.0318638235330581
1772649437141893000,0.94489306640625,0.136413965049386,-0.0898447407718747,-0.0567854978654533,0.0229691602289676,0.0472059920430183,-0.0492031313478946
1772649437151865300,0.954865234375,0.1557803442984819,-0.1503982859339565,-0.0746264941781759,0.0313947647809982,0.0224213786423206,-0.0646307542920112
1772649437161836000,0.9648359375,0.0774672705620527,-0.171952092224732,-0.1018582730401307,0.0345689840614795,0.0025004013441503,-0.066821202635765
1772649437171808300,0.974808349609375,-0.0611836597591638,-0.1856845572400838,-0.1947369016151875,0.0246943160891532,0.0004853392019867,-0.0549871176481246
1772649437181780200,0.9847802734375,-0.1791547901451587,-0.1392583946950733,-0.1822967414326965,0.0136656332761049,0.0075307320803403,-0.029033550992608
1772649437191752200,0.994752197265625,-0.1678583201050758,-0.0875520267248153,-0.1218695991292595,0.0148171782493591,0.0126701341941952,-0.0085497610270977
1772649437201723100,1.00472314453125,-0.0490583376795053,-0.0845120745070278,-0.0558246169440448,0.0251750107854604,0.001382858492434,-0.0072352248243987
1772649437211695000,1.014695068359375,0.0549549945026636,-0.0958324368793517,-0.0336463220793753,0.0275395270437002,-0.0129999825730919,-0.0102245509624481
1772649437221667000,1.0246669921875,0.0385872125476598,-0.1479571763921529,-0.047329541125521,0.022441703826189,-0.0180757008492946,-0.0098450500518083
1772649437231638300,1.03463818359375,-0.0557066896528005,-0.1518509689603001,-0.0828493289265781,0.010014277882874,-0.0154926544055342,0.0020867460407316
1772649437241610000,1.04460986328125,-0.1916138742238283,-0.1265294806990772,-0.1032684320989996,-0.0015427761245518,0.0091679506003856,0.0287591032683849
1772649437251582200,1.054582275390625,-0.2531336340695619,-0.1126074844609946,-0.0571924712311476,-0.0138509403914213,0.0357311777770519,0.0573244206607341
1772649437261553200,1.06455322265625,-0.1267868895262479,-0.0295046191647648,-0.0246226923421025,-0.0122754136100411,0.0502214357256889,0.0715188011527061
1772649437271525000,1.074525146484375,0.0942027167856693,0.0011124182213097,-0.0076427698381245,-0.0143984332680702,0.0565099120140075,0.0596445314586162
1772649437281497300,1.084497314453125,0.2026315273225307,-0.0154759476818144,-0.0026793022118508,-0.0193705558776855,0.0679551139473915,0.0492946878075599
1772649437291469000,1.094468994140625,0.2010316909104585,0.0306106807105243,0.0677948945924639,-0.014382155612111,0.0734098553657531,0.03870565071702
1772649437301440300,1.104440185546875,0.1702092671453952,0.0702994978245347,0.1492283653717488,0.0031600869260728,0.0785809159278869,0.0333955734968185
1772649437311412200,1.114412109375,0.2229208666354417,0.0156315035697072,0.2314304824359714,0.0199091881513595,0.0724857896566391,0.0140922181308269
1772649437321384200,1.12438427734375,0.339365810367465,-0.0539746051631867,0.1723079929903149,0.0325730517506599,0.060206476598978,-0.0227582082152366
1772649437331355100,1.134355224609375,0.4255658379614352,-0.0908756181895732,0.0396720121096819,0.0397019684314727,0.0490023531019687,-0.0623029693961143
1772649437341327000,1.1443271484375,0.3436749057382345,-0.1346123955201357,-0.0567281416550278,0.0350840464234352,0.0436099842190742,-0.0891263261437416
1772649437351299000,1.154299072265625,0.1614537137597799,-0.1616295817833393,-0.1532300022285431,0.0151505134999752,0.0356084965169429,-0.0974538996815681
1772649437361271000,1.16427099609375,-0.0517220039308071,-0.1992081287451088,-0.2020670253075659,-0.0107612442225217,0.0424589477479457,-0.0815814584493637
1772649437371242000,1.174241943359375,-0.2543026778489351,-0.1053117744948714,-0.2321757478453218,-0.0254353731870651,0.0487763583660125,-0.0464954897761344
1772649437381214200,1.184214111328125,-0.3402566217273473,0.0408703550487756,-0.1566245400376617,-0.0241434723138809,0.0477598309516906,-0.0132142296060919
1772649437391186200,1.194186279296875,-0.3325917861878871,0.0927353476468473,-0.0292187879607081,-0.0097224228084087,0.0337580479681491,0.0181681495159864
1772649437401157000,1.2041572265625,-0.2317483162134885,0.1107171406697481,0.0334187238685786,0.0086238272488117,0.0150655871257185,0.0370382443070411
1772649437411129300,1.21412939453125,-0.0981277812749147,0.1025772349644452,0.0018568799130618,0.0230968873947858,-0.0011153724044561,0.0470188148319721
1772649437421101000,1.22410107421875,0.0455751717388629,0.0905474822137504,-0.0322965879708528,0.0365490466356277,-0.0201764144003391,0.0468462444841861
1772649437431073300,1.2340732421875,0.1410930627763271,0.0354593628507107,-0.0713770639281719,0.0393612384796142,-0.0321874469518661,0.0386978387832641
1772649437441044000,1.2440439453125,0.1645318060308694,-0.025182591247186,-0.1480055455785244,0.038814228028059,-0.0354242511093616,0.0329917520284652
1772649437451016200,1.25401611328125,0.1873065324187278,-0.043102059623599,-0.1474071412939578,0.033427570015192,-0.03319001942873,0.0243892297148704
1772649437460988200,1.26398828125,0.2005558900922536,-0.0820841167077422,-0.1525984263267367,0.0261760465800762,-0.0302730575203895,0.0137839904054999
1772649437470959000,1.273958984375,0.1190565875351429,-0.069911448355019,-0.076946826884523,0.0197770800441503,-0.0245165936648845,0.0089314496144652
1772649437480931000,1.28393115234375,0.0157487732738256,-0.0238481277730315,-0.0447859210573136,0.0104656033217906,-0.0050749853253364,0.0095924464985728
1772649437490903000,1.293903076171875,-0.0597083265095949,0.0028137422464787,-0.0527824727691709,0.0001831012777984,0.0337799787521362,0.0268376115709543
1772649437500875300,1.303875244140625,-0.0225678056389093,0.0066073623757809,-0.03350238356404,-0.0063831890001893,0.0561955384910106,0.0344398692250251
1772649437510846200,1.31384619140625,0.1870943509727716,-0.0142386609718203,0.0421663862086832,-0.0032081159297376,0.0494521036744117,0.0133707681670784
1772649437520818200,1.323818115234375,0.4118944554835557,-0.06446158545129,0.1389827926240861,0.0108160898089408,0.0277998056262731,-0.0356162153184413
1772649437530790100,1.3337900390625,0.4528390448123216,-0.0579958965685218,0.1833013884305953,0.0233827605843544,0.0169588066637516,-0.073248453438282
1772649437540761300,1.34376123046875,0.2875871078133583,-0.0192322314754128,0.1862208560738712,0.0308491978794336,0.0143241425976157,-0.0940384194254875
1772649437550733000,1.353733154296875,0.0872083278536796,0.0041357115652412,0.0662290335152298,0.0255695283412933,0.0149800674989819,-0.092616505920887
1772649437560705300,1.363705322265625,-0.1062070428341627,0.0167819887790828,-0.0224710672661662,0.0182969681918621,0.014057814143598,-0.0749799907207489
1772649437570677000,1.373677001953125,-0.292048763397336,0.0418402229942381,0.0074536770068109,0.0176977515220642,0.0118974922224879,-0.0403303131461143
1772649437580648200,1.383648193359375,-0.4279933573693036,0.0299952522259205,-0.0358858446344733,0.0146042220294475,0.0207224078476429,0.0050353039987385
1772649437590620200,1.3936201171875,-0.4605149862676859,0.0307188903253525,-0.0885095466453582,0.0085824579000473,0.0243491269648075,0.0481421947479248
1772649437600592100,1.403592041015625,-0.3831704653024673,0.0366208078455179,-0.1190432165969163,0.0082735307514667,0.0187290571630001,0.0800998583436012
1772649437610563000,1.41356298828125,-0.234531809452176,0.0374848773289471,-0.1097951304540038,0.0139901153743267,0.0178498215973377,0.096511960029602
1772649437620535000,1.42353515625,0.0098369188815355,-0.0089968147955834,-0.093126173595339,0.0194762274622917,0.0044344142079353,0.0856995284557342
1772649437630507300,1.43350732421875,0.2151665992468595,-0.0579287496164441,-0.0889118438359349,0.0254042576998472,-0.0121366325765848,0.0591819174587726
1772649437640479000,1.44347900390625,0.337987507751584,-0.1073008294202387,-0.1075484475057572,0.031284250319004,-0.0314839631319046,0.0347332991659641
1772649437650450200,1.4534501953125,0.3148988931089639,-0.0775417971029877,-0.1564931687429547,0.0259584095329046,-0.0356182120740413,0.0138147380203008
1772649437660422100,1.463422119140625,0.205965640181303,-0.0686153441298753,-0.1661390220317989,0.0189186092466115,-0.0289515182375907,0.0062508289702236
1772649437670394000,1.47339404296875,0.0924029738873243,0.0296854556243866,-0.0717975543625652,0.0139521183446049,-0.0240217186510562,0.005576386116445
1772649437680365000,1.483364990234375,0.0169669168919324,0.0667393941901624,-0.0152657389972358,0.0174499154090881,-0.008298416621983,0.0149046406149864
1772649437690336500,1.49333642578125,0.0007522796720266,0.076854983882606,-0.0083449267581105,0.0112857222557067,-0.0065724430605769,0.0140243303030729
1772649437700308200,1.50330810546875,-0.0431049822330474,0.0752891228053718,-0.0059155076541006,0.0057135913521051,-0.0039124782197177,0.0250623319298028
1772649437710279400,1.513279541015625,-0.1551502297013998,0.0803678873743861,0.0049111529171466,-0.0017654234543442,0.0053359614685177,0.0477240905165672
1772649437720251400,1.52325146484375,-0.1586521003425121,0.0741597534492611,-0.0060983168751001,-0.0071727056056261,0.0017718533053994,0.0675087124109268
1772649437730223400,1.533223388671875,-0.0621329233080148,0.0303250687021762,-0.0594251987192779,-0.0173437856137752,-0.0023273983970284,0.0701817870140075
1772649437740195300,1.5431953125,0.0149134914934635,-0.0185079357888549,-0.0712904816232621,-0.0259892046451568,-0.005162333138287,0.0681465938687324
1772649437750166500,1.55316650390625,0.1096890397310256,-0.0023773235905915,-0.0275219209149479,-0.023516908288002,-0.0076941922307014,0.0573500618338584
1772649437760138200,1.56313818359375,0.2280798568338155,-0.0129703946016728,0.0128305477395653,-0.0163303688168525,-0.0120918694883584,0.0340703092515468
1772649437770110500,1.5731103515625,0.3088087595403194,0.010708733280003,-0.0169305304042994,-0.0119454078376293,-0.0097252335399389,0.0070043951272964
1772649437780081200,1.5830810546875,0.2825362541645765,0.037259909466654,-0.0328216347582638,-0.0089690592139959,-0.0060522011481225,-0.0127032622694969
1772649437790053400,1.593053466796875,0.2511316465973854,0.0143779963772743,-0.0032079291958361,-0.0002761767245829,-0.0186951048672199,-0.027904974296689
1772649437800025300,1.603025390625,0.2138537630826234,-0.0109776864144951,0.02808686132133,0.0073130335658788,-0.0339475609362125,-0.0328704379498958
1772649437809997300,1.612997314453125,0.0584346533119678,-0.0383866484742611,-0.0637591362703591,0.0100778620690107,-0.0404367744922637,-0.0247694253921508
1772649437819968500,1.622968505859375,-0.0628109687000513,-0.0303687617134302,-0.1033718924734741,0.004175498150289,-0.0465468652546405,-0.0103079294785857
1772649437829940200,1.632940185546875,-0.1837239977568387,-0.0428209045946598,-0.1499817410223186,-0.0038823904469609,-0.0419488921761512,0.0169957317411899
1772649437839912400,1.642912353515625,-0.3023299189150333,-0.0469287052396684,-0.210308199430257,-0.0253903456032276,-0.0242449976503849,0.0539577454328537
1772649437849883400,1.65288330078125,-0.3099146749556064,-0.0315858093529939,-0.230748637651652,-0.0419820956885814,-0.0056154215708374,0.087692454457283
1772649437859855400,1.66285546875,-0.1732704082816839,-0.0294752469398081,-0.1991584443844854,-0.0594071596860885,-0.0003410310018807,0.095365285873413
1772649437869827300,1.672827392578125,0.0266144506812095,-0.011226838869974,-0.0835310275804251,-0.0606057718396186,-0.0032387319952249,0.0802021920680999
1772649437879799300,1.68279931640625,0.1755477055639028,-0.0150313457194715,0.0695290249086916,-0.054019771516323,-0.0148381302133202,0.0551266707479953
1772649437889770200,1.692770263671875,0.2068810014605522,-0.0272059137683361,0.1541779506031423,-0.0497336946427822,-0.0195167027413845,0.0290164146572351
1772649437899742500,1.702742431640625,0.1858013885527849,0.0084724986605346,0.1739859361398965,-0.0414629839360713,-0.0206131264567375,0.0131743345409631
1772649437909714400,1.71271435546875,0.1299047292858362,0.0712709001399576,0.2084998348340392,-0.0360160581767559,-0.022545538842678,0.0076675796881318
1772649437919685400,1.722685302734375,0.0725268915504217,0.125656058865413,0.2463536185406148,-0.0220392569899559,-0.0149565944448113,0.0093877157196402
1772649437929657300,1.7326572265625,0.0597948357492685,0.1413509099949151,0.2147402635935693,-0.007104794960469,-0.0172335281968116,0.0118971187621355
1772649437939629300,1.74262939453125,0.1058037227302789,0.0812235543556511,0.1518268574323505,0.0034397249110043,-0.0229617208242416,0.0068083507940173
1772649437949601500,1.7526015625,0.1329968500822782,-0.0195696467362344,0.0240330558858811,0.0003326083533465,-0.0279998555779457,-0.0068298778496682
1772649437959572200,1.762572265625,0.1214852759867906,-0.057620633515343,-0.071114029077813,-0.002348395762965,-0.0273535065352916,-0.0142086977139115
1772649437969544400,1.77254443359375,0.0453086297571659,-0.0910381883401423,-0.1065833288006484,0.0014747930690646,-0.0301974862813949,-0.0048735695891082
1772649437979516200,1.78251611328125,0.0062900400549173,-0.0949580651976168,-0.1072884813953191,-0.0045796371996402,-0.030281376093626,-0.000659116951283
1772649437989487400,1.7924873046875,0.0189338330507278,-0.0813769182864576,-0.1340736855335533,-0.0137782990932464,-0.02555363625288,0.0001031517749652
1772649437999459300,1.802459228515625,-0.0127595283299684,-0.0318326967861503,-0.099276074527204,-0.0103103313595056,-0.0134772676974534,0.0077173961326479
1772649438009431300,1.812431396484375,-0.0138379712164402,-0.0756182086292654,-0.0758772248916327,-0.007985970005393,-0.0154594453051686,0.0114084864035248
1772649438019403500,1.822403564453125,0.0199567463576793,-0.1049958404134959,-0.0414379988688975,-0.0050588897429406,-0.0161372199654579,0.0153784602880477
1772649438029374500,1.83237451171875,0.0189823483675718,-0.0311597659606486,-0.0438466674458235,-0.0032077014911919,-0.0028546154499053,0.017619552090764
1772649438039346400,1.842346435546875,0.0671609806030988,-0.0052444034595042,-0.0183140206519514,0.0007691970095038,0.0017542513087391,0.0191580597311258
1772649438049318400,1.852318359375,0.1371469554990529,-0.0689521018035709,0.0094914664447307,0.0008287229575216,-0.0010697606485337,0.0075096902437508
1772649438059289300,1.862289306640625,0.1737906327635049,-0.070663143505156,0.0528942625805735,-0.0039969249628484,-0.0004340640734881,-0.0089675532653927
1772649438069261300,1.87226123046875,0.1309498544245958,-0.0153636464137583,0.1181331160146743,0.0030336519703269,0.0115482369437813,-0.0134669486433267
1772649438079233300,1.8822333984375,0.0984767408430576,0.0179546127550303,0.1513838629052042,0.0092233708128333,0.0215595923364162,-0.0155548676848411
1772649438089205200,1.892205322265625,0.0762274996340274,-0.0026012685395777,0.1226560733318328,0.0109619870781898,0.0271462760865688,-0.0146995326504111
1772649438099176400,1.902176513671875,-0.0063905778199434,-0.0364235317077487,0.0665957479357719,0.0149095896631479,0.0267276279628276,-0.000521395530086
1772649438109148200,1.912148193359375,-0.0232464355528354,-0.0650044601563364,0.0957202086765319,0.0269983727484941,0.0241447240114212,-0.0005002845427952
1772649438119120400,1.922120361328125,0.0989835213214159,-0.0808161425985395,0.0282576878435909,0.0241716932505369,0.0164963901042938,-0.0155873578041791
1772649438129091300,1.93209130859375,0.1998562173902988,-0.1217833090852946,-0.054590545104444,0.0179134719073772,0.0012879567220807,-0.0353377722203731
1772649438139063300,1.942063232421875,0.0707177963018417,-0.0844072258930653,-0.0450836618948727,0.0185475703328847,0.000806457363069,-0.0375410057604312
1772649438149035500,1.952035400390625,-0.0983043068856,-0.0206564190596342,-0.0244003548283129,0.0180670209228992,-0.0036523123271763,-0.0200768150389194
1772649438159006500,1.96200634765625,-0.1997130095273256,0.0276533652748912,-0.0453106025185435,0.0097185429185628,-0.0052488772198557,0.0032093324698507
1772649438168978400,1.971978515625,-0.2301139930099248,0.1053431925464421,-0.0850689777374267,0.0016091205179691,0.0009171986021101,0.0263971965759992
1772649438178950400,1.981950439453125,-0.1995394065260887,0.142465447108075,-0.1252755351152271,-0.0065302988514304,0.0070238267071545,0.0473339036107063
1772649438188922400,1.99192236328125,-0.1090010574668645,0.0763636932343244,-0.2018689454521983,-0.0179605856537818,0.026756253093481,0.0644795969128608
1772649438198893300,2.001893310546875,0.1112187335163354,0.0401071886565536,-0.19839688542746,-0.0249511189758777,0.023755669593811,0.0554906316101551
1772649438208865300,2.011865234375,0.3437368650585413,-0.0309087138090282,-0.1500463306911289,-0.0280883032828569,0.0065805753692984,0.0215944573283195
1772649438218837200,2.021837158203125,0.4665314700782298,-0.1022116895876824,-0.1097108862366527,-0.0246016923338174,-0.0162320621311664,-0.0226076245307922
1772649438228808400,2.031808349609375,0.429969625878334,-0.0994235201738774,-0.094717972831428,-0.0196467377245426,-0.0321178883314132,-0.0521057955920696
1772649438238780200,2.0417802734375,0.2489671620398759,-0.1357628807295113,-0.1614484530627727,-0.0268591120839118,-0.0290043875575065,-0.056290153414011
1772649438248752400,2.05175244140625,0.0536398202508687,-0.1667570077996701,-0.1948161773964762,-0.0404887832701206,-0.0174775887280702,-0.052464235574007
1772649438258724400,2.061724365234375,-0.0642775341212749,-0.1108306840468198,-0.1531725729528814,-0.0522666126489639,-0.0008469470776617,-0.0384578742086887
1772649438268695300,2.0716953125,-0.1104103397428989,-0.0539460366558283,-0.0497214777633547,-0.061688732355833,0.0184688530862331,-0.0242171734571456
1772649438278667500,2.08166748046875,-0.0810895527124404,-0.0213728237006813,0.0459765921466052,-0.0650650858879089,0.0276053585112094,-0.017525715753436
1772649438288639200,2.09163916015625,-0.0605143821954727,0.0713886082354933,0.1730062043875455,-0.0499278418719768,0.0217300690710544,-0.012565916404128
1772649438298610400,2.1016103515625,-0.0494715946555137,0.1182388414114713,0.286839796577394,-0.0332162380218505,0.0190325528383255,0.0010111455339938
1772649438308582400,2.11158251953125,0.0024105682730674,0.1015025914702564,0.3257620862983167,-0.0158259347081184,0.0050403429195284,0.0010786377824842
1772649438318554400,2.121554443359375,0.011995558220148,0.0552027587186545,0.3034562925964594,5.74244186282e-05,-0.0034982841461896,-0.0015765337739139
1772649438328526300,2.1315263671875,-0.0046726679861545,-0.0045283641446381,0.19898674107939,0.0058161225169897,-0.0121006332337856,0.001028103637509
1772649438338497300,2.141497314453125,0.0148760820925235,-0.0410892584964633,0.1280007953606546,0.0093879541382193,-0.0129278106614947,0.0069509739987552
1772649438348469200,2.15146923828125,0.0051291795819997,-0.089847955642268,0.0183916889980435,0.0020705549977719,-0.015007147565484,0.0114692784845829
1772649438358441500,2.16144140625,-0.0139583827257156,-0.0923820041645318,-0.1171272999729961,-0.0051516713574528,-0.0062325643375515,0.0233754720538854
1772649438368412200,2.171412109375,0.0057417585223913,-0.0695888653371483,-0.1489293093599379,-0.0172580443322658,0.0139357950538396,0.026189737021923
1772649438378384400,2.18138427734375,0.1395458333343267,-0.0845288064461201,-0.1761491785883903,-0.0305136628448963,0.0223500523716211,0.0120084024965763
1772649438388356400,2.1913564453125,0.2981862432390451,-0.0758928608521819,-0.1241407589316368,-0.0307019297033548,0.0207182317972183,-0.0183524265885353
1772649438398328300,2.201328369140625,0.3344511503189802,-0.0241544903084635,0.0098362612944096,-0.0221023168414831,0.0179738439619541,-0.0455531552433967
1772649438408299500,2.211299560546875,0.2370218727022409,-0.0101782796651124,0.0678293083187192,-0.0006969040259718,0.0023853653110563,-0.0518649369478225
1772649438418271200,2.221271240234375,0.0914443579882383,-0.0450076740492135,0.0974599650159478,0.0089024603366851,-0.009918438270688,-0.0480153374373912
1772649438428243500,2.231243408203125,-0.0596720861524343,-0.1085109358623623,0.012766323396936,0.0008582193404436,-0.0114176254719495,-0.0370458513498306
1772649438438214400,2.24121435546875,-0.2240565926671028,-0.1357286861989647,-0.1046058912478387,-0.0154941212385892,0.0011975024826824,-0.008821403607726
1772649438448186400,2.251186279296875,-0.3239139742136001,-0.1167955107353627,-0.0969040846988558,-0.030417138710618,0.0120636979117989,0.0197547599673271
1772649438458158300,2.261158447265625,-0.2941875289916992,-0.0614014672283083,-0.0254795283671468,-0.0353277400135993,0.0253198482096195,0.0477256774902343
1772649438468130300,2.27113037109375,-0.1491524505913257,-0.0062321723878383,0.0094491616729646,-0.0413764826953411,0.0313838049769401,0.0528525412082672
1772649438478101200,2.281101318359375,0.0678466247797012,-0.006755027218163,0.0646253246456384,-0.0364927761256694,0.0289491452276706,0.0443860851228237
1772649438488073500,2.291073486328125,0.18970833286345,0.0149822458807379,0.1809900427483022,-0.0139617398381233,0.0209656134247779,0.0293299779295921
1772649438498045400,2.30104541015625,0.297086173042655,0.0288365837100893,0.2121076500676572,0.0058258133940398,-0.0009865560568869,0.0025124775711447
1772649438508016400,2.311016357421875,0.2860539068967104,-0.0283682355459779,0.1535734819039702,0.0236559491604566,-0.0143527286127209,-0.0146178603172302
1772649438517988400,2.32098828125,0.1815145050138235,-0.0800215581547468,0.0668947308823466,0.033288337290287,-0.0158209297806024,-0.0191878452897071
1772649438527960300,2.330960205078125,0.0185030404180288,-0.1260291299615055,-0.0807136320721358,0.0266665294766426,-0.0066259047016501,-0.0060637220740318
1772649438537932300,2.340932373046875,-0.1010012908846139,-0.1223472265783697,-0.2161521762181073,0.0037606805562973,0.0133150462061166,0.0137201016768813
1772649438547903200,2.3509033203125,-0.1106231057107448,-0.1033341177463531,-0.2058506354995072,-0.01691703684628,0.020011868327856,0.0150675112381577
1772649438557875500,2.36087548828125,-0.0571907907307147,-0.0737788643728941,-0.1153952885486185,-0.0235283356159925,0.0260005183517932,0.0185671709477901
1772649438567847200,2.37084716796875,-0.0303437003374099,-0.0607339432302862,-0.0175736506134271,-0.0221444964408874,0.02918691188097,0.0154327740892767
1772649438577818400,2.380818359375,0.0468856698155403,-0.0199541890744119,0.0664896572127938,-0.010137103497982,0.0164852291345596,0.0125054270029068
1772649438587790300,2.390790283203125,0.0980494553416967,0.0053407765060663,0.1125055584564805,0.0045369993895292,-0.0022197386715561,0.0067638396285474
1772649438597762300,2.40076220703125,0.0648258156538009,0.0103020521752536,0.0987310809303075,0.0136601915583014,-0.0143179465085268,0.0048234607093036
1772649438607734500,2.410734619140625,0.0309293912708759,-0.0163575528219342,-2.0458266139e-05,0.0172859281301498,-0.0155479218810796,0.0047876159660518
1772649438617705500,2.42070556640625,0.0455085362434387,-0.0626460604619234,-0.098115067923814,0.0039719869382679,-0.0120839485898613,0.0036214177962392
1772649438627677400,2.430677490234375,0.0491021768212318,-0.0468562975905835,-0.1862888067435473,-0.0130755044519901,0.0016972259618341,0.0083428779616951
1772649438637649400,2.4406494140625,0.0454617744922637,-0.0414417982611805,-0.1756749121401458,-0.0234160274267196,0.0076009216718375,0.0068528391420841
1772649438647620400,2.450620361328125,0.0880219823241233,-0.0640545390203595,-0.0922248408414423,-0.0226463954895734,-0.0006230424623936,0.0004861562047153
1772649438657592300,2.46059228515625,0.1060895539343357,-0.0262638106126338,-0.0681317253313958,-0.0217558331787586,-0.0085203805938363,-0.0012962974142283
1772649438667564300,2.470564208984375,0.0370025737047195,0.0095829441204667,-0.0386865812689065,-0.0091203730553388,-0.0188087299466133,0.0007959838258102
1772649438677536300,2.480536376953125,-0.0433709396928548,-0.0172809512771666,-0.0369685253046453,0.0009221411310136,-0.0384356938302516,0.0090946601703763
1772649438687507500,2.490507568359375,-0.0847965905368328,-0.0759273476436734,-0.1327364455804228,-0.0018261305522173,-0.0315294452011585,0.0265430007129907
1772649438697479200,2.500479248046875,-0.0962123030424118,-0.1100391683429479,-0.2191407635748386,-0.0212533585727214,-0.0128604201599955,0.041287325322628
1772649438707451400,2.510451416015625,-0.0314443550556898,-0.0717198129512369,-0.179897936662659,-0.0317539051175117,0.0001933854073286,0.0434031635522842
1772649438717422300,2.52042236328125,0.0665238517433405,-0.0814411426290869,-0.0868630215473473,-0.0431953743100166,0.0189196690917015,0.0378858931362628
1772649438727394300,2.530394287109375,0.2002285578340291,-0.1019801458541303,0.0024937895771116,-0.0528244525194168,0.0222913362085819,0.0138681959360837
1772649438737366500,2.540366455078125,0.2421364392369985,-0.0218189600329846,0.146613579763472,-0.0499082915484905,0.0164765901863574,-0.0118741849437356
1772649438747337200,2.550337158203125,0.2249585099428892,0.0149473206978291,0.3039088586695492,-0.0386001616716384,0.0061665130779147,-0.0354283638298511
1772649438757309400,2.560309326171875,0.1203682546555995,0.064440469598025,0.3625279286377131,-0.0170946065336465,-0.0006461190059781,-0.0391450710594654
1772649438767281400,2.570281494140625,-0.0473784217685461,0.0998984442092478,0.3333260918118059,-0.000514674000442,-0.0080706188455224,-0.0267018247395753
1772649438777253400,2.58025341796875,-0.1508428878962993,0.0599319791976362,0.2514646779440343,0.013577708043158,-0.0137617941945791,-0.0007349389488808
1772649438787224300,2.590224365234375,-0.2083224324405193,0.0017037351779639,0.1755980475116521,0.0252449009567499,-0.0124689349904656,0.0221929922699928
1772649438797196300,2.6001962890625,-0.108994627726078,-0.0486209691755473,0.0348692880030721,0.0228480566293001,-0.0128164775669574,0.0316370949149131
1772649438807168300,2.610168212890625,-0.0004494973331689,-0.0936158568084239,-0.1318885235141962,0.0183881446719169,-0.0084781795740127,0.0325041413307189
1772649438817139500,2.620139404296875,0.1146650745779275,-0.1795207008481025,-0.2117530644763261,0.0099906660616397,-0.0067689632996916,0.0252150669693946
1772649438827111400,2.630111328125,0.1933802993744611,-0.1887232673488557,-0.2141830681022256,0.0024942639283835,-0.0012125058565288,0.0178699195384979
1772649438837083400,2.64008349609375,0.2242068147927522,-0.1535547772035002,-0.2042717688102275,-0.0052073313854634,0.0149408979341387,0.0012129122624173
1772649438847055400,2.650055419921875,0.2159030968278646,-0.0820903272528201,-0.1803631430216133,-0.0125298229977488,0.0137283224612474,-0.0152889480814337
1772649438857026300,2.6600263671875,0.1651356171429157,-0.061255117560178,-0.0657392041716724,-0.0066921738907694,0.0121357515454292,-0.023560993373394
1772649438866998500,2.66999853515625,0.081526775085926,-0.0232889595203101,0.048349166496843,-0.0087478095665574,0.0055257054045796,-0.0231472589075565
1772649438876970200,2.67997021484375,-0.0156160868048667,0.0384957348719239,0.0614442834567278,-0.0047306972555816,-0.0054390612058341,-0.0179738029837608
1772649438886941400,2.68994140625,-0.1360784494847059,0.0745079823650419,0.1356219378888607,0.0036730766296386,-0.0123706776648759,-0.0025623701512813
1772649438896913400,2.699913330078125,-0.2005751793146133,0.0808881849214434,0.1380577867336571,0.006741571240127,-0.0082555608823895,0.0223493706434965
1772649438906885400,2.709885498046875,-0.1531219387441873,0.0543055906832218,0.1022859238676726,0.0034358934499323,-0.0079818814992904,0.0311925914138555
1772649438916857600,2.719857666015625,-0.054293900245428,0.0302929930634796,0.0526049242451786,0.0008955039083957,-0.0023423712700605,0.0353122353553772
1772649438926828300,2.729828369140625,-0.0032657237976789,-0.0040852965522557,0.0142107500515878,-0.0059968228451907,0.0055193942971527,0.0405511483550071
1772649438936800500,2.739800537109375,0.0491939467579126,-0.0325185601584613,-0.0208572753939777,-0.0041350070387125,0.0171835087239742,0.0393023900687694
1772649438946772200,2.749772216796875,0.1527057591587305,-0.0325654680401086,-0.0153392426248639,0.0012120557948946,0.01866390183568,0.0279890615493059
1772649438956743400,2.759743408203125,0.2566623927175998,-0.0682117317650467,-0.0429078522257506,0.0105099491775035,0.0130089474841952,0.0057889502495527
1772649438966715400,2.76971533203125,0.2791606402516365,-0.1054456300076097,-0.0868461434777826,0.0052006072364747,0.0115278111770749,-0.0155249182134866
1772649438976687400,2.779687255859375,0.2082137113690376,-0.0881321647003293,-0.0943677711542695,0.0079364720731973,0.0197172984480857,-0.0181164406239986
1772649438986659300,2.789659423828125,0.0991378351002931,-0.0302426511157304,-0.0308604176878929,0.0160805750638246,0.016366634517908,-0.0151031808927655
1772649438996630500,2.799630615234375,0.0601858808934688,-0.0633919834583997,0.0339208281718194,0.021779740229249,0.0041935918852686,-0.0180318597704172
1772649439006602200,2.809602294921875,0.060004679107666,-0.0861329537071287,0.0640068274211138,0.0244072712957859,-0.0074945692904293,-0.024455526843667
1772649439016574500,2.819574462890625,0.0384393285095691,-0.0560823180321604,0.0750038761232048,0.0260483138263225,-0.0149950962513685,-0.0298462975770235
1772649439026545400,2.82954541015625,-0.1100882681816816,-0.0509258851170539,0.0913612828146666,0.0244693383574485,-0.000529937678948,-0.0114179281517863
1772649439036517400,2.839517333984375,-0.2131266178518533,-0.0366860551014542,0.0040834699213504,0.0149892838671803,0.0169071108102798,0.0145191308110952
1772649439046489600,2.849489501953125,-0.1960346132755279,-0.0397859208129346,-0.0352737771507352,0.0060376450419425,0.0246712751686573,0.0264109950512647
1772649439056461300,2.85946142578125,-0.0741109458714723,-0.0153672996755689,0.005968333819881,0.0090081356465816,0.0258137732744216,0.0333772897720336
1772649439066432500,2.8694326171875,0.026678748089075,0.0212054312445223,0.0460254727896302,0.0165061485022306,0.016110174357891,0.0227067824453115
1772649439076404200,2.879404296875,0.1009486839145421,-0.0180427294299006,0.049728857352212,0.0264402702450752,-0.0029245046898722,0.0117326937615871
1772649439086376400,2.88937646484375,0.1212818623691797,-0.0501316659994423,0.0556300442200154,0.0386066101491451,-0.0262769535183906,0.0084732007235288
1772649439096347400,2.899347412109375,0.0504582676053047,-0.0706859398588538,-0.0310091785088181,0.0400428511202335,-0.0413041040301322,0.0077711911872029
1772649439106319400,2.9093193359375,-0.0497948352605104,-0.1101576801560819,-0.1597510014951229,0.0308653488755226,-0.0395084023475647,0.0306821931153535
1772649439116291300,2.919291259765625,-0.1278624098032713,-0.1176291850805282,-0.2247961589880287,0.0144709283486008,-0.0303394049406051,0.04457563534379
1772649439126263300,2.92926318359375,-0.1289338384270668,-0.0784865306071937,-0.2566972448352724,-0.0096888933330774,-0.0082398224622011,0.0613999962806701
1772649439136234200,2.939234130859375,-0.0733744482904672,0.0189227271348237,-0.1930976830407977,-0.0150575600564479,0.010122406296432,0.0670754611492157
1772649439146206500,2.94920654296875,0.0469429529607295,0.0548235501427203,-0.0614648147881031,-0.016274806112051,0.0134596228599548,0.0632553473114967
1772649439156178400,2.959178466796875,0.1844914749979972,0.0063709232714027,-0.0157329181175678,-0.0179416760802268,0.0062922569923102,0.0430837646126747
1772649439166149400,2.9691494140625,0.2607534614235162,-0.0199742820143699,0.0587190962765365,-0.0158531609922647,-0.0060564028099179,0.021010210737586
1772649439176121600,2.97912158203125,0.2606172678232192,0.0089997374050319,0.1823920185007154,-0.0049480497837066,-0.0166192986071109,0.0021283992100507
1772649439186093300,2.98909326171875,0.1977589528501033,0.037735052697733,0.2377571281742304,0.0046883048489689,-0.0238602980971336,-0.0063331848941743
1772649439196064500,2.999064453125,0.1585690982341766,0.0649233577441424,0.2230076681360602,0.0218087024986743,-0.0328777618706226,-0.0098586771637201
1772649439206036200,3.0090361328125,0.147889298787713,0.1036119848396629,0.1658947649471461,0.042910449206829,-0.0390028096735477,-0.0110294092446565
1772649439216008400,3.019008544921875,0.1531540874481201,0.0063243807159364,0.1195482435096055,0.0428971350193023,-0.0308538004755973,-0.0228293426334857
1772649439225980200,3.028980224609375,0.0935410380065441,-0.0924714360136538,-0.0968882295425981,0.0214530657976865,-0.0053357896395027,-0.0311758778989315
1772649439235951400,3.038951416015625,0.0001817863076925,-0.130037050428614,-0.2639380097437649,-0.0030714506283402,0.0217525530606508,-0.0223986320197582
1772649439245923300,3.04892333984375,-0.0959270563602447,-0.1505037921350449,-0.240307762505114,-0.0152035197243094,0.0337111912667751,-0.0061881057918071
1772649439255895300,3.058895263671875,-0.065748775717616,-0.0984122973047196,-0.1203811141371726,-0.0156994014978408,0.0271052196621894,0.0063489913009107
1772649439265866200,3.0688662109375,-0.013724573969841,-0.0641965047743171,-0.0314917743939906,-0.0062705823220312,0.0182281993329525,0.0098417997360229
1772649439275838500,3.07883837890625,-0.0283341140806674,-0.0259284411784261,0.0313568959679454,0.0085632242262363,0.0042047901079058,0.0184896159917116
1772649439285810400,3.088810546875,-0.0441752418130636,-0.060852747304365,0.044965588473156,0.0105046108365058,-0.0033502504229545,0.02635751478374
1772649439295782400,3.098782470703125,-0.0098544545382261,-0.1080864268399774,-0.0463591617234051,0.0036866525188088,-0.0029907238204032,0.0359161309897899
1772649439305753300,3.10875341796875,0.042300095590949,-0.0617556874934583,-0.0173938370671123,-0.0006580217741429,-0.0004093558527529,0.03324756026268
1772649439315725300,3.118725341796875,0.1719353602856397,-0.0408719624839723,0.0538628884170204,0.0043756188824772,0.0042117610573768,0.0162549931555986
1772649439325697500,3.128697509765625,0.3169926505178213,-0.0457425641950219,0.092221625971049,0.024934995919466,0.0075782840140163,-0.0125882364809513
1772649439335668200,3.138668212890625,0.403038948854804,-0.0960936450988054,0.07803885990493,0.0329846665263175,0.0091641973704099,-0.0474815070629119
1772649439345640400,3.148640380859375,0.3683826460152864,-0.1646187536619603,0.0410578404448926,0.0467703267931938,0.0084271524101495,-0.0724404081702232
1772649439355612200,3.158612060546875,0.1940793875545263,-0.2250422427035868,-0.0449023870438337,0.0475319847464561,0.024639144539833,-0.0780144110321998
1772649439365584400,3.16858447265625,0.0768535225778818,-0.2019904529400169,-0.12914222048074,0.0372411645948886,0.0358631312847137,-0.0756441280245781
1772649439375555300,3.178555419921875,-0.0120949269413948,-0.1921259884644299,-0.2260054617125541,0.0259682685136795,0.0519938953220844,-0.0629078224301338
1772649439385527300,3.18852734375,-0.0619581512629985,-0.1970955935705453,-0.2202396647274494,0.0120927579700946,0.0590496510267257,-0.0512753017246723
1772649439395499500,3.19849951171875,-0.1171031153798103,-0.1470430572219193,-0.1949501790396869,-0.0114575754851102,0.0528199821710586,-0.034055832773447
1772649439405470500,3.208470458984375,-0.1851636751711368,0.0648502925079315,-0.0952813788678497,-0.0242823380976915,0.0464683584868907,-0.0136715164408087
1772649439415442400,3.2184423828125,-0.1805582272022962,0.2395182195626199,0.067067457100749,-0.0166968572884798,0.0400456115603446,0.0029527340084314
1772649439425414400,3.228414306640625,-0.1468956115752458,0.2515943687383085,0.2105155585706233,-0.0043845316395163,0.0207273066043853,0.0167212765663862
1772649439435386400,3.238386474609375,-0.0897796396464109,0.2267122948076576,0.2235205130290239,0.0066113942302763,0.0038364753127098,0.0284237395972013
1772649439445357300,3.248357421875,-0.0211561852753162,0.2097287921071052,0.1595484646603465,0.0012698336504399,-0.0003504659980535,0.027723716571927
1772649439455329500,3.25832958984375,0.0696820235133171,0.1890104137271642,0.1111588200226426,0.0093472013249993,-0.0073820101097226,0.0201603397727012
1772649439465301200,3.26830126953125,0.1086181956291198,0.1418087367650121,0.1057097608365118,0.0144759165123105,-0.0113482559099793,0.0095066288486123
1772649439475272400,3.2782724609375,0.1012158104181289,0.0761729199025779,0.0512336358919739,0.016284205019474,-0.0153856072574853,0.0039259754121303
1772649439485244200,3.288244140625,0.0819546451091766,0.0105050274014472,-0.0652082391001284,0.0092113148421049,-0.0130328573286533,-0.0003378040564712
1772649439495216400,3.29821630859375,0.0809434222400188,-0.0247920575596392,-0.1718718665953725,0.0001608282327651,-0.0109673105180263,-0.0051535982638597
1772649439505188400,3.308188232421875,0.1448193898230791,-0.0787679778970777,-0.2160303764693439,-0.0057691023685038,-0.0125838108360767,-0.0142700150609016
1772649439515159300,3.3181591796875,0.1397843182653188,-0.1803928075075149,-0.2645019272368401,-0.0211411342024803,-0.0144131360575556,-0.0231721643358469
1772649439525131500,3.328131591796875,0.0880488703310489,-0.211764827979356,-0.2754763257157057,-0.0368551351130008,-0.0125269833952188,-0.0203494876623153
1772649439535103200,3.338103271484375,0.0689478640198707,-0.1668820224188268,-0.2205353597383946,-0.0407324321568012,-0.0129368435591459,-0.0208629444241523
1772649439545074400,3.348074462890625,0.0332265622973442,-0.1272500500585884,-0.0571168487116694,-0.0280551817268133,-0.0160968340933322,-0.0167617052793502
1772649439555046400,3.35804638671875,-0.0204442376136779,-0.1446260592080652,0.054142436010763,-0.0183178670704364,-0.0193869024515151,-0.0120431156828999
1772649439565018400,3.368018310546875,-0.0693985303968191,-0.1034164622675627,0.1067625578250735,-0.0038272878155112,-0.0158622562885284,0.0029690873343497
1772649439574990300,3.377990234375,-0.1016314054816961,-0.0609140490375459,0.1580845295876264,0.009390247054398,-0.0170718617737293,0.0146925887092947
1772649439584961500,3.38796142578125,-0.0944108065783977,-0.0643383974630385,0.200988874682039,0.0197693258523941,-0.015354043804109,0.028475634753704
1772649439594933200,3.397933349609375,-0.086025255548954,-0.0667760729387402,0.2464028645098209,0.0279697310179471,-0.016300531104207,0.0403757020831108
1772649439604905500,3.407905517578125,-0.0479711269646883,-0.0403789913352578,0.2568324155222624,0.0386599190533161,-0.0165678784251213,0.0425345487892627
1772649439614876200,3.417876220703125,0.0240554138481616,-0.000503930934146,0.2077802153225988,0.0406628847122192,-0.0136674297973513,0.0389118492603302
1772649439624848400,3.427848388671875,0.1028209075272083,-0.0289423821721225,0.1166324291281402,0.0407161526381969,-0.0105824582278728,0.0330477468669414
1772649439634820400,3.4378203125,0.2006879920393228,-0.0662313716027885,-0.0155069273419678,0.0288232769817113,-0.005100873298943,0.0170346964150667
1772649439644792300,3.447792236328125,0.2456657824069261,-0.0620105390373617,-0.1469308290190994,0.0187967903912067,0.0129036465659737,0.0007656742236576
1772649439654763500,3.457763427734375,0.2460544894635677,-0.0431856462538242,-0.1624074342880398,0.0079662483185529,0.0280554331839084,-0.0210805032402277
1772649439664735200,3.4677353515625,0.2158621802955865,-0.068913669489324,-0.1342580291245132,0.0082399621605873,0.0275130271911621,-0.0285100676119327
1772649439674707500,3.47770751953125,0.1548977162450552,-0.0495928098823875,-0.0932177243363112,0.0082444893196225,0.0208066590130329,-0.0402705855667591
1772649439684678400,3.487678466796875,0.0646247401237487,-0.0819029149219393,-0.0964441390369087,0.0107702445238828,0.0070074209943413,-0.0367687009274959
1772649439694651400,3.4976513671875,-0.0759399148643016,-0.0815535900276154,-0.1155732023987919,0.0107816960662603,0.0005788165144622,-0.0215894840657711
1772649439704623400,3.507623291015625,-0.2121381913363933,-0.0814605049166828,-0.1706738159172237,0.0031684460118412,0.0061404439620673,0.0032091022003442
1772649439714595300,3.51759521484375,-0.2398012742877006,-0.161215667220205,-0.2195141999971121,-0.0085566528141498,0.0070440541021525,0.0251785833388566
1772649439724566500,3.52756640625,-0.1513835706442594,-0.2306121517904102,-0.204153768453747,-0.0130083933472633,0.0038597122766077,0.0399274341762065
1772649439734538200,3.537538330078125,-0.0237198982834815,-0.2460318392403423,-0.1314373456805944,-0.0105753298848867,0.0036149681545794,0.0370685309171676
1772649439744510500,3.547510498046875,0.095191727823019,-0.2276807014483958,-0.0993255396921187,-0.0061958967708051,0.0024994080886244,0.0229490995407104
1772649439754481400,3.5574814453125,0.1849368806779384,-0.224019256331399,-0.0782203539516776,0.0007240609265863,-0.0044152233749628,0.0080630956217646
1772649439764453400,3.567453369140625,0.2032791775763034,-0.2409971330087632,-0.0852317670837044,-0.0008575972169637,-0.0081617245450615,-0.00903404597193
1772649439774425600,3.577425537109375,0.119649292731285,-0.2150387350834905,-0.0936348537698388,-0.0211162641644477,0.0063264044001698,-0.0173420421779155
1772649439784396300,3.587396240234375,0.0370733008533716,-0.1046490728024393,-0.0636513650469482,-0.0442697033286094,-0.0020465657580643,-0.0184321552515029
1772649439794368500,3.597368408203125,-0.0808440535187721,0.062224839375168,0.1089467699963599,-0.0476444624364376,-0.0042993337847292,-0.0116317737847566
1772649439804340500,3.607340576171875,-0.2447556818246841,0.2390077858224511,0.3309942147981375,-0.0344672724604606,-0.0133199552074074,0.0155621469020843
1772649439814312400,3.6173125,-0.4295183749794959,0.3591506342243403,0.4368643538281321,-0.0141079407185316,-0.0155937615782022,0.0635262131690979
1772649439824283400,3.627283447265625,-0.4795055179417133,0.4433641641762107,0.4281653529353439,0.0021909619681537,-0.0123255560174584,0.1147317066788673
1772649439834255400,3.63725537109375,-0.3792547531634569,0.3971128467414528,0.3588795621979981,0.0107245296239852,-0.01087839435786,0.1404133737087249
1772649439844227300,3.647227294921875,-0.1192231762737035,0.2664931741192937,0.2363729803394526,0.0145271532237529,-0.0066063245758414,0.1457946300506591
1772649439854198500,3.657198486328125,0.2161982803821563,0.183274573488906,0.0938868557695299,0.0162198580801486,0.0006965952925384,0.1252230405807495
1772649439864170200,3.667170166015625,0.5169394688010216,0.1212049246754497,-0.0378358096584677,0.0106706954538822,-0.0041137197986245,0.0757032111287117
1772649439874142500,3.677142578125,0.6785404820770025,0.0452105031449347,-0.1335882401041686,0.0052365148440003,-0.0089585427194833,0.0199350211769342
1772649439884114400,3.687114501953125,0.6977461178064346,0.0275966666515916,-0.211525685461238,0.0006201327778398,-0.0064484328031539,-0.0313829034566879
1772649439894085400,3.69708544921875,0.6041366907387972,-0.03162117292732,-0.2615606130879372,-0.0078670950606465,-0.0004573857877403,-0.0693718269467353
1772649439904057600,3.7070576171875,0.4756429972946643,-0.0809317318022251,-0.319024156345427,-0.0172913260757923,0.0018324931152164,-0.0894434750080108
1772649439914029300,3.717029296875,0.3299637757718563,-0.1245562078647315,-0.3437442446473985,-0.0239726658910512,0.0058085927739739,-0.1042759492993354
1772649439924000500,3.72700048828125,0.1490665258735418,-0.1521218948561698,-0.298253097930178,-0.0339703857898712,0.0127572650089859,-0.1091141551733017
1772649439933972500,3.736972412109375,-0.0062222355157136,-0.1472113264609128,-0.1779020866703242,-0.0385632775723934,0.0037408675998449,-0.100316397845745
1772649439943944400,3.7469443359375,-0.2117477307140827,-0.1437399240233004,-0.04272255878672,-0.0395411252975463,-0.0017546452581882,-0.0767430141568183
1772649439953916400,3.75691650390625,-0.3723082950264215,-0.1061875344160944,0.0576035362500697,-0.038227654993534,0.0014781658537685,-0.0390939079225063
1772649439963887400,3.766887451171875,-0.4584779274821281,-0.0127317635402083,0.1293454149026423,-0.0362168364226818,0.0053269281052052,-8.29756609164e-05
1772649439973859300,3.776859375,-0.3783019824832677,0.0570942715536803,0.2001891026064753,-0.0227622799575328,0.0003856993280351,0.0246759001165628
1772649439983831300,3.786831298828125,-0.2031920838147401,0.0834830237202346,0.2787196915511041,-0.0074030691757798,-0.015871588140726,0.0370914228260517
1772649439993802200,3.79680224609375,-0.0574731148034334,0.1094384990360587,0.2769829308863729,0.0090994741767644,-0.0261247605085372,0.0390709489583969
1772649440003774500,3.8067744140625,0.0469809468835592,0.0741495243161916,0.2241613682158291,0.0244240500032901,-0.0422030165791511,0.0331499800086021
1772649440013746400,3.816746337890625,0.088783614346385,0.0307688669469207,0.1247531186763197,0.0257937163114547,-0.0428328551352024,0.0287200771272182
1772649440023718400,3.826718505859375,0.0622808073461055,-0.0258938813216984,-0.0292411459229886,0.0201387647539377,-0.0224804766476154,0.0308393351733684
1772649440033689600,3.836689697265625,0.0972849007099866,-0.0617037381105124,-0.1617429059647023,0.001836456824094,-0.0024620275944471,0.0322196520864963
1772649440043661300,3.846661376953125,0.1783195083647966,-0.0912058730572462,-0.1974086781077086,-0.0053329411894083,0.0122782438993453,0.0210112202912569
1772649440053633500,3.856633544921875,0.2994534866958856,-0.1014573640890419,-0.1619922045506537,-0.0015382030978798,0.0238544736057519,0.0018377907108515
1772649440063604500,3.8666044921875,0.4213239626079798,-0.1300504944320768,-0.1586613065622746,0.0007029050029814,0.0213555470108985,-0.0298361051827669
1772649440073576400,3.876576416015625,0.5126157603830099,-0.1749175179015845,-0.1047558211125433,-0.0023727796506136,0.0087510729208588,-0.0759956166148185
1772649440083548400,3.88654833984375,0.39181905118227,-0.1313755324907601,-0.0397740842446684,-0.0041240807622671,0.0092286113649606,-0.1056833788752555
1772649440093519400,3.896519287109375,0.1038087495207786,-0.0066921180497854,0.0864624048572033,0.0021660393103957,0.0107644572854042,-0.0952099710702896
1772649440103491300,3.9064912109375,-0.1666886918038129,0.0644609278641641,0.2037679109413176,0.0187519341707229,0.0074911988340318,-0.0637598112225532
1772649440113463300,3.91646337890625,-0.3302577902823686,0.0589567774899303,0.2918145893152803,0.0359644778072834,0.002077258657664,-0.0247101467102766
1772649440123435500,3.926435546875,-0.4009206415265798,0.0415852983850985,0.2291968781650066,0.046896606683731,0.0049937581643462,0.0088655920699238
1772649440133406500,3.936406494140625,-0.375237334215641,-0.0151037533685564,0.1274733374204486,0.0510841608047485,0.0145592996850609,0.0358311645686626
1772649440143378400,3.94637841796875,-0.251492296603322,-0.1002739995233714,0.0138863404028117,0.0483442544937133,0.0137848993763327,0.0497406236827373
1772649440153350400,3.956350341796875,-0.0801636700391769,-0.1683224304854869,-0.0753720518484711,0.0404831320047378,0.0054974080994725,0.0486852154135704
1772649440163321600,3.966321533203125,0.0823906984388828,-0.1238628187730908,-0.1537250922691077,0.0318780168890953,0.0091392556205391,0.0325031504034996
1772649440173293300,3.976293212890625,0.1830892069846391,-0.0850296686403453,-0.1533958603147417,0.0219124685972929,0.0205849893391132,0.0131536843255162
1772649440183265500,3.986265625,0.2933259437263011,-0.0198843387085944,-0.137958637208119,0.0161747857928276,0.0047827982343733,-0.0083630457520484
1772649440193237200,3.9962373046875,0.2750876917243003,0.0931624139524996,-0.0667807491138577,0.0177503116428852,-0.0038756714202463,-0.0228439848870039
1772649440203208400,4.00620849609375,0.1520639541238546,0.2423969168040901,0.0604020809274166,0.0380361564457416,-0.0014701052568852,-0.0130072385072708
1772649440213180400,4.016180419921875,0.0940443113535642,0.2781656378649175,0.0933870164886117,0.0459771677851676,-0.0137776378542184,-0.0057669016532599
1772649440223152400,4.02615234375,0.120509124431014,0.1760597467392683,-0.0208544258497655,0.0422535315155983,-0.0246036201715469,-0.0052120797336101
1772649440233123300,4.036123291015625,0.1021826096236705,0.07053213753663,-0.1822970336936414,0.0267291665077209,-0.0255985762923955,-0.0062653599306941
1772649440243095300,4.04609521484375,0.103858433881402,-0.0055069268532097,-0.19927578715384,0.019646918401122,-0.0417135395109653,-0.0011008854489773
1772649440253067500,4.056067626953125,0.106333299562335,-0.0791400991450995,-0.1483866538506001,-0.0089120231568813,-0.0320846140384674,-0.0184431243687868
1772649440263039200,4.066039306640625,0.019379238730669,-0.0609627835500985,-0.2399026888355612,-0.0327919423580169,-0.0001656892709434,-0.0255491286516189
1772649440273010400,4.076010498046875,0.0190577516913414,-0.0040015637915581,-0.2367559883076697,-0.0478587783873081,0.0135354753583669,-0.0311220604926347
1772649440282982400,4.085982421875,0.0483335305362939,-0.0793905667748302,-0.1218381080124527,-0.053168412297964,0.00402641762048,-0.0344774760305881
1772649440292954400,4.095954345703125,0.0579167669177055,-0.1203476502589881,-0.0027524405132979,-0.0426212288439273,-0.0047518936917185,-0.0381276048719882
1772649440302925300,4.10592529296875,0.0583551583349704,-0.1344209646012634,0.0201028037648648,-0.0327540636062622,-0.0276717282831668,-0.043064147233963
1772649440312897500,4.1158974609375,-0.0019569792866706,-0.20930486760661,-0.0439382912520319,-0.0270173475146293,-0.0397995002567768,-0.0418457500636577
1772649440322869200,4.125869140625,-0.0929091698437929,-0.260884029000625,-0.0984382354635745,-0.0339500047266483,-0.0402594208717346,-0.0228154156357049
1772649440332841500,4.135841552734375,-0.1669008732497692,-0.2254444668289273,-0.144618022032082,-0.0461145229637622,-0.0257968548685312,-0.0044715628027915
1772649440342812400,4.1458125,-0.153219553899765,-0.1453020587734877,-0.1032850179076194,-0.0507257394492626,-0.0067417188547551,0.0143015570938587
1772649440352784400,4.155784423828125,-0.0794505533337593,-0.1044303154852241,0.0221400086808949,-0.0511830039322376,0.0053442385978996,0.0206534620374441
1772649440362756600,4.165756591796875,0.062774143821001,-0.0677579235829412,0.1216225655656307,-0.050717145204544,0.0168545395135879,0.0097746876999735
1772649440372727300,4.175727294921875,0.2126560777306556,-0.041835327623412,0.2305820489130914,-0.0397065691649913,0.0092900963500142,-0.014396428130567
1772649440382699500,4.185699462890625,0.3068278148561716,-0.0346754459314048,0.3386950714990496,-0.0229416508227586,-0.0065504321828484,-0.0502484738826751
1772649440392671200,4.195671142578125,0.1985346133977174,-0.0586490997802466,0.3360929992418736,-0.0067781284451484,-0.0149564333260059,-0.0650463253259658
1772649440402642400,4.205642333984375,-0.0117073889285325,-0.0396265655327588,0.2599956287935376,0.0018698442727327,-0.0134039502590894,-0.0548968613147735
1772649440412614400,4.215614501953125,-0.1758195082426071,-0.0327788185298442,0.1422522427488118,-0.0019070510752499,-0.0066195470280945,-0.0265975780785083
1772649440422586400,4.22558642578125,-0.2805214072108268,-0.0038566023629158,0.0395735201712697,-0.0015803724527359,0.0041180774569511,0.0059948842972517
1772649440432558300,4.235558349609375,-0.2306137592256069,0.0380870079405605,0.0209565710499882,0.005817356519401,0.0170455947518348,0.0293318983167409
1772649440442529500,4.245529541015625,-0.0627671295583248,0.0183675044048577,-0.0801809865001589,0.0145897511392831,0.0141979558393359,0.0422251857817173
1772649440452501200,4.255501220703125,0.1308452250063419,-0.0574823940884321,-0.1480236657571047,0.0160174705088138,0.0100111998617649,0.0352301262319088
1772649440462473500,4.265473388671875,0.2430921325266361,-0.1500987184654921,-0.2289090741995721,-0.0019755919929593,0.0179186128079891,0.0123743070289492
1772649440472444400,4.2754443359375,0.2632388484984636,-0.2118840704448521,-0.3057907999586314,-0.0226518418639898,0.029611486941576,-0.003157780971378
1772649440482416400,4.28541650390625,0.2934662289798259,-0.1593524306315928,-0.2925141889519989,-0.0371410846710205,0.0257491506636142,-0.0202981159090995
1772649440492388600,4.295388671875,0.2950871081799268,-0.0962592109240591,-0.2113113851234316,-0.0452485531568527,0.0280969925224781,-0.0411866195499897
1772649440502360300,4.3053603515625,0.2170084277212619,-0.0398130280155688,-0.0478133060544729,-0.0398332402110099,0.030570825561881,-0.0466374419629573
1772649440512331500,4.31533154296875,0.0825409205645322,0.0175834413550794,0.1007055228084325,-0.0196424834430217,0.0372564233839511,-0.0382341034710407
1772649440522303200,4.32530322265625,0.0482493593841791,0.020779387852177,0.1796229191135615,-0.0044675120152533,0.0331657417118549,-0.0340405963361263
1772649440532275500,4.335275390625,0.0772872378200292,-0.0227160550031811,0.161417035011202,0.0047227907925844,0.0170661322772502,-0.0431054644286632
1772649440542246400,4.345246337890625,0.0327080913811922,-0.0352900706984102,0.1523413828257471,0.0159270651638507,0.0030568158254027,-0.0418590046465396
1772649440552218400,4.35521826171875,-0.091767598593235,-0.0268164029940962,0.0930161373496055,0.0190847776830196,0.0058696470223367,-0.0287975296378135
1772649440562190300,4.3651904296875,-0.204546421033144,0.004000833139196,-0.0236104465596377,0.0080799125134944,0.0101643661037087,-0.0096989152953028
1772649440572162300,4.375162353515625,-0.2316927866339683,0.018092779116705,-0.080051076510176,0.0046500279568135,0.0068473983556032,0.0156160285696387
1772649440582133200,4.38513330078125,-0.1881745474249124,0.0267544436737895,-0.0059925184130668,0.0082600601017475,0.0017920257523655,0.0388390831649303
1772649440592105500,4.39510546875,-0.0597784691363573,0.0116147422090172,0.0334553295519202,0.0062222084961831,-0.0100563783198595,0.0419957265257835
1772649440602077400,4.405077392578125,0.0368587813198566,0.0210303669385612,0.0169693280447274,0.0114711178466677,-0.0147323478013277,0.03998389467597
1772649440612048400,4.41504833984375,0.0776098939031362,0.0430227838423103,0.0194964353695511,0.0192233137786388,-0.0226035863161087,0.0414891131222248
1772649440622020600,4.4250205078125,0.0784761553436517,0.0088294954046607,-5.21685786545e-05,0.0216792467981576,-0.0302490442991256,0.0349545590579509
1772649440631992300,4.434992431640625,-0.0002560205876827,-0.0476170528300106,-0.0873481016505509,0.0164956711232662,-0.0224382579326629,0.0407804884016513
1772649440641964500,4.444964599609375,0.0074222589552402,-0.0628490356881171,-0.1533413536485284,0.0009920070879161,-0.0119788125157356,0.0392603874206543
1772649440651935200,4.454935302734375,0.0169610716730356,-0.0736954238731414,-0.16284765233621,-0.0105282953009009,-0.0018691869918256,0.0391615852713584
1772649440661907500,4.464907470703125,0.0260106395691633,-0.0292865924999117,-0.113451899395883,-0.0146343894302845,0.0083040334284305,0.0449095256626606
1772649440671879200,4.474879150390625,0.120216278964281,-0.0085070585172623,-0.050303807695955,-0.0125656453892588,0.0050531132146716,0.037299808114767
1772649440681850400,4.484850341796875,0.2630132230490446,-0.013018982983753,-0.0070723495390266,-0.0056457463651895,-0.0052729472517967,0.0142039339989423
1772649440691822300,4.494822265625,0.3068266458123922,0.0066151072908192,0.0099845837239176,-0.0019593988545238,-0.0064961370080709,-0.0060896188952028
1772649440701794300,4.504794189453125,0.2694265972226858,0.0063441083297133,-0.0185913762886077,-0.0036247316747903,-0.0028049158863723,-0.017804741859436
1772649440711765500,4.514765625,0.1459825883835554,-0.0320913477223366,-0.0359596405230462,-0.0061222440563142,0.0070772757753729,-0.0191293992102146
1772649440721737500,4.524737548828125,0.0379220266371965,-0.0359542336955666,0.0008029138807207,-0.0012747063301503,0.0147476652637124,-0.0054881912656128
1772649440731709400,4.53470947265625,-0.0139233114123344,-0.0880338188923895,0.0160527977216988,-0.0030435777734965,0.0208961069583892,-0.0077867652289569
1772649440741681700,4.544681640625,0.015526070433855,-0.1361205350607633,-0.0125754769999533,-0.0110096912831068,0.03656492754817,-0.0107996575534343
1772649440751652400,4.55465234375,0.0493885925471782,-0.0938912396837025,0.0237127378903329,-0.0132504748180508,0.0449589453637599,-0.0166772548109293
1772649440761624600,4.56462451171875,0.0625660540282726,-0.0078334701046347,0.0686022654525935,-0.0079617034643888,0.0430742241442203,-0.0254973787814378
1772649440771596500,4.574596435546875,0.1051134023785591,0.0010559387937188,0.1290901249673217,0.0017138277180492,0.0359377525746822,-0.0354080647230148
1772649440781567500,4.5845673828125,0.1123416000664234,0.0346394978351891,0.1107334342174232,0.0107338558882474,0.0202464684844017,-0.042646549642086
1772649440791539500,4.59453955078125,0.0734592039644718,0.0108456575326621,0.0720868926979601,0.0148516353219747,0.002622200641781,-0.0449323430657386
1772649440801511400,4.604511474609375,-0.0406032285451889,-0.0215996181938797,-0.0303020531527698,0.0066443961113691,-0.0058874231763184,-0.033656682819128
1772649440811483400,4.6144833984375,-0.1190308685719966,-0.06438464775756,-0.0648344373516738,-0.0068831299431622,-0.012142390012741,-0.0261234007775783
1772649440821454600,4.62445458984375,-0.2199497418701648,-0.096872593582049,-0.1537594329301267,-0.0340779908001422,-0.0043606664985418,-0.0123618673533201
1772649440831426300,4.63442626953125,-0.2709182970851659,-0.0416126247834414,-0.1652078786615282,-0.0549068413674831,0.0160271637141704,0.0139728002250194
1772649440841398500,4.6443984375,-0.2512678401976824,0.0376718512684106,-0.0582488484162837,-0.0578334257006645,0.0261237174272537,0.0351565144956111
1772649440851369500,4.654369384765625,-0.1329834060788154,0.0821466605499386,-0.0148886493131518,-0.0498362183570861,0.0214586593210697,0.0436852872371673
1772649440861341400,4.664341552734375,0.0190302791625261,0.045540173490718,0.0137954472489655,-0.0385091006755828,-0.0004798367153853,0.0376956425607204
1772649440871313700,4.674313720703125,0.1075046814292669,0.0201647630851715,0.0016444792713969,-0.0302335955202579,-0.0196660477668046,0.0229957923293113
1772649440881285400,4.684285400390625,0.1450175427436828,-0.0311604966130107,-0.0767086342144757,-0.0363024733960628,-0.029227215796709,0.0110906055197119
1772649440891256600,4.694256591796875,0.0397013112694025,-0.0853116273868829,-0.1531887934353202,-0.0475322231650352,-0.0243925116956233,0.0153607185930013
1772649440901228500,4.704228515625,-0.0383721084922552,-0.0806914202403277,-0.1582742069408297,-0.0637630224227905,-0.010722067207098,0.027933694422245
1772649440911200500,4.714200439453125,-0.0025397476106882,-0.0584735970828682,-0.1680277583878487,-0.0750646814703941,0.0064321523532271,0.0345950610935688
1772649440921171500,4.72417138671875,0.1488216112017631,-0.0610354834601283,-0.1416704973381012,-0.0865007042884826,0.0246874280273914,0.0288434531539678
1772649440931143400,4.734143310546875,0.3294564107716083,-0.0428241925302892,-0.0803042475536465,-0.089118592441082,0.0229332037270069,0.0020147687755525
1772649440941115400,4.744115478515625,0.4593652317106723,0.0058324324805289,0.046242330410704,-0.0759526714682579,0.0150017319247126,-0.0340199694037437
1772649440951087400,4.75408740234375,0.4678671025961637,-0.0251983733382076,0.1049736285816878,-0.0624089017510414,0.0103609068319201,-0.0728983879089355
1772649440961058300,4.764058349609375,0.3109831809699535,-0.0437060899313539,0.1120524809267371,-0.0498873591423034,0.0135211423039436,-0.0800197944045066
1772649440971030500,4.774030517578125,0.0973673182964324,0.0183067871935665,0.1303944124989211,-0.0386893004179,0.0080462154000997,-0.0736633613705635
1772649440981002500,4.78400244140625,-0.0597977583587169,-0.0184175540916621,0.0951729500573128,-0.027076106518507,0.0053524728864431,-0.0590668022632598
1772649440990973400,4.793973388671875,-0.1476303555905818,-0.070775444773212,0.0687586250580847,-0.0224094502627849,0.0089168483391404,-0.0297608450055122
1772649441000945700,4.803945556640625,-0.1425058521836996,-0.0548950079437345,0.0745593472260981,-0.0170549415051937,0.0082785012200474,-0.0140282716602087
1772649441010917400,4.81391748046875,-0.109582072225213,-0.055334641470015,0.0038167087439447,-0.0084092561155557,0.0107965199276804,0.0006321634864434
1772649441020888600,4.823888671875,-0.028525252738595,-0.0947562590152025,-0.0343765360500663,-0.0018772110342979,0.0021227439865469,0.009597803466022
1772649441030860500,4.833860595703125,-0.0250000012218952,-0.1448778420120477,-0.0633740824755281,-0.0080432277172803,0.0033808210864663,0.0120998434722423
1772649441040832500,4.84383251953125,-0.0411672921687364,-0.1385334414213895,-0.0737681968484073,-0.0128036411479115,0.0097543653100728,0.0153581267222762
1772649441050804500,4.853804443359375,0.0146446114242076,-0.0418281672302633,-0.0199006322562694,-0.0104781687259674,0.0052815866656601,0.0065446617081761
1772649441060775400,4.863775390625,0.0496644868791103,0.0244457283399999,0.0762728000804781,0.0003526336513459,-0.0085266027599573,-0.0034327856265008
1772649441070747400,4.873747314453125,0.0628290888786315,0.0490477432202547,0.0889398278214037,0.0087937889620661,-0.0159136783331632,-0.0095460722222924
1772649441080719400,4.88371923828125,0.0546107111096382,0.0551421145725995,0.0257451205007731,0.0069305514916777,-0.0126307755708694,-0.0030411346815526
1772649441090690300,4.893690185546875,0.027156302472949,0.0489713900484144,-0.0119310416165739,0.0057707447558641,-0.0132054854184389,0.0065148202702403
1772649441100662500,4.90366259765625,0.048823944401741,-0.0234473649524152,0.0343753670062869,0.0164424460381269,-0.018450953066349,0.0111553557217121
1772649441110634500,4.913634521484375,0.0872679490864276,-0.0715737555440515,0.0361114700838923,0.0211988519877195,-0.0194262024015188,0.0118863936513662
1772649441120606500,4.9236064453125,0.1678869616776704,-0.151234736758098,-0.0506388848692178,0.0169785879552364,-0.0072483788244426,0.0011336646275594
1772649441130577700,4.93357763671875,0.2239297514170408,-0.2178833839248865,-0.1337753601741045,0.0105952555313706,0.0051185418851673,-0.0183960944414138
1772649441140549400,4.94354931640625,0.2652203777045011,-0.2033001472990959,-0.1586860026121139,0.0013958192430436,0.0116666806861758,-0.041174117475748
1772649441150521600,4.953521484375,0.2933247746825218,-0.1810258447140455,-0.122464130956307,-0.0068008578382432,0.0151916397735476,-0.0685567334294319
1772649441160492500,4.963492431640625,0.235011117401719,-0.1443511877894401,-0.0674894088398665,-0.0033811763860285,0.005877184215933,-0.0825642272830009
1772649441170464500,4.973464599609375,0.0817500624477863,-0.1078826478961855,0.0073201137550175,-0.0062051923014223,0.0080604441463947,-0.0789854750037193
1772649441180436500,4.9834365234375,-0.0856049843102693,-0.0595679681908339,0.088127561590448,-0.0173105616122484,0.0065080188214778,-0.0572880767285823
1772649441190408400,4.993408447265625,-0.2277361579626798,0.0401057273518294,0.1519766411665827,-0.0157414264976978,0.0121296858415007,-0.0229857638478279
1772649441200379400,5.00337939453125,-0.3147463328957557,0.1319105161502957,0.2274207353379577,-0.004405427724123,0.0201906096190214,0.013207565061748
1772649441210351400,5.013351318359375,-0.2826069813132286,0.1173303482644259,0.197251807045564,0.0017715077847242,0.0261270627379417,0.0428727827966213
1772649441220323600,5.023323486328125,-0.1469955648183822,0.0982870634898543,0.1374527335125953,0.0071653318591415,0.0315618440508842,0.0513578169047832
1772649441230294500,5.03329443359375,0.0270341373980045,0.0768731040611863,0.0553716855447739,0.0080255325883626,0.0266200862824916,0.0449502505362033
1772649441240266500,5.0432666015625,0.1593500194787979,0.0347420083615928,0.0475758440367877,0.0080793220549821,0.0259194411337375,0.0255231093615293
1772649441250238500,5.053238525390625,0.2525672323584556,0.0402883904423564,0.0005270926140248,-0.0035288643557578,0.0267375651746988,-0.0016818789299577
1772649441260210400,5.06321044921875,0.2322790620893239,0.0336612273875623,-0.0209049139279872,-0.0030775559134781,0.016240507364273,-0.0219546742737293
1772649441270181400,5.073181396484375,0.1547808118671178,0.0472362368188798,-0.0342032253097742,-0.0021470475476235,0.0106209712103009,-0.0315812043845653
1772649441280153600,5.083153564453125,0.0696001904487609,0.0360744260091334,-0.1665969218671321,-0.0120528312399983,0.0072309067472815,-0.0262230820953845
1772649441290125300,5.093125244140625,-0.0409007501870393,0.0040256753195077,-0.2607234316114336,-0.029893347993493,0.0187091305851936,-0.0116223003715276
1772649441300096500,5.103096435546875,-0.0820458305239677,-0.0324606924913823,-0.2624437525980174,-0.0447169840335845,0.034254752099514,0.004053562413901
1772649441310068500,5.113068359375,0.0333656785070896,-0.0393422686986625,-0.209837878504768,-0.0534052774310112,0.0444818250834941,0.0067090005613863
1772649441320040400,5.12304052734375,0.212120071157813,-0.0522941047303378,-0.1191060527000576,-0.0525709763169288,0.0298239011317491,-0.0119166737422347
1772649441330011600,5.13301171875,0.3407616486400365,-0.0478683241773396,0.001220993162319,-0.0393004454672336,0.0169326048344373,-0.0408356711268425
1772649441339983400,5.1429833984375,0.3242249398589134,-0.0689993750113993,0.0507970711056143,-0.0287721175700426,0.0048822853714227,-0.0634089335799217
1772649441349955600,5.15295556640625,0.1446761819601059,-0.1166403932388871,0.0001003185693174,-0.0263933818787336,-0.0066460059024393,-0.0665988698601722
1772649441359927300,5.16292724609375,-0.1250835927397012,-0.1063016623150557,-0.0125172440066933,-0.027353711426258,-0.006214341148734,-0.0450987182557582
1772649441369898500,5.1728984375,-0.3267068198025226,-0.0609155103422701,0.0370111223373562,-0.0254317075014114,0.0059549733996391,-0.0013517690822482
1772649441379870500,5.182870361328125,-0.3824707926005125,-0.0182495040483772,0.0865174960453063,-0.0271435417234897,0.0203908924013376,0.0304948948323726
1772649441389842400,5.192842529296875,-0.293068754094839,0.0141376117501407,0.1973131087787449,-0.0188216976821422,0.0261430535465478,0.0540811792016029
1772649441399813400,5.2028134765625,-0.1067529862791299,0.0412453989062458,0.2616404733911156,-0.0052636545151472,0.025636114180088,0.0499795377254486
1772649441409785600,5.21278564453125,0.1137070432007312,0.036670053814724,0.2166905939437448,0.0114724477753043,0.0169376973062753,0.0297981016337871
1772649441419757600,5.222757568359375,0.2867477343797683,-0.006470145862177,0.1649128412377089,0.0207710973918437,0.0037071262486279,0.0013075552415102
1772649441429729500,5.2327294921875,0.2993570405840873,-0.0308067147392779,0.1194768587738275,0.0329127125442028,-0.0115916691720485,-0.0211977530270814
1772649441439700500,5.242700439453125,0.2023854436069727,-0.025420345525816,0.0681502108361572,0.0453900657594203,-0.0160953141748905,-0.0271798484027385
1772649441449672400,5.25267236328125,0.1129822360575199,-0.0629154519878327,-0.0086844609107822,0.0499440729618072,-0.0177488718181848,-0.0292949303984642
1772649441459644700,5.262644775390625,0.0623193857908248,-0.1232194063030183,-0.0796320473805069,0.0516636073589324,-0.0246213115751743,-0.0265085212886333
1772649441469615400,5.272615478515625,0.0355839390784502,-0.1739363248445093,-0.1640856696985662,0.0448142252862453,-0.0278269574046134,-0.0211997758597135
1772649441479587600,5.282587646484375,-0.038044191712141,-0.2015699625056236,-0.2357676348574459,0.0242417864501476,-0.0111762965098023,-0.0099670588970184
1772649441489559300,5.292559326171875,-0.1286900927990674,-0.1781697246305644,-0.2191242508314549,0.0080247335135936,0.0187315344810485,0.0114016123116016
1772649441499531500,5.302531494140625,-0.0313993468701839,-0.0593201309096068,-0.1082394254446029,-0.0021520492155104,0.0330457724630832,0.016359569504857
1772649441509502500,5.31250244140625,0.1450438462287187,-0.0232239314600825,0.0079174220610409,-0.0037472827825695,0.0375132225453853,-0.0031483522616326
1772649441519474400,5.322474365234375,0.2631277893394231,-0.0009810469266027,0.0867157220311462,0.000706854276359,0.0424203649163246,-0.0249511189758777
1772649441529444400,5.3324443359375,0.3315764716655016,0.0205924869779497,0.1439751940838992,0.0008828891441226,0.0340505838394165,-0.0600627660751342
1772649441539416600,5.34241650390625,0.2959843492805957,0.0348194575119763,0.1629570309948176,0.0066763618960976,0.0208866335451602,-0.0825180560350418
1772649441549388300,5.35238818359375,0.0947018984794616,0.0498637357782572,0.2253942710116505,0.0179591104388237,0.0072733522392809,-0.079907089471817
1772649441559359500,5.362359375,-0.1759323209673166,0.0406038130670785,0.2412980156514793,0.029524965211749,0.0027515036053955,-0.049868669360876
1772649441569331500,5.37233154296875,-0.369623585987091,0.028258053169772,0.1185473959039896,0.0327766835689544,0.0134342415258288,-0.0094615910202264
1772649441579303400,5.382303466796875,-0.3260252672791481,-0.0081212740700691,-0.0579716389100998,0.0238706916570663,0.0245525650680065,0.0239669177681207
1772649441589275600,5.392275634765625,-0.1256985097676515,-0.0903207607857883,-0.1736976207178086,0.0127157755196094,0.0318975634872913,0.0278287660330533
1772649441599246600,5.40224658203125,0.1583656846165657,-0.1594615900944918,-0.215781224013865,-0.001064843032509,0.0330568626523017,0.0036799209192395
1772649441609218600,5.412218505859375,0.3472960188448429,-0.1501812821824103,-0.1744884788345545,-0.0013053265865892,0.0257590040564537,-0.0281690880656242
1772649441619190500,5.4221904296875,0.3282598944634199,-0.1249682227317243,-0.0940141354110091,0.002097699791193,0.024253275245428,-0.0496963486075401
1772649441629161500,5.432161376953125,0.1681523346155881,-0.1200645224686711,-0.0472651706524193,-0.000200608279556,0.0261941868811845,-0.0507067516446113
1772649441639133400,5.442133544921875,-0.0192418760865926,-0.060845806106925,-0.0560725272905081,-0.0029598963446915,0.0319092608988285,-0.0374766066670417
1772649441649105700,5.452105712890625,-0.1372013160347938,-0.0474046521883457,-0.0333542803302407,-0.0040983976796269,0.0287092067301273,-0.0188294183462858
1772649441659076400,5.462076416015625,-0.131915484586358,-0.0339428938731551,0.0150906746912747,-0.0073728123679757,0.0227770954370498,-0.0102627063170075
1772649441669048600,5.472048583984375,-0.1089127946615219,-0.015344795582816,0.0203568515911698,-0.0150997079908847,0.0214897245168685,0.0035455178003758
1772649441679020300,5.482020263671875,-0.0759533588677644,0.0405677919056266,0.0395444402072578,-0.0181221365928649,0.0210394188761711,0.0109390718862414
1772649441688992500,5.491992431640625,-0.0170136786431074,0.0897993672601878,0.0870915696062147,-0.0135761201381683,0.0259659998118877,0.0184672959148883
1772649441698962700,5.501962646484375,0.075021630975604,0.0730377636820077,0.126058063795045,0.0018837959505617,0.020059373229742,0.0122205847874283
1772649441708934700,5.5119345703125,0.1944037972033023,0.0424638347852975,0.0763875855665653,0.0075488723814487,0.0086194993928074,-0.008650342002511
1772649441718907000,5.521906982421875,0.24439035564363,-0.0410834132775664,0.0155431676991283,0.0103629752993583,-0.0004444883670657,-0.0273365564644336
1772649441728878800,5.53187890625,0.2003571526497602,-0.0670433455727994,-0.0393494290918111,0.0088252667337656,-0.0098960474133491,-0.042375162243843
1772649441738849800,5.541849853515625,0.1195130991309881,-0.0552478399693965,-0.1012247974421828,0.0071136150509119,-0.0132082421332597,-0.0485991016030311
1772649441748821800,5.55182177734375,0.0009989479094743,-0.0441876629032194,-0.1353597798213362,0.0027534873224794,-0.003314065746963,-0.041273545473814
1772649441758793700,5.561793701171875,-0.071567691129446,-0.0532092468138784,-0.1345130998641252,-0.0034069828689098,0.0055428221821784,-0.0239073913544416
1772649441768764700,5.5717646484375,-0.0667179130107164,-0.0617367635972797,-0.1483580853432416,-0.0112020559608936,0.0128249702975153,-0.0105697475373744
1772649441778737000,5.58173681640625,-0.0324245982646942,-0.0792250009495764,-0.1017574430141597,-0.0081032719463109,0.0141260717064142,-0.0053770868107676
1772649441788708600,5.59170849609375,0.0407663101524114,-0.0710802729386836,-0.0144417092632502,-0.004270717035979,0.0043615917675197,-0.0024473434314131
1772649441798679800,5.6016796875,0.0880365953713655,-0.0756310681108385,0.0264254309151321,0.0068656606599688,-0.0024998695589601,-0.0043643591925501
1772649441808651800,5.61165185546875,0.0737625708252191,-0.1215280922152101,0.028837168231979,0.0100382845848798,-0.0019504593219608,-0.0062346970662474
1772649441818623700,5.621623779296875,0.0678407795608043,-0.1493055953264236,-0.0129516168359667,0.0030364766716957,0.0014648037031292,-0.0101256752386689
1772649441828596000,5.631595947265625,0.043051790741086,-0.1364888569165021,-0.0441337407588958,-0.0053032119758427,0.0061732726171612,-0.0131334494799375
1772649441838566700,5.641566650390625,0.040323242560029,-0.0880856952100992,-0.0326372911673039,-0.0187069028615951,0.021667543798685,-0.012638634070754
1772649441848539000,5.651538818359375,0.0381605115681886,-0.0227341751817613,0.0519555204257369,-0.0288982857018709,0.0432237014174461,-0.0168917030096054
1772649441858510800,5.6615107421875,0.0988905823409557,0.0463193411696702,0.1136572857748717,-0.0316245704889297,0.0498970821499824,-0.0231180880218744
1772649441868482800,5.67148291015625,0.1000192941099405,0.1297604254443198,0.2030334591869264,-0.0266505852341651,0.049175102263689,-0.0284422785043716
1772649441878454800,5.681454833984375,0.0731172586590051,0.2081683378573507,0.3077167265199124,-0.007051738910377,0.0427152104675769,-0.030980696901679
1772649441888426800,5.6914267578125,0.0521598108261823,0.2141130716059356,0.2733455972973257,0.0092015331611037,0.0439455918967723,-0.0311133209615945
1772649441898397700,5.701397705078125,0.0970054992467164,0.1413100665278732,0.1571663918294012,0.0161046534776687,0.0387961827218532,-0.0390643328428268
1772649441908369700,5.71136962890625,0.1437158124953508,0.0708409112248569,-0.0206463360570371,0.013609005138278,0.0381186753511428,-0.0447610989212989
1772649441918342000,5.721341796875,0.1872042410880327,-0.0523040416024625,-0.1303080128571018,0.0044517330825328,0.0433464273810386,-0.0574631355702877
1772649441928313900,5.73131396484375,0.2079150206834077,-0.1208342647321522,-0.1878949267659336,-0.0038506714627146,0.0440851859748363,-0.0778224691748619
1772649441938284800,5.741284912109375,0.1562467927664518,-0.1381597127381712,-0.1941459134520962,-0.0112899076193571,0.0534984171390533,-0.0874288827180862
1772649441948256800,5.7512568359375,0.0359901817917823,-0.1807224047880619,-0.1368552060108631,-0.0148470913991332,0.0436391271650791,-0.0838663727045059
1772649441958228700,5.761228759765625,-0.1307102004498243,-0.1384269853722304,-0.0603395736178383,-0.0084229623898863,0.0463560372591018,-0.0614609718322753
1772649441968199700,5.77119970703125,-0.2767868968576192,-0.0768805567152798,0.0154313048224896,0.0034310333430767,0.0443128608167171,-0.0329236015677452
1772649441978172000,5.781171875,-0.2956114243149757,-0.1273481766708195,0.0623037863628938,0.0197652801871299,0.0285133235156536,-0.0031051584519445
1772649441988143600,5.7911435546875,-0.2507102063149213,-0.1477749516930431,0.0974681117897853,0.0316344536840915,0.0063166767358779,0.0171769428998231
1772649441998115800,5.80111572265625,-0.211689278525114,-0.1485864142064005,0.0622942513495683,0.0384075194597244,-0.0007818390149623,0.0340194143354892
1772649442008086800,5.811086669921875,-0.1523480317622423,-0.1536961584355682,-0.0026065292365849,0.0385047197341918,-0.001821270911023,0.0454385168850421
1772649442018058800,5.821058837890625,-0.0854103385210037,-0.1746138587798923,-0.080847852911055,0.0282328594475984,0.0108695374801754,0.0500700585544109
1772649442028031000,5.831031005859375,0.0275514392703771,-0.1368736184503883,-0.1217735914088785,0.0216641705483198,0.0234974473714828,0.0494948141276836
1772649442038001700,5.841001708984375,0.169782566165924,-0.0929297742404043,-0.108134101906605,0.0158688612282276,0.0245257280766963,0.0302216038107872
1772649442047974000,5.850973876953125,0.2941179708868265,-0.0299584273468703,-0.0890650981688871,0.0150241069495677,0.0170020312070846,0.0035239460412412
1772649442057945900,5.86094580078125,0.3230027045875787,-0.0327099180120974,-0.088586082480289,0.0140433218330144,0.0055258581414818,-0.0154213709756731
1772649442067917800,5.870917724609375,0.2327314820319414,-0.0341067061327397,-0.1041923785435035,0.009004620835185,-0.0008492171764373,-0.0270058549940586
1772649442077888800,5.880888671875,0.0628097996562719,-0.0059099546961486,-0.1121386613728478,-0.0057475375942885,0.0045882854610681,-0.0248677115887403
1772649442087860700,5.89086083984375,-0.1012403603374958,0.0580986262906342,-0.115197574019432,-0.0203752163797616,0.0200271643698215,-0.0009783579735085
1772649442097832700,5.900832763671875,-0.1831651948302984,0.1192464840840548,-0.0662843438990414,-0.0190132819116115,0.0269335731863975,0.0211302265524864
1772649442107804000,5.910803955078125,-0.1703267560452222,0.1242241263661533,-0.0352696854975074,-0.0236120279878377,0.0267074704170227,0.0327573232352733
1772649442117775600,5.920775634765625,-0.0754015702039003,0.1067605119984596,-0.0444359751084819,-0.0277121663093566,0.0291888900101184,0.0373587906360626
1772649442127747800,5.930747802734375,0.0584153640896081,0.0689382924739271,-0.0585122485928237,-0.0272908546030521,0.0261691324412822,0.0355209410190582
1772649442137719800,5.9407197265625,0.1592132413566112,-0.0112317342408001,-0.0685492931563407,-0.0279591064900159,0.0224144551903009,0.0187102109193801
1772649442147690800,5.950690673828125,0.2606739664465188,-0.0592628477644175,-0.0856263193592429,-0.0274778734892606,0.0110691227018833,-0.003495757933706
1772649442157663000,5.9606630859375,0.3151566672623157,-0.144577470825985,-0.0715661567594855,-0.0223140567541122,0.0074749668128788,-0.0329769141972065
1772649442167634700,5.970634765625,0.3171417035996913,-0.1895418171901255,-0.0771803799120709,-0.0220384187996387,0.0013427720405161,-0.0550643764436244
1772649442177606000,5.98060595703125,0.2238146006047725,-0.190066352520883,-0.0116921548267826,-0.0157089810818433,-0.0002468100283294,-0.0639444291591644
1772649442187577600,5.99057763671875,0.0340969153910875,-0.1670695808801799,0.0330329028887674,-0.0143531654030084,0.0089086052030324,-0.0540827475488185
1772649442197549800,6.0005498046875,-0.1828466304004192,-0.142575994810462,0.0660919265994802,-0.0102004148066043,0.0392026007175445,-0.0251803379505872
1772649442207520800,6.010520751953125,-0.2442225978612899,-0.1193601735915988,0.113868115513958,-0.0106062814593315,0.0473926216363906,0.0023037493228912
1772649442217492700,6.02049267578125,-0.1584586235970258,-0.056278352060914,0.1603427203105762,-0.007613556459546,0.0430272072553634,0.0149837080389261
1772649442227464700,6.030464599609375,-0.052600540331006,-0.0273050632938742,0.1818440292291343,-0.0012406117748469,0.0480659082531929,0.0098411440849304
1772649442237436700,6.040436767578125,0.0480102899312973,0.0023513854317367,0.1897781832292676,0.0032835323363542,0.0476732589304447,0.0050105992704629
1772649442247407600,6.05040771484375,0.1441553729563951,0.0240725841786712,0.086043302662298,7.97491520643e-05,0.0424388162791729,-0.0119739770889282
1772649442257379800,6.0603798828125,0.1597971787244081,0.0249437409900128,0.0553012871896848,0.0023766616359353,0.0394258722662925,-0.0234798099845647
1772649442267351800,6.070351806640625,0.1257353346467018,0.026192133615911,0.0633088717522099,0.0068276026286184,0.0314827300608158,-0.033778253942728
1772649442277322800,6.08032275390625,0.0316021759659051,0.0260110779605805,-0.0652498497521504,-0.0034541338682174,0.030473805963993,-0.031180577352643
1772649442287295000,6.090294921875,-0.1551005453407764,0.033948081504926,-0.1933733581770211,-0.0122604090720415,0.0464389212429523,0.0009086498757824
1772649442297266700,6.1002666015625,-0.2218365785300731,0.0521622950442135,-0.2339241624152287,-0.0269901826977729,0.0614142045378685,0.0318369902670383
1772649442307239000,6.110239013671875,-0.0662806906372308,0.0709074005898088,-0.2282625564569607,-0.0353682227432727,0.062688261270523,0.0378522723913192
1772649442317209600,6.120209716796875,0.1639940458923578,0.0267519594557583,-0.1247251346908509,-0.0334456339478492,0.0512344911694526,0.0198852196335792
1772649442327181800,6.130181884765625,0.3194230925351381,0.0144227853670716,-0.0453332162091508,-0.0168538726866245,0.0238542631268501,-0.0079006049782037
1772649442337153800,6.14015380859375,0.3672545187681913,-0.0033679420631378,-0.040843795835413,-0.0174011010676622,0.0107027301564812,-0.0481985285878181
1772649442347124700,6.150124755859375,0.2803483887314796,-0.0308284881796687,-0.1014105658052489,-0.018884215503931,-0.005466385744512,-0.071164034307003
1772649442357096700,6.1600966796875,0.1534288127362728,-0.0549320520184934,-0.1471171819040551,-0.0313627161085605,-0.0142532531172037,-0.080330453813076
1772649442367068700,6.170068603515625,-0.0382025971442461,-0.060585547735542,-0.1157772005382925,-0.0351816900074481,-0.0212429873645305,-0.0718943625688552
1772649442377041000,6.180041015625,-0.217450326269865,-0.0513496634870767,-0.0374303706627339,-0.0300734341144561,-0.0318375863134861,-0.0463727004826068
1772649442387011800,6.19001171875,-0.3159288206785917,-0.023201573497802,0.0390480715250596,-0.0240083523094654,-0.0330357439815998,-0.0137167535722255
1772649442396983800,6.19998388671875,-0.360613765579462,0.0017643062587827,0.0166549648659303,-0.0190032590180635,-0.0278846099972724,0.0262256395071744
1772649442406955800,6.209955810546875,-0.3390577673316001,-0.0397818291597068,-0.012736878106743,-0.0243250541388988,-0.0215585380792617,0.0608845464885234
1772649442416927000,6.219927001953125,-0.2035024649381637,-0.0765009097479283,-0.0189495786091312,-0.0227851625531911,-0.0155755253508687,0.0742487832903862
1772649442426898700,6.229898681640625,-0.0041238019317388,-0.0469563238989561,0.0249252189526334,-0.0195587426424026,-0.0159004312008619,0.0704596415162086
1772649442436871000,6.239870849609375,0.2116664821714162,-0.0439126453541219,0.0703580961439758,-0.0070683024823665,-0.0248131863772869,0.0455942749977111
1772649442446842600,6.249842529296875,0.3277659734666347,-0.0241642810501158,0.149799589388445,0.0121224354952573,-0.0343249328434467,0.0148376952856779
1772649442456813800,6.259813720703125,0.3269166631609201,-0.0174440328843891,0.1458612270262092,0.0263478141278028,-0.0350624546408653,0.0017529799370095
1772649442466785800,6.269785888671875,0.2227262208461761,-0.0106661362472921,0.0690246555831283,0.0375551953911781,-0.0359711274504661,-0.0014132522046566
1772649442476757800,6.2797578125,0.13745090688169,-0.0779041276093572,-0.0083597590010613,0.030641458928585,-0.0131620075553655,-0.000275003054412
1772649442486728700,6.289728759765625,0.1073860234856605,-0.0804096806894987,-0.1010303343160077,0.016872651875019,0.0058729355223476,0.0031884380150586
1772649442496700700,6.29970068359375,0.1565437298864126,-0.0065912149585783,-0.099387681675516,0.0110914027318358,0.0110438093543052,0.0031611290760338
1772649442506673000,6.3096728515625,0.230921217739582,-0.0675249185446649,-0.0705412706911563,-0.0016084136441349,0.023628044873476,-0.0216395575553178
1772649442516643800,6.319643798828125,0.2756464946508407,-0.139243708582595,-0.131356791257672,-0.0188793689012527,0.0439447909593582,-0.0461202338337898
1772649442526615800,6.32961572265625,0.2449824763178825,-0.0495820692926645,-0.1336971073061227,-0.0316127426922321,0.0518591739237308,-0.0651429295539856
1772649442536587800,6.339587890625,0.0991319898813962,0.0156036657147109,-0.0086452614115551,-0.0342744663357734,0.0394953563809394,-0.0633802488446235
1772649442546559700,6.349559814453125,-0.1065162549138069,0.0371284651067107,0.1274743238011375,-0.0249036028981208,0.0360039509832859,-0.0465698465704917
1772649442556530700,6.35953076171875,-0.2695610372573137,0.0605894201930612,0.2029211579188704,-0.01611889898777,0.0365903787314891,-0.0090565606951713
1772649442566503000,6.3695029296875,-0.3101981680721044,0.041854397650063,0.1412571307642385,-0.0071397861465811,0.0337759517133235,0.0166091229766607
1772649442576474600,6.379474609375,-0.2482522917687892,-0.0242136731497943,0.0377889748420566,-0.0105087300762534,0.0383403562009334,0.0376690812408924
1772649442586445800,6.38944580078125,-0.09515256485641,-0.1010901382118463,-0.0752197108309715,-0.0288174301385879,0.0484358668327331,0.0381367318332195
1772649442596417800,6.399417724609375,0.0743792414188384,-0.0872940333757549,-0.1130657130898907,-0.0428983606398105,0.0527227558195591,0.0303107686340808
1772649442606389800,6.4093896484375,0.2099427271187305,-0.0474918190151453,-0.0600607932090759,-0.0469764582812786,0.0544285103678703,0.0004474119632504
1772649442616362000,6.419362060546875,0.2958294509798288,-0.0329050021927803,-0.0273495234901085,-0.0445369593799114,0.045807845890522,-0.0205430388450622
1772649442626332700,6.429332763671875,0.2403331892073154,-0.028760230538249,0.0173272746369242,-0.0326579287648201,0.0290440469980239,-0.039705816656351
1772649442636305000,6.439304931640625,0.1037327616751194,-0.0410719420354813,0.0040793782681226,-0.0262773595750331,0.0254546962678432,-0.0434840582311153
1772649442646276600,6.449276611328125,0.048932080951333,-0.0879405145857483,-0.0684579616110771,-0.0260488595813512,0.0180146247148513,-0.0436483733355999
1772649442656247800,6.459247802734375,-0.0143885908365249,-0.0750376322623342,-0.1093393495105206,-0.0189700946211814,0.0127229336649179,-0.0361588485538959
1772649442666219800,6.4692197265625,-0.113711134853959,-0.0805004277128726,-0.0401573114085942,-0.0146163580939173,0.0079335030168294,-0.0228212028741836
1772649442676191700,6.479191650390625,-0.2112269217103719,-0.0914743878003209,0.0326392639286816,-0.0152487801387906,0.0073820473626255,-0.0016843407647684
1772649442686163700,6.489163818359375,-0.2429477556198835,-0.0512737487066537,0.0006403071975335,-0.0224156118929386,0.0138127831742167,0.0250537954270839
1772649442696135000,6.499135009765625,-0.2354611992567777,-0.0306390300221741,0.0305280073957517,-0.0220941305160522,0.0171012729406356,0.0485555306077003
1772649442706106600,6.509106689453125,-0.1134065989494323,-0.0315250190764665,0.1038848469642922,-0.0174064338207244,0.0113613633438944,0.0443693064153194
1772649442716078600,6.51907861328125,0.0532534512817859,-0.0077048752889037,0.1329881918517872,-0.0071240151301026,-0.0033587138168513,0.030862770974636
1772649442726049500,6.529049560546875,0.1259936933219432,-0.0002918956186622,0.1693732181800529,0.009846712462604,-0.0136840557679533,0.0105809345841407
1772649442736021500,6.539021484375,0.1249134968698024,0.0211452985551208,0.156559110118635,0.0219570472836494,-0.026935750618577,0.0003589873085729
1772649442745993700,6.54899365234375,0.0861439134925603,0.0301736044675111,0.1251330579046159,0.0346960127353668,-0.0372642911970615,-0.0038498723879456
1772649442755964400,6.55896435546875,0.0160778590977191,0.0291553673356771,0.0994823376890271,0.0436330027878284,-0.0429671704769134,0.0028769560158252
1772649442765936600,6.5689365234375,-0.037906244546175,0.0267443606711924,0.0278736569620668,0.0495833046734333,-0.0407277159392833,0.0128014925867319
1772649442775908600,6.57890869140625,-0.0147410575360059,0.0296911547128111,-0.0406090372314676,0.0511225573718547,-0.0409061014652252,0.0208282954990863
1772649442785880600,6.588880615234375,0.0602291355133056,-0.0087605218216776,-0.1088711109442636,0.046449776738882,-0.0429274402558803,0.0198660958558321
1772649442795851800,6.598851806640625,0.1327554425418377,-0.0412326855551451,-0.1043570675859227,0.0468866974115371,-0.0360468067228794,0.0083661051467061
1772649442805823500,6.608823486328125,0.1593307302564382,-0.0507251018479466,-0.0906019523473456,0.0483069606125354,-0.0298046208918094,0.006575662177056
1772649442815795700,6.618795654296875,0.1560445481926202,-0.0544687453556805,-0.1036368635525926,0.0414418093860149,-0.0315452180802822,-0.005593083333224
1772649442825766700,6.6287666015625,0.1176747777879238,-0.0496662404447793,-0.0578167406093329,0.0415632501244545,-0.0293137542903423,-0.0075808665715157
1772649442835738600,6.638738525390625,0.0698386753797531,-0.0134380121134221,0.0718100119853392,0.0581283867359161,-0.0388566963374614,-0.0074169025756418
1772649442845710600,6.648710693359375,0.0743044226169586,0.0140087977387011,0.1309128103498369,0.0747355967760086,-0.0637484565377235,-0.0067058387212455
1772649442855682600,6.6586826171875,0.020300445228815,-0.0462934760760515,0.1208847528103738,0.0865899920463562,-0.0792148411273956,-0.0033307501580566
1772649442865653500,6.668653564453125,-0.0923047742098569,-0.0816173759788274,0.0727521882062777,0.0906284153461456,-0.0859398543834686,0.0141795333474874
1772649442875625700,6.678625732421875,-0.1179711303859949,-0.0773899675421416,0.0357559711771085,0.0982800126075744,-0.1013727188110351,0.035832691937685
1772649442885597700,6.68859765625,-0.0525736523240804,-0.1564106050260365,0.0551596867619082,0.0906513854861259,-0.0887754335999488,0.0393461994826793
1772649442895568600,6.698568603515625,0.0926163243770599,-0.1925253630455583,-0.0824752714497968,0.0821764096617698,-0.0760151669383049,0.026591520756483
1772649442905540600,6.70854052734375,0.2976630961477756,-0.1648245784323662,-0.1443069102562963,0.0566572025418281,-0.0512120835483074,-0.0089084170758724
1772649442915512600,6.7185126953125,0.42951077619493,-0.1821199235610663,-0.2021090378183871,0.0271614622324705,-0.0304624214768409,-0.0618428103625774
1772649442925484500,6.728484619140625,0.4497042539179325,-0.0641484278488904,-0.2101741977870464,0.0066356812603771,-0.0130107281729578,-0.0987872406840324
1772649442935455500,6.73845556640625,0.3082318364351987,-0.0109907650917768,-0.1804601371226832,-0.0142506752163171,-0.0162151455879211,-0.1093924790620803
1772649442945427700,6.748427734375,0.0645902533322572,0.0940944341056048,-0.0264190377069637,-0.0143007412552833,-0.0156281851232051,-0.087612085044384
1772649442955399400,6.7583994140625,-0.193473822876811,0.2115827494107186,0.1880195395262912,0.0030897785909473,0.0031340937130153,-0.0422081053256988
1772649442965370600,6.76837060546875,-0.2115022315204143,0.183470388321951,0.2183748937688767,0.0142894368618726,0.018667247146368,-0.0188705623149871
1772649442975342600,6.778342529296875,-0.022891046243906,0.0811433287262916,0.1182825709553435,0.0158251337707042,0.0136065473780035,-0.0189797282218933
1772649442985314600,6.788314453125,0.153864866065979,-0.0219301653224974,0.1208655001206323,0.0245368648320436,0.0045648496598005,-0.0436967946588993
1772649442995286800,6.798286865234375,0.2590431503742933,-0.1214735855489969,0.0953655134873464,0.0131040643900632,-0.0064125396311283,-0.0762129426002502
1772649443005257700,6.8082578125,0.1571270827323198,-0.129583753703162,-0.0108664445923641,-0.0028424123302102,-0.0085502592846751,-0.0896073132753372
1772649443015229700,6.818229736328125,-0.112437461656332,-0.0653136722359806,-0.009712342653796,-0.0104975122958421,-0.0026192720979452,-0.0639249682426452
1772649443025201700,6.82820166015625,-0.3587497252732515,0.0187318076726049,0.0764660210976377,-0.0044808993116021,0.0050959051586687,-0.0249794293195009
1772649443035172600,6.838172607421875,-0.4331149381667375,0.0629367870368063,0.0761006583839654,0.0111986827105283,0.0088666882365942,0.0153772644698619
1772649443045144600,6.84814453125,-0.3661626318782567,0.0454979417841881,0.0361123833993449,0.0199032239615917,0.0093335397541522,0.0440581813454628
1772649443055116500,6.858116455078125,-0.1715168426126241,-0.0229584854569286,-0.0190965493317693,0.025911109521985,6.69904984533e-05,0.0549362711608409
1772649443065087500,6.86808740234375,0.1001274306595325,-0.0662940615754574,-0.0398732703028246,0.0320371761918067,-0.0154123669490218,0.0441525988280773
1772649443075059700,6.878059814453125,0.318755568537116,-0.0556483835943043,-0.0219038983700796,0.0462931394577026,-0.0360799096524715,0.0165062006562948
1772649443085031400,6.888031494140625,0.3263397400557994,-0.0562169772624969,-0.0196464748321101,0.0544879510998725,-0.0471679791808128,-0.0034528593532741
1772649443095003600,6.898003662109375,0.1765519141703844,-0.0601383884899318,-0.038034474035725,0.0597477369010448,-0.0448281392455101,-0.0007236015517264
1772649443104974600,6.907974609375,0.0179290399223566,-0.0365476695440709,-0.0638948549466207,0.0529558770358562,-0.0244743973016738,0.0098946886137127
1772649443114946600,6.917946533203125,0.0067278469502925,-0.0511597669381648,-0.0814162639161571,0.0384013317525386,-0.0130322994664311,0.014716412872076
1772649443124918800,6.927918701171875,0.0455494527757167,-0.028571722228825,-0.039212833632715,0.025973692536354,-0.007259099278599,0.0101901041343808
1772649443134889700,6.9378896484375,0.0598269844532012,0.0776021489880979,0.0833094937842339,0.0284113883972167,-0.0067121786996722,0.008405715227127
1772649443144861700,6.94786181640625,0.0290969151467084,0.1421362882189452,0.160576565599069,0.036729771643877,-0.0004992906469851,0.0109146786853671
1772649443154833700,6.957833740234375,0.0344809462726116,0.1056996047686785,0.1205790843946859,0.0384995490312576,0.0031435205601155,0.0138442637398839
1772649443164805600,6.9678056640625,0.1018020858734846,0.0589783317346125,0.0887443417819216,0.0415358208119869,0.0085025997832417,0.0067045954056084
1772649443174776600,6.977776611328125,0.1825344957113266,-0.0251030232049524,0.002437785073556,0.039292424917221,0.0120227197185158,-0.0046383761800825
1772649443184748500,6.98774853515625,0.2430897944390773,-0.0720995329838246,-0.0861512565487995,0.0304531287401914,0.0098700867965817,-0.0183038543909788
1772649443194720500,6.997720458984375,0.3191664874255657,-0.0874441093709319,-0.1248860974062234,0.0268217995762825,0.0112063214182853,-0.0412729308009147
1772649443204691700,7.007691650390625,0.339317295050621,-0.1323281570404768,-0.132171943565458,0.0254998058080673,0.0102473180741071,-0.0667039901018142
1772649443214663400,7.017663330078125,0.2548047821521759,-0.1423962543293833,-0.1530359409611672,0.0273974779993295,0.0125283738598227,-0.0834851115942001
1772649443224635600,7.0276357421875,0.1101011276632547,-0.1201229015924036,-0.1515652108214795,0.0285596791654825,0.017328456044197,-0.0758484974503517
1772649443234607600,7.037607666015625,-0.1081663602083921,-0.1461025615014135,-0.1396468460233882,0.0260983351618051,0.0280144326388835,-0.0478834025561809
1772649443244578600,7.04757861328125,-0.2782376801878213,-0.1254065410837531,-0.1322539592931047,0.0182691738009452,0.048201460391283,-0.0037993006408214
1772649443254550800,7.05755078125,-0.2500736619770526,-0.0583361613735556,-0.1737395236307755,0.0010365014895796,0.0684544146060943,0.030741473659873
1772649443264522500,7.0675224609375,0.0081996730685234,-0.030824761852622,-0.1183942146362736,-0.0159177146852016,0.0757064670324325,0.0309055242687463
1772649443274493700,7.07749365234375,0.3151923230975866,0.0051665889829397,-0.0385097268646582,-0.0244616270065307,0.0683007687330246,-0.0087115233764052
1772649443284465700,7.087465576171875,0.5528723674476146,0.0449872888483107,0.0826110266586765,-0.0222006030380725,0.0503787547349929,-0.0759797766804695
1772649443294437600,7.097437744140625,0.5750929670840501,0.0482096118956804,0.2024925207106396,-0.0226771552115678,0.0171183999627828,-0.1404158622026443
1772649443304408600,7.10740869140625,0.3107072866380214,0.0855070768937468,0.1881229999007657,-0.0209943037480115,0.0126674585044384,-0.1676387041807174
1772649443314380500,7.117380615234375,-0.0929968481272459,0.1318378893055021,0.1533319647656753,-0.0128690842539072,0.0121414763852953,-0.1451852470636367
1772649443324352500,7.1273525390625,-0.4088175322562455,0.1295289547760039,0.096805373564735,-0.016738124191761,-0.0041272426024079,-0.0926506593823432
1772649443334324500,7.137324462890625,-0.6125824475228786,0.0467822825063019,-0.0271853459043428,-0.0190116204321384,-0.0021245584357529,-0.0335896834731102
1772649443344295400,7.14729541015625,-0.6150269180655479,0.0262406489327549,-0.0881746521351859,-0.0199692919850349,0.0013045277446508,0.0215465351939201
1772649443354267600,7.157267578125,-0.4609329194188117,-0.0392671576358377,-0.1307133422549813,-0.0162924341857433,-0.0036266406532377,0.0564986765384674
1772649443364239600,7.167239501953125,-0.3153115655630826,-0.0901034647732973,-0.1249693552428856,-0.0141589753329753,-0.0013003693893551,0.0802191868424415
1772649443374210600,7.17721044921875,-0.0248012637794017,-0.1621373851750046,-0.1014812198886647,-0.0214107632637023,-0.0153536042198538,0.0705798715353012
1772649443384182800,7.187182861328125,0.2387695931524038,-0.1100339076459407,-0.1044625372543931,-0.0155558045953512,-0.0252895914018154,0.042433988302946
1772649443394154500,7.197154541015625,0.3605377777338028,-0.0751499335303902,-0.0345610623041167,-0.006231433711946,-0.0370917841792106,0.0093560386449098
1772649443404126700,7.207126708984375,0.3456342231124639,-0.0843018658224493,0.0128465124936774,-0.00265161274001,-0.0412178188562393,-0.0147442370653152
1772649443414097700,7.21709765625,0.3104267161309719,-0.090588910202682,-0.0176422588702291,-0.000840448308736,-0.0418188497424125,-0.0305902771651744
1772649443424069600,7.227069580078125,0.2402110241323709,-0.0972384312197566,-0.025398170226626,-0.0048253363929688,-0.0442718863487243,-0.0455870665609836
1772649443434041600,7.23704150390625,0.1206540858596563,-0.1128876896418631,0.053709232225269,-0.0028955456800758,-0.0482182726263999,-0.0470488220453262
1772649443444012500,7.247012451171875,-0.0631914924502372,-0.0661034343741834,0.1500915946049615,0.0029484946280717,-0.041581142693758,-0.0317960977554321
1772649443453984500,7.256984619140625,-0.2126063933700323,-0.0020705957289785,0.2078811184138059,0.0198444332927465,-0.0375107787549495,0.0020372830331325
1772649443463956500,7.26695654296875,-0.2929500961512327,0.0069380556348711,0.2296858307257294,0.0297820176929235,-0.0271667949855327,0.0339422188699245
1772649443473928700,7.2769287109375,-0.2572194420784712,-0.0284088598173111,0.1271628466991707,0.0321079082787036,-0.0139115490019321,0.0630292445421218
1772649443483899600,7.286899658203125,-0.0973491981178522,-0.0635268618844449,0.0502836051581427,0.0258694514632225,-0.0063761342316865,0.0632566735148429
1772649443493871600,7.29687158203125,0.0700865126609802,-0.0593559328753501,0.0135891475545242,0.0226509701460599,-0.0056359954178333,0.0514202937483787
1772649443503843600,7.306843505859375,0.1949678608268499,-0.0442364704810082,-0.0030571590809151,0.0227180812507867,-0.0151607915759086,0.0267836563289165
1772649443513814800,7.316814697265625,0.2291694056361913,-0.0125686819329857,-0.0385793945673853,0.0203820541501045,-0.023512789979577,0.0086107924580574
1772649443523786500,7.326786376953125,0.1930254945874214,-0.0401405064042657,-0.1222684257211163,0.0092047667130827,-0.0192602537572383,0.0013238505925983
1772649443533758700,7.3367587890625,0.1539946299254894,-0.0265508108604699,-0.167279606901668,-0.0004198313690721,-0.014371071010828,-0.0074408208020031
1772649443543730400,7.34673046875,0.1597679526299238,-0.0389502737063914,-0.1619711617626249,-0.0075323358178138,-0.0179266575723886,-0.0169195421040058
1772649443553701600,7.35670166015625,0.1248924540817737,-0.067626479222998,-0.1201485109576955,-0.0109266322106122,-0.0128812389448285,-0.0263442192226648
1772649443563673600,7.366673583984375,0.0726204150527715,-0.0938419206492602,-0.1838737814910709,-0.0278358422219753,-0.0069511784240603,-0.030833775177598
1772649443573645600,7.3766455078125,-0.0129658645570278,-0.1014537838924676,-0.2700289104973897,-0.0472289212048053,0.0034909956157207,-0.0216851402074098
1772649443583616500,7.386616455078125,-0.1494751066744327,-0.0416826943449676,-0.2311595565401017,-0.0632020309567451,0.0186664871871471,0.0060362354852259
1772649443593588500,7.39658837890625,-0.1555640711992978,0.0277959886159747,-0.0875526843119412,-0.060515608638525,0.0254814885556697,0.0301480628550052
1772649443603560700,7.406560791015625,-0.0121919575750827,0.0631440731119364,0.0799753443928435,-0.0447262600064277,0.0130029832944273,0.0310098621994256
1772649443613531600,7.41653173828125,0.1550824251621961,0.0063321986962109,0.1972754801820963,-0.0242530442774295,-0.0025977217592298,0.0159843806177377
1772649443623503600,7.426503662109375,0.2514402741551399,-0.0377316916968673,0.1919938865173608,-0.0077552944421768,-0.0106188971549272,-0.0072149485349655
1772649443633475600,7.4364755859375,0.2544581606715917,-0.0276188054181635,0.1719196512598544,0.0066868588328361,-0.0117705063894391,-0.030681911855936
1772649443643447600,7.446447509765625,0.230022223073244,-0.0712739688798785,0.1070761172862723,0.0174497589468956,-0.0156270302832126,-0.0481035113334655
1772649443653418500,7.45641845703125,0.1706879905730486,-0.1374950382843613,-0.017354235709086,0.0115968901664018,-0.0214340724050998,-0.0599770843982696
1772649443663390700,7.466390625,0.0741238053530454,-0.1379435857694596,-0.0975209014229476,0.003074774518609,-0.0247403867542743,-0.0588202066719532
1772649443673362700,7.47636279296875,-0.0542500611037015,-0.1074528781767934,-0.1304639340711757,0.000548175536096,-0.0182302109897136,-0.050770416855812
1772649443683333600,7.486333740234375,-0.1629571040600538,-0.0973702409058809,-0.1324565691931173,-0.0027466875035315,-0.0130881797522306,-0.02677240408957
1772649443693305900,7.496305908203125,-0.2722439927309751,-0.0609154372770339,-0.1124729348285123,-0.0142624173313379,-0.0113004129379987,0.0023296042345464
1772649443703278000,7.506278076171875,-0.2752233008027077,-0.0288545577581971,-0.0467857896376401,-0.0151116987690329,-0.007039088755846,0.0283556133508682
1772649443713250000,7.51625,-0.1590618501871824,0.01929572516568,0.0190252376612275,-0.0131888836622238,-0.007921727374196,0.0386544167995452
1772649443723221000,7.526220947265625,-0.0161088387578725,0.0043641134936362,0.0303425678262487,-0.0109086856245994,-0.0137939974665641,0.0350729972124099
1772649443733193200,7.536193115234375,0.0884364083439111,0.0036132951263338,0.0798282640723511,-0.0005097431130707,-0.0209875218570232,0.0285472013056278
1772649443743165000,7.5461650390625,0.1040121631383895,0.020967238574475,0.1186275484681129,0.0084137115627527,-0.0228320248425006,0.0226038247346878
1772649443753136000,7.55613623046875,0.0893307268351316,-0.0038435967508703,0.0527189425462856,0.0068660899996757,-0.0127279125154018,0.0202648937702178
1772649443763108000,7.566108154296875,0.1619821215480566,-0.0359458311934024,-0.04572871833276,-0.0013332506641745,-0.0051980912685394,0.0041530346497893
1772649443773080000,7.576080078125,0.2757774275541305,-0.0657391311064362,-0.101100769203715,-0.0126757444813847,0.0014414605684578,-0.0173763278871774
1772649443783052300,7.58605224609375,0.3149585143417119,-0.0320474355153739,-0.0710496586047113,-0.0198851879686117,-0.0068745259195566,-0.0412185415625572
1772649443793023200,7.596023193359375,0.2207353392899036,-0.0163047266561537,0.0069772186014801,-0.0126802194863557,-0.0131921228021383,-0.0511678792536258
1772649443802995200,7.6059951171875,0.0379319635093212,-0.0040600159805268,0.0504960057998076,0.000597502104938,-0.0099665019661188,-0.0346102081239223
1772649443812967200,7.61596728515625,-0.1202355681866407,-0.0126605249349027,0.0400750764852389,0.0039282459765672,0.001373918261379,-0.0157837644219398
1772649443822938000,7.625938232421875,-0.1688011539131403,-0.0499205805320292,-0.0460101656226441,0.0044411709532141,0.0157944038510322,0.0127267073839902
1772649443832910000,7.63591015625,-0.0664379270255565,-0.0823787157401442,-0.0800658722205087,0.001122138928622,0.0219459235668182,0.0203327536582946
1772649443842882000,7.645882080078125,0.1504430749237537,-0.1256576663006097,-0.100413882918097,-0.0094194523990154,0.0145066501572728,-0.0054751415736973
1772649443852854000,7.65585400390625,0.281052737608552,-0.1540100466903299,-0.0762009769532829,-0.010271118953824,-0.0030609595123678,-0.0335498265922069
1772649443862825200,7.6658251953125,0.1917985831409692,-0.1493808525197207,-0.0310650368819013,-0.0094133149832487,-0.0176380388438701,-0.0488946922123432
1772649443872797000,7.675796875,0.0070090019792318,-0.0655958501782268,0.0052935032982379,-0.0042174994014203,-0.0228740125894546,-0.033271886408329
1772649443882769200,7.68576904296875,-0.1797989332675933,-0.0213267926018685,0.0416327177233993,0.0047147427685558,-0.0200071185827255,-0.0056383935734629
1772649443892740000,7.695739990234375,-0.2651175018519163,-0.0523895279288291,0.0447285648468881,0.0042461827397346,-0.0271139033138752,0.0228192396461963
1772649443902712000,7.705712158203125,-0.2657049463510513,-0.0935362157009541,-0.0726790864374488,-0.0065193795599043,-0.0159946735948324,0.0536937974393367
1772649443912684300,7.715684326171875,-0.2439829438865184,-0.0750394588932395,-0.143080619864352,-0.0192090682685375,-0.0135698989033699,0.0746085792779922
1772649443922655200,7.7256552734375,-0.177276136791706,-0.0992735172439366,-0.1439898801963776,-0.0291354693472385,-0.0091951247304677,0.0938794761896133
1772649443932627200,7.735627197265625,-0.0694312636226415,-0.0911047507703304,-0.0349696065723896,-0.0295542236417531,-0.0144369313493371,0.1019073873758316
1772649443942599200,7.74559912109375,0.0557025979995727,-0.0792993082948029,0.1538547465307638,-0.0296231992542743,-0.0132270567119121,0.0873145908117294
1772649443952571100,7.755571044921875,0.1203296762108802,-0.0195095140468329,0.2338441194489598,-0.012119572609663,-0.0100195463746786,0.0643517524003982
1772649443962542000,7.7655419921875,0.1354021576583385,0.0508094191305339,0.230755213522911,0.0079137906432151,-0.012130101211369,0.053021602332592
1772649443972514000,7.77551416015625,0.1638841557770967,0.0135417647488415,0.1843204658126458,0.0259673465043306,-0.0306962598115205,0.0411113165318965
1772649443982486000,7.785486083984375,0.1510696823894977,0.006977876188606,0.1735125830071046,0.0478992760181427,-0.0369813218712806,0.0355533026158809
1772649443992457200,7.795457275390625,0.1683276911824941,-0.0282914439827203,0.1249135699350386,0.0559485703706741,-0.0509321652352809,0.0246707182377576
1772649444002429000,7.805428955078125,0.1540133346259594,-0.0237569423582404,0.0482873533070087,0.0695016607642173,-0.0580452010035514,0.0230376664549112
1772649444012401200,7.815401123046875,0.0609106880366802,-0.0477098456799983,0.0130108727425336,0.0602775998413562,-0.0381728075444698,0.0265059620141983
1772649444022373000,7.825373046875,0.0394312621563673,-0.0362202642206102,-0.092707509791851,0.0538607165217399,-0.0263265334069728,0.0256111398339271
1772649444032344000,7.835343994140625,0.0552513471007347,-0.0255436065793037,-0.1291489424824714,0.0455536730587482,-0.0262893885374069,0.0226719677448272
1772649444042316300,7.84531640625,0.0599333674371242,-0.0598713350515812,-0.0933498993486166,0.0342283137142658,-0.0328735224902629,0.0167925059795379
1772649444052288000,7.8552880859375,0.0193932672560214,0.0082001845251768,-0.0825362443894147,0.0324158780276775,-0.0288117937743663,0.0230057686567306
