time,seconds_elapsed,acc_z,acc_y,acc_x,gyro_z,gyro_y,gyro_x
1772650911363817500,0.0738173828125,0.0249994167000055,0.0111494262522086,0.0010417276052758,-0.0003163730725646,0.0002065170556306,-0.0013149997685104
1772650911373789400,0.08378955078125,0.0290372939139604,0.0090720719888806,-0.0065729395163711,0.000468726735562,0.0010547339916229,0.0009606714593246
1772650911383762400,0.093762451171875,0.0374228449434042,0.0246888529134914,-0.0069616648393217,-0.0017920527607202,-0.0028700230177491,-0.0011168820783495
1772650911393734400,0.103734375,0.0541916089147329,0.0301131429845467,-0.0086801409286912,0.0007818923331797,0.002188651356846,0.0002280142507515
1772650911403706600,0.11370654296875,0.0374433032095432,0.0034183205435052,-0.0121182986838277,-0.0003034290857613,0.000443872064352,-0.0004034595040138
1772650911413679400,0.123679443359375,0.0293804082632064,0.0130613425544463,0.0011267664070706,0.0015205699019134,-0.0013694744557142,0.0011707351077347
1772650911423651600,0.133651611328125,0.0337456177353858,-0.0042208142991177,0.0056562539297156,0.0006286576390266,-0.0039266236126422,-0.0005462547997012
1772650911433623600,0.14362353515625,0.0345090033233165,-0.0121145449573174,-0.0063032831289805,-0.0002576424740254,0.0005000825040042,-0.0001281384611502
1772650911443596300,0.15359619140625,0.0298825125664472,-0.0215585372648201,-0.0049397305576596,-0.0009317202493548,0.0002346783876419,-0.0009042813908308
1772650911453568500,0.163568603515625,0.0343745632886886,-0.0106759087226353,-0.0024031795510556,0.0001958622597157,0.0011667846702039,0.0017186660552397
1772650911463540500,0.17354052734375,0.0225526080697774,-0.0239449392110109,-0.0024828937237616,-0.0003619324415922,0.0017498075030744,-0.0002149941865354
1772650911473513500,0.183513427734375,0.0295838218808174,0.0063553603760898,-0.000658326911414,7.10976310074e-05,0.0015537990257143,0.0014369646087288
1772650911483485400,0.1934853515625,0.0360182388424873,-0.0218754942595027,0.00616223982363,-0.0007113479077816,0.0027814861387014,0.0005278216558508
1772650911493458400,0.20345849609375,0.0421451972901821,0.0039602271341718,-0.0013201335547026,-0.0012490402441471,-0.0009559942409396,0.0002652339753694
1772650911503430400,0.213430419921875,0.0364502005189657,0.0216067055217921,0.0112335791380144,-0.0018518429715186,0.0006200531497597,-0.0002160720177926
1772650911513402400,0.22340234375,0.0379436539471149,0.0197105895768851,-0.0144408690130338,-0.0009226659312844,0.0010429630056023,0.0018590630497783
1772650911523375600,0.233375732421875,0.0282335763156414,0.0359043666718527,-0.0121082978796213,-0.0005465168505907,0.0016053477302193,0.0004269540659151
1772650911533347300,0.243347412109375,0.0407768315464258,0.0190193924423307,-0.0081699994494672,0.0013075754977762,0.0001395437866449,-0.0002494889195077
1772650911543319600,0.253319580078125,0.0203197344511747,0.0104486941043287,0.0107998273632489,0.0039596180431544,0.0019012866541743,0.0018035555258393
1772650911553292500,0.26329248046875,0.0410761067539453,0.0128442109387367,0.0030529030309058,-0.0018655143212527,0.0011444161646068,0.0006879574502818
1772650911563264300,0.27326416015625,0.0387064550131559,-0.0047523090936243,0.0044720125812105,0.0008641192689538,0.002061974722892,-0.0021681431680917
1772650911573236500,0.283236572265625,0.0537824435919523,-0.0100430359128862,0.0162393698023632,-0.0001361640170216,0.0004326528869569,-0.0019375134725123
1772650911583209500,0.29320947265625,0.0380126275300979,-0.0246758107688277,-0.0067857602831441,-0.0019929546397179,2.71229073405e-05,0.0003995749284513
1772650911593181400,0.303181396484375,0.031529695251584,-0.0059117813270539,0.0027026556879747,0.0005868496373295,-0.0010602455586194,0.0014978623948991
1772650911603154400,0.313154541015625,0.0311713833332061,-0.0014375585224479,0.0052842788121663,0.0004663090221583,0.0001425463706254,0.0014508254826068
1772650911613126400,0.32312646484375,0.0341886853277683,0.0011330226179212,0.0014622271728236,-0.0007153353653848,-0.0013711946085095,0.0011703947093337
1772650911623098400,0.333098388671875,0.0375888491600751,0.0101470442766323,-0.0155939937040675,0.0013594403862953,-0.0003511384129524,0.0014476377982646
1772650911633071400,0.3430712890625,0.0521124645531177,0.0064255030028522,0.0003694635000545,-0.0022416857536882,-0.000357530079782,-0.0034621660597622
1772650911643043600,0.353043701171875,0.0373901117175817,0.0037838659202679,-0.0150903550308663,-0.001163916895166,0.0011512390337884,0.0012047184864059
1772650911653015300,0.363015380859375,0.0229518365204334,0.0219780230522155,-0.0100920900858473,0.0005972315557301,-5.01126050949e-05,-0.0001460367348045
1772650911662988500,0.372988525390625,0.0329161811739206,0.0128180901167914,0.0069734831412788,-0.0017092886846512,-0.0004369523376226,-0.0009135045111179
1772650911672960500,0.38296044921875,0.034855040282011,0.0027668708974495,0.0235542959256097,-0.0001105931587517,-0.0007759726140648,-0.0031803871970623
1772650911682932500,0.392932373046875,0.0326180750101804,0.0063802025564014,-0.0016695680468808,-0.0005325837992131,-0.0013682728167623,0.0001940006040968
1772650911692905500,0.402905517578125,0.0299368731021881,-0.0035510435450822,0.0075392637978773,9.05962660908e-05,-0.0005474863573908,-0.0006827120087109
1772650911702877400,0.41287744140625,0.0269838685154914,-0.0125561512449756,0.0078185647964477,0.0004984415136277,-0.0011906831059604,0.0005943631404079
1772650911712850400,0.422850341796875,0.0344826998382806,-0.0211639667229726,0.007406951788254,-0.0014166377950459,-0.0005262242630124,-0.0017225870396941
1772650911722822400,0.432822509765625,0.0310603241741657,-0.0137808342017233,0.0031082956131082,-0.0010514184832572,-0.0003740764223039,0.0009948057122528
1772650911732794600,0.442794677734375,0.0429208578377962,-0.0024245237331837,-0.0065131995526142,0.0007195835933089,-0.0002635554410517,8.4270897787e-05
1772650911742767400,0.452767333984375,0.0439776734143495,0.00123659259025,-0.0091135639098938,7.50953331589e-05,0.0007384773343801,0.0001152384211309
1772650911752739300,0.4627392578125,0.048745618468523,0.0084263944964855,0.0045874647875782,0.0002687070518732,-0.0017569046467542,0.0010337627027183
1772650911762711600,0.472711669921875,0.0297398892253637,0.0106693511176854,-0.0035933665831573,-7.21062533557e-05,0.0021755788475275,-0.0019877697341144
1772650911772684300,0.482684326171875,0.0283773687005043,0.013794606998749,-0.0142682158598676,-0.0015150068793445,0.000986211001873,0.0009185377857647
1772650911782656500,0.492656494140625,0.0244610720396041,-0.0048563539899885,-0.0078883603633381,0.0019510881975293,0.0013457969762384,-0.0004092979361303
1772650911792628500,0.50262841796875,0.0402946009874343,0.004892229020968,0.003358799775457,0.0004493314772844,-0.0014846106059849,-0.0016138456994667
1772650911802601200,0.512601318359375,0.0402770653307437,0.0054293681049719,-0.0002370510257314,-0.0001445659436285,-0.0011032063048332,0.0016130665317177
1772650911812573400,0.522573486328125,0.0336930107653141,-0.000695252255164,-0.0026002090936526,-0.0001203315332531,0.0006526159122586,0.0006042611785233
1772650911822546400,0.53254638671875,0.0347492418199777,-0.0080098495848476,0.0073184697872027,-0.0007768860086798,0.0010184561833739,-0.0002041336847469
1772650911832518400,0.542518310546875,0.039845688176155,-0.0082896894395351,-0.0003516995145007,-0.0008234912529587,-0.0026891967281699,0.0026909885928034
1772650911842490400,0.552490478515625,0.0427028311729431,-0.0001233341187238,0.0094070669637527,-0.001796699129045,-0.0007475158199667,9.61535843089e-05
1772650911852463400,0.56246337890625,0.0267114813148975,-0.0060869186982512,0.0020660565511789,0.0017556915991008,0.0018978021107614,3.01071559078e-05
1772650911862435300,0.572435302734375,0.0323942031264305,-0.0044459100255742,-9.63273807894e-05,0.0007352926768362,0.0022858027368783,-0.0031552272848784
1772650911872407600,0.582407470703125,0.0255091197878122,0.005365618686378,0.0006888407806865,0.0007259720005095,-0.000520902685821,0.0011441797250881
1772650911882380500,0.592380615234375,0.0555874471873044,0.0114953170804306,0.001349569711741,-0.0002225856296718,-4.13130037486e-05,0.0023586428724229
1772650911892352300,0.602352294921875,0.0555821864902973,0.0179780301632359,0.0044081261652987,-0.0005277837626636,-0.0003124228678643,0.0010829885723069
1772650911902324500,0.612324462890625,0.0328261648029089,0.0069176704339683,0.001219084333023,-0.0001107552088797,-0.0006201122887432,0.0022349145729094
1772650911912297500,0.62229736328125,0.032516368201375,0.0164506014002487,-0.0092670557048637,0.0003912509419023,-0.000124498270452,-0.0021957866847515
1772650911922269400,0.63226953125,0.0290723652273416,-0.0064636795887723,0.0194266672021243,0.0009125997312366,-0.0017707094084471,-0.0013610231690108
1772650911932242400,0.642242431640625,0.0319184023082256,-0.0087504753516986,0.0114218317191116,0.0015080822631716,-0.0003198194317519,-0.0006875097751617
1772650911942214400,0.65221435546875,0.0332598800450563,-0.0041386341746896,0.0065678980150725,-0.0002158605493605,0.0008836803026497,0.0004926969995722
1772650911952186400,0.662186279296875,0.0393961908429861,0.0005570858934894,0.0134676583330146,-0.0033661141060292,0.0007894043810665,0.0007939005736261
1772650911962159400,0.672159423828125,0.0332633871763944,-0.0013612784158438,0.0061904247384984,0.0025899284519255,-0.0008199145086109,0.0029580330010503
1772650911972131600,0.682131591796875,0.0437479563117027,-0.0008277925936505,-0.0020367117256857,0.0013699340634047,0.0002964828163385,4.3209875002e-06
1772650911982103300,0.692103271484375,0.0392599972426891,0.0004889890933409,-0.0109913952794391,0.0015929630026221,-0.0008661281317472,0.0008951585041359
1772650911992076300,0.702076171875,0.0178758484303951,-0.0001726531531661,-0.0116997079455759,-0.0007508853450417,0.0002571931108832,-7.288181222975254e-07
1772650912002048500,0.712048583984375,0.027889292922616,0.0160351159345358,-0.0077867357529234,0.0021261097863316,-0.0005464674904942,-5.85609814152e-05
1772650912012021500,0.722021484375,0.0422463195770978,-0.0004246551528573,-0.0084627809841185,0.0005694921128451,-0.0010668493341654,-0.0012426024768501
1772650912021993500,0.731993408203125,0.0305699103087186,0.0051787543447688,-0.0189620088324416,0.0011310917325317,0.0012643029913306,0.0017438196809962
1772650912031965400,0.74196533203125,0.0248766671031713,-0.0078883055644109,0.0057404159486759,-0.0017144961748272,-0.0005106939934194,-0.001303635421209
1772650912041938400,0.7519384765625,0.0287643221914768,-0.0238786690417677,0.0068011953142937,-0.000240818131715,-0.0011219321750104,-0.0022213198244571
1772650912051910400,0.761910400390625,0.0223322433173656,0.0082791680455207,0.0057162222223356,0.0002489369362592,0.0001444010995328,0.0001933684106916
1772650912061882400,0.77188232421875,0.0194949740648269,-0.0206488933403044,-0.0035718580042477,0.0003245202824473,-0.0006072297692298,-0.0009799031540751
1772650912071855600,0.781855712890625,0.0374544091254472,-0.0054340808127075,-0.0051113151317462,-8.58725979924e-05,0.0015581864863634,0.0027304128743708
1772650912081827300,0.791827392578125,0.0379150123745203,-0.0132280956897884,-0.0138220338617917,0.0016971644945442,0.0004845028743147,-0.0009419119451195
1772650912091799600,0.801799560546875,0.0451028780519962,-0.0108342593558132,-0.0031502807244658,-0.0012267201673239,0.0009375065565109,-0.0029536637011915
1772650912101772500,0.8117724609375,0.0401689287811517,0.0077297540018334,0.0025331991388928,-0.0016614363994449,0.000237236265093,-0.0022933073341846
1772650912111744500,0.82174462890625,0.0439034391343593,-0.0072231196539476,-0.0006826302356086,-0.0019085777457803,-1.65631063282e-05,-7.99541012383e-05
1772650912121716500,0.831716552734375,0.0379015683710575,0.0010180544687435,0.0030911983478348,-0.0008033118210732,-0.0027128856163471,-0.0021781350951641
1772650912131689500,0.841689453125,0.0250403332322835,0.0044095966031774,-0.0004258972618728,0.0005695475265383,9.35536809265e-05,-0.0010092735756188
1772650912141661400,0.851661376953125,0.0299690218061208,-0.0017584975725039,-0.010822559784865,0.0004667923785746,7.17034563422e-05,-0.0002868553856387
1772650912151634400,0.861634521484375,0.0429816481143236,-0.0066848480587825,-0.0189372579836752,0.001262811012566,0.0010259142145514,0.0012585771037265
1772650912161606700,0.871606689453125,0.0311550167202949,0.0048372474307194,0.0114166988862678,0.001206275075674,-0.0020146204624325,0.0017755918670445
1772650912171578000,0.881578125,0.0221703307539224,-0.0100753672799095,0.0088852989788167,0.0004062615334987,0.0001963358372449,-0.0013624107232317
1772650912181551000,0.891551025390625,0.0269581495523452,-0.0036981238655745,0.0046779012836981,0.0005004773847758,0.0019304566085338,0.0038284265901893
1772650912191523000,0.901523193359375,0.0462549706965684,-0.0146858202174305,-0.0120153588991612,0.0026009124703705,0.0001117838546633,0.0003522025072015
1772650912201495300,0.911495361328125,0.0288987622261047,-0.0129735364068299,0.0041024212169926,0.0006167669780552,-0.0030250954441726,0.0006654006429016
1772650912211468000,0.921468017578125,0.021570611295104,-0.0063443275254219,0.0045876200512051,0.0015733740292489,0.0017795134335756,-0.0002475309302099
1772650912221440000,0.93143994140625,0.025160744741559,0.0124553577516227,-0.0095100432810373,0.0008153170347213,0.0009498880244791,0.0004353994154371
1772650912231413200,0.941413330078125,0.0359393283873796,-0.0013233940908685,-0.0041043757120613,-0.0006219912320375,-0.0004325588233768,-9.08412621356e-05
1772650912241385000,0.951385009765625,0.0450689757823944,0.0087886884702369,0.0120289398999419,-0.0006497059948742,-0.0007904563099145,-0.0016657693777233
1772650912251357200,0.961357177734375,0.0353413624942302,0.0005807955626398,0.0145238619882147,0.0005473853088915,0.0003776061348617,-0.0010622970294207
1772650912261330200,0.971330078125,0.0404272874563932,-0.0064497606612741,-0.0059081371983978,-0.0009597963653504,0.0007147188298404,0.0005636370042338
1772650912271302000,0.981302001953125,0.022765958559513,0.0038693157140165,-0.0117217553806025,-0.000149396713823,0.0010034055449068,-0.0023722318001091
1772650912281274000,0.991274169921875,0.0441571216344833,-0.0001142009641975,-0.0023398228581063,0.0007908479310572,-0.0011567526962608,0.0035650269128382
1772650912291247000,1.0012470703125,0.0493845008939504,0.0037390769304707,0.0023512393012642,-0.0001979838125407,0.0011346312239766,0.0026824553497135
1772650912301219000,1.011218994140625,0.0417529831022024,0.0046969987098127,-0.0108214729394763,-0.0021636644378304,-0.0008325709495693,0.001853231806308
1772650912311191000,1.02119091796875,0.0233458042740821,-0.0116904743263497,0.0107319954245816,-0.000363633967936,0.0014873086474835,0.0004846332594752
1772650912321164000,1.0311640625,0.0381610960900783,-0.0024227701675146,0.0070318987976294,-0.0017163993325084,-0.0001236875541508,0.0002526013413444
1772650912331136000,1.041135986328125,0.0312783508390188,0.0007506357042118,0.0084591916543897,0.0005664620548486,0.000403618440032,-0.001026514917612
1772650912341109000,1.05110888671875,0.043247605574131,-0.0038275954641401,-0.0052883613322395,-0.0009235348552465,0.0012658541090786,0.0004142379038967
1772650912351081200,1.061081298828125,0.0323258140653371,0.0106594873107969,-0.0179528865888249,-0.0012646857649087,0.0020464267581701,-0.0019533121958374
1772650912361053000,1.071052978515625,0.0366705652713775,0.0056790685497224,-0.0121910716590937,0.000138462986797,0.0021815621294081,-0.0007143831462599
1772650912371026000,1.08102587890625,0.0194599027514457,0.0196492878437042,-0.0090832509700208,-0.0008136169053614,-0.0005258074961602,0.0002893622149713
1772650912380998100,1.090998046875,0.0206587571471929,0.014785115873441,-0.0085254344241693,-0.0001356350257992,0.0010966421104967,9.34179988689e-05
1772650912390970000,1.10097021484375,0.0413046548128128,0.0148784932453185,-0.0121985699789598,-0.0014341925270855,0.0001331106759607,-0.0001457338221371
1772650912400943000,1.110943115234375,0.0335234994173049,0.0114884854808449,-0.0117976884273346,0.0003798236139118,-0.0009392064530402,-0.0009953898843377
1772650912410915000,1.1209150390625,0.0275327345699071,0.0026108400855213,-0.0041343324589077,0.0010227104648947,-0.0015735714696347,0.0013149024453014
1772650912420887000,1.130886962890625,0.0309755685001611,-0.0212663676515221,-0.0087237791410181,-0.0008365013636648,-0.0005158046260476,-0.0012390626361593
1772650912430860000,1.140860107421875,0.024399697241187,-0.0211085102086886,0.0014189086209051,-0.0005968171171844,-0.0018463197629898,-0.0007181483088061
1772650912440832300,1.150832275390625,0.0504407319486141,-0.0153516637150198,0.001065556005435,0.0022021220065653,5.81671483814e-05,0.0013027666136622
1772650912450805000,1.160804931640625,0.0351847106277942,0.0180209559895098,-0.0069692636238876,-0.0013798295985907,-0.0012600976042449,-0.0010980730876326
1772650912460777000,1.17077685546875,0.0289063610106706,0.0088644936528056,-0.0149944203757215,-0.0015153845306485,0.0002565728500485,0.0010883820941671
1772650912470749200,1.180749267578125,0.0316056830972433,-0.000448145626299,-0.0221811809414997,0.0006455043330788,0.0008310163393616,0.0001634662621654
1772650912480722000,1.190721923828125,0.0423866048306226,-0.0023904022678732,0.0050646903778892,-0.0003017098642885,-0.0007464361842721,-0.0001329488004557
1772650912490694100,1.200694091796875,0.0242833773851394,-0.0008376198679208,0.0042882809116039,0.0018338789232075,-0.0002319132909178,-0.0007659822003915
1772650912500666000,1.210666015625,0.0398415965229272,0.0001103285066783,-0.0069043999604415,-0.0011620635632425,-0.000949113164097,0.0026553086936473
1772650912510638800,1.220638916015625,0.0419248325377702,0.0048398047139868,0.0066194729386828,-0.0007300986908376,-0.0005270019173622,-0.0010411588009446
1772650912520611000,1.230611083984375,0.0407160412698984,0.0043717853434383,-0.0151364226622972,-0.001866138074547,0.0018654582090675,0.0015431680949404
1772650912530583000,1.2405830078125,0.041770518758893,0.004758446573466,0.0011819671930279,-0.0010136603377759,-0.0001023518852889,0.0017855159239843
1772650912540556000,1.25055615234375,0.0295031578600406,0.009332476490736,-0.0065136105445679,-0.002327918075025,0.0020535332150757,0.0007300379802472
1772650912550528000,1.260528076171875,0.0277039994835853,-0.0006409282520413,0.0046210747962351,0.0002135364338755,0.0003405879251658,-0.0005123266601003
1772650912560501000,1.2705009765625,0.0446101260989904,-0.0055410483185201,0.0007572755075525,0.0004246928729116,0.0017142640426754,0.0016632179031148
1772650912570473000,1.280472900390625,0.0323375045031309,-0.0026567250538617,0.0030657168467063,0.0018068738281726,0.0005637784488499,0.0004655943484976
1772650912580445000,1.29044482421875,0.0274041397541761,0.0056299687109887,-0.0079001786652952,0.0007894490845501,-0.0003717532381415,-0.0003299973614048
1772650912590418200,1.300418212890625,0.0323404271125793,-0.0084397654347121,0.0011080343071371,0.0025298246182501,0.0001885760575532,0.0013544521061703
1772650912600390000,1.310389892578125,0.0498497803181409,0.0017194442037492,-0.0019387038444634,-0.0028910234104841,-0.000793415820226,-0.0003538673045113
1772650912610362000,1.320362060546875,0.0342909766584634,0.0008907748272642,0.0085931202323641,0.0003929203376173,-0.0022222015541046,-4.49406215921e-05
1772650912620335000,1.330335205078125,0.0440226815998554,-0.0050893224956467,-0.0094842786521185,0.0028975047171115,0.0005145603790879,0.0011885619023814
1772650912630307000,1.34030712890625,0.0383376217007637,0.009915062151663,-0.0012618548956699,-0.0009819222614169,2.6136636734e-05,-0.000366191525245
1772650912640279000,1.350279052734375,0.0402805724620819,-0.0083983009131625,0.0056576421692036,0.0018879706040024,0.0005796258337795,-0.00151396705769
1772650912650252000,1.360251953125,0.0354904155761003,0.0012246464241296,0.0035786713375244,-0.0006705280393362,-0.0025085757952183,0.0017534652724862
1772650912660224000,1.37022412109375,0.0402834950715303,-0.0058076633654534,-0.0031476595091167,-0.0003376863896846,-0.0013502982910722,-0.0019378385040909
1772650912670197000,1.380197021484375,0.0513642765343189,-0.0215663004461675,0.0062096865613944,-0.0001731030642986,-0.0014352530706673,-5.2320479881e-05
1772650912680169200,1.390169189453125,0.0422363827049732,-0.0054580462101846,0.0258706374434288,0.0005693333223462,0.0002077780663967,-0.0031874999403953
1772650912690141000,1.400140869140625,0.0358013812214136,0.0011313421174883,-4.29349594283e-05,-0.000746268313378,0.0017422917298972,0.0017625176114961
1772650912700114000,1.410114013671875,0.0537573091506958,-0.0025728461626917,0.0031126521278172,0.0002426267601549,0.0016577853821218,-0.0013195986393839
1772650912710086100,1.420086181640625,0.0489671522647142,0.0070249667333438,-0.0056360513919033,-0.0010703117586672,0.0024087969213724,-4.92708641104e-05
1772650912720057900,1.430057861328125,0.0447720386624336,0.002892835364677,-0.0136335529518313,-0.0012015886604785,0.0007287845946848,-0.0006010129582136
1772650912730031000,1.440031005859375,0.0384925200015306,0.0042182387495413,-0.007223594577983,-0.0019858896266669,-0.0025628823786973,-0.0022508413530886
1772650912740003000,1.450003173828125,0.0398369203478097,0.0044207755843177,-0.0042579131728038,-0.0002092542126774,0.0005335602909326,-0.0003179793420713
1772650912749975000,1.45997509765625,0.0453676664680242,0.0058256008809432,0.0040104960166849,-0.0001695733517408,-0.0007143970578908,-0.0005643217591568
1772650912759948000,1.469947998046875,0.0476058007836341,0.0025127500059083,-0.0055871433494146,-0.0006805127486586,3.84063459932e-05,-0.0012677935883402
1772650912769920000,1.479919921875,0.0416214656770229,0.0036652810418978,-0.0147246543904766,0.000554128549993,0.0004530604928731,-0.0021335871424525
1772650912779893200,1.489893310546875,0.0306990896463394,0.0120334790777415,0.0038718638641294,-0.0010703201405704,-0.00066221319139,0.0015729693695902
1772650912789865000,1.499864990234375,0.0365355407148599,-0.0021683935476467,-0.0006813150613568,-0.0011893634218722,-0.0011985737364739,0.00108427926898
1772650912799837200,1.509837158203125,0.034592005431652,-0.0090766020335257,0.0092390717193949,-0.000776098575443,-1.74599699676e-05,0.0013163816183805
1772650912809810200,1.51981005859375,0.0366898544937372,-0.0028480463748797,0.0175826650369446,0.0010465686209499,0.001077099237591,-0.0005411733873188
1772650912819782100,1.5297822265625,0.0411830742597579,-0.0063947790710255,0.0059684982166625,-6.01857900619e-05,-0.0018346181605011,-0.000824945687782
1772650912829754000,1.539754150390625,0.048669046100974,-0.0006374576533213,0.008738474386651,0.0005017411895096,-0.0001301951706409,-0.0023080601822584
1772650912839727000,1.54972705078125,0.0308645093411207,0.0011050386324524,0.0011832549678161,5.28870150446e-05,-0.0002323323860764,-0.0010828716913238
1772650912849699000,1.559698974609375,0.0265250188320875,0.0011274331273511,-0.0258845472377724,-0.0001801396720111,-0.0003377934917807,0.0014372775331139
1772650912859671000,1.569671142578125,0.0188940855622291,0.0068117623740807,-0.0096626126274,0.0013220799155533,-0.0020887218415737,1.46017991937e-05
1772650912869644300,1.579644287109375,0.0375964479446411,0.0105270931027829,-0.0158398308244533,-0.0003144326619803,-0.0007600707467645,0.0028170463629066
1772650912879616000,1.589615966796875,0.0356464829206466,0.0069084276815876,-0.0057400049567222,0.0005717244930565,-0.001220122212544,-0.0008996612159535
1772650912889589000,1.599589111328125,0.0250239666193723,0.0176091237856075,0.0036539559302851,-0.0021644074004143,-0.0026094932109117,-0.0006490577943623
1772650912899561200,1.609561279296875,0.0437257444798946,-0.0071705492164939,0.0137747697871178,0.0003304886631667,0.0011525209993124,0.0014196191914379
1772650912909533000,1.619532958984375,0.0426759431660175,0.00272405466903,0.0061860408243257,-0.0023097693920135,0.0021919528953731,-0.0017463467083871
1772650912919506200,1.629506103515625,0.0444745170205831,-0.0061626873482018,-0.0006309000483714,0.000395325012505,-0.0021913258824497,-0.0011203431058675
1772650912929478100,1.63947802734375,0.0407364995360374,-0.0197732430169358,-0.0002652542069088,0.0002794773317873,0.0002108453772962,0.0015670526772737
1772650912939450000,1.6494501953125,0.0471691629320383,-0.0113060050534084,0.0206024603826925,-0.000550621189177,-0.0004923357628285,-6.84447004459e-05
1772650912949423000,1.659423095703125,0.0480728337734937,0.0014419789692386,0.0187883144996594,-0.0010454365983605,0.0006485623307526,0.0016969648422673
1772650912959395000,1.66939501953125,0.03071662530303,0.0018906725848093,0.0031897633514832,0.0005766977556049,-0.0009285002015531,-0.0002658385783433
1772650912969367000,1.679366943359375,0.0533177486896514,-0.0023207710977643,-0.0089002408196218,0.0003671068698167,-0.0019506213720887,-0.0004386777582112
1772650912979340000,1.689340087890625,0.0371557184398174,0.0069524860190227,-0.0012065079792402,0.0005747089162468,-0.0008890554308891,5.97584294155e-05
1772650912989312300,1.699312255859375,0.024584406158328,0.0080511314433068,-0.0033169425282627,0.0001992033794522,0.0005336049944162,0.0011868081055581
1772650912999285000,1.709284912109375,0.0247270294994115,0.0022123788198456,0.0002690444660373,-0.0020917481742799,0.0009519765153527,0.0004455843591131
1772650913009257000,1.719257080078125,0.0426736050784587,0.0114702191717922,0.0024619148678146,-0.0006871968507766,6.99376687407e-05,0.0018328251317143
1772650913019229200,1.729229248046875,0.0262099615335464,0.0090977544194087,-0.0145048741599544,0.0015274095349013,0.0022017192095518,-0.0021684740204364
1772650913029202000,1.739201904296875,0.0281552503824233,-0.0002802782461047,0.003535407584533,0.0008805277757346,-0.0003107069060206,0.0002938847173936
1772650913039174100,1.749174072265625,0.0333995807766914,-0.0060005190564319,0.0018228863119147,-0.001061073038727,-0.0005583697929978,-0.0028353335801512
1772650913049146000,1.75914599609375,0.0247241068899631,-0.0139979475511237,-0.0016743629530072,0.0010888967663049,0.000363350380212,0.0002057300298474
1772650913059119000,1.769119140625,0.0392407080203294,0.0027067016754299,-0.0154443469671532,0.001906210090965,-0.0015855596866458,0.0002498319954611
1772650913069091000,1.779091064453125,0.0369990665733814,-0.0074086322886869,0.000577571559092,0.0016508130356669,-0.0007258912082761,0.0010538403876125
1772650913079064000,1.78906396484375,0.0191904381603002,-0.0043839507052674,0.0128003261312376,-0.0018209982663393,0.0026637804694473,0.0009314456838183
1772650913089036000,1.7990361328125,0.0387958868622779,-0.0220155055183917,-0.0012066541097126,-0.0014867715071886,0.00140410521999,-0.0024078919086605
1772650913099008000,1.809008056640625,0.0344622415721416,-0.0055809784701094,-0.0149480422170367,0.0015936703421175,-0.0005689589306712,0.0011616582050919
1772650913108981200,1.818981201171875,0.0355050286233425,0.0087445936001837,-0.0044010571036953,-9.93013381958e-05,0.0023480015806853,0.0014775091549381
1772650913118953000,1.828952880859375,0.0262204829275608,0.0108840533142909,-0.0022359423585236,-0.0005178465507924,0.0017755543813109,0.0016774678369984
1772650913128925200,1.83892529296875,0.0320545959085226,-0.0068107394607737,0.003722701184405,-0.002141575794667,-0.0028530196286737,-0.0012573357671499
1772650913138898200,1.848898193359375,0.0387923797309398,-0.0144774381637573,0.0004840845893602,0.0003551128320395,0.0009695887565612,-0.0008738280157558
1772650913148870000,1.858869873046875,0.0212847800910472,0.0015379866896197,-0.0051683790812268,0.0006842794828116,-0.0014205980114638,0.0012633586302399
1772650913158842000,1.868842041015625,0.0299602539777755,0.0132807391924783,-0.0079408029366284,0.0005594473332166,0.0022205715067684,0.0016406171489506
1772650913168814800,1.87881494140625,0.0203805247277021,-0.0136118343103677,0.0001606156555004,0.0011778329499065,-0.0016287616454064,-0.0005386475822888
1772650913178787000,1.888787109375,0.0369920523107051,0.0071927975809201,0.0238127276660874,-0.0007956409826874,0.0001079863868653,-0.0025322749279439
1772650913188760000,1.898760009765625,0.0428285033792257,0.0030740736830979,-0.0067169328306335,0.0018217139877378,4.83314506709e-05,6.27093249931e-05
1772650913198731800,1.908731689453125,0.0263671979218721,0.0016567907636985,-0.0076767634392715,-0.0011246968060731,-0.0006808980833739,0.0011581191793084
1772650913208704000,1.9187041015625,0.0425280591279268,-0.0203287214752286,0.0050667362045031,0.0004569543525576,-0.0012625323142856,-0.0002088813926093
1772650913218677000,1.928677001953125,0.0485135632783174,-0.0072650590995326,0.0104018044889904,0.00065314816311,-0.001455309567973,0.0004706142935901
1772650913228649000,1.93864892578125,0.0265191736131906,-0.0047345907738432,-0.008169040468242,-0.0006930800154805,-0.0007479740306735,0.0003779362887144
1772650913238621000,1.948620849609375,0.0440302803844213,-0.0248492311069741,0.0067671012484468,0.0011773142032325,-0.0016492342110723,-0.0012625433737412
1772650913248594000,1.958593994140625,0.0304161810517311,0.002006334853731,0.0147390939077828,0.0001205718144774,0.0002344194799661,-0.0010936990147456
1772650913258566000,1.96856591796875,0.0281733705610036,-0.0034004560932517,0.0026258732578717,-0.0016969155985862,0.0007817549630999,-0.0004059302445966
1772650913268538000,1.9785380859375,0.0364051923334598,0.0029606033712625,0.0038031642757821,0.0011758361943066,0.0008848193101584,0.0018449734197929
1772650913278511000,1.988510986328125,0.0317623349636793,0.0145637282077223,-0.0060383851150982,-0.0008890205062925,-0.0003919210284948,-0.0005768942064605
1772650913288482800,1.99848291015625,0.0305593889147043,0.0058734586106613,-0.0040404070977587,-0.0007260348647832,0.0003649494610726,-0.0008594556129537
1772650913298456000,2.0084560546875,0.030112229669094,0.0166932875823229,0.0108133261656388,-0.0001230700872838,0.0018463912419974,-0.0010664744768291
1772650913308428000,2.018427978515625,0.0257774153351783,0.0111928270025178,0.0032613946824334,-0.0013537167105823,-0.0006282178219407,0.0016661951085552
1772650913318400000,2.02839990234375,0.0266688112169504,0.0054268473543226,0.0076196629571728,0.0005099298432469,-0.0002045622095465,0.0003020245349034
1772650913328373000,2.038373046875,0.036841245663166,0.005762107190676,0.0025762254298664,-0.0019532276783138,0.0006553726270794,0.0007571587339043
1772650913338345000,2.048344970703125,0.0307066884309053,-0.0016117460455745,0.0085163104027975,-0.0011021047830581,0.0001332121901214,-0.0016387369250878
1772650913348317000,2.05831689453125,0.0398351667821407,-0.0137738930042833,-0.0033499040829483,2.04173848032e-05,0.0011569312773644,-0.001129007898271
1772650913358290000,2.0682900390625,0.0459755692332983,-0.0112350587090477,-0.0029015209946315,-0.001992124132812,-0.0008134201634675,-0.0004823238705284
1772650913368262100,2.07826220703125,0.028321839120984,-0.0027822145970538,-0.0058148876906838,0.0008002002723515,-0.001250977627933,-0.0018163012573495
1772650913378233900,2.08823388671875,0.0323643925100564,0.0086505221085622,0.0139212290531024,0.0002376395277678,0.000728806015104,0.003187644528225
1772650913388206800,2.098206787109375,0.0322112477749586,-0.0135038438912481,0.0051540217623114,0.0001691966317594,-0.0017956045921891,-0.0003735344507731
1772650913398179000,2.108178955078125,0.0305640650898218,-0.0079458809705451,0.0025813582627102,0.0010013235732913,-0.000280967913568,0.0010502666700631
1772650913408151800,2.11815185546875,0.038797640427947,-0.0047816813185811,0.0029920670886058,-0.0006703427061438,0.0023158802650868,-0.0024853460490703
1772650913418124000,2.1281240234375,0.0437315896987915,-0.0005272022118791,-0.0050910395286977,-0.0017781308852136,0.0014584404416382,0.0025788466446101
1772650913428096000,2.138095947265625,0.0423819286555051,0.0120076139841228,-0.0002610072900541,0.0003244346007704,-0.0012992627453058,-0.0015591729898005
1772650913438069000,2.148069091796875,0.0371440280020236,-0.0003550239827483,-0.0049736876261886,0.0001093698665499,-0.0012703482061624,-0.0022261720150709
1772650913448041000,2.158041015625,0.0359463426500558,0.0100275095501914,0.0120285106416791,-1.34017318487e-05,1.7290469259e-05,0.0017043875996023
1772650913458013200,2.16801318359375,0.0405798476696014,0.0035661680489778,-0.0006188625507056,0.0006142016500234,-0.0026700175367295,0.0001462782383896
1772650913467986000,2.17798583984375,0.0452145217329263,-0.0103590065268799,0.0049292182967998,0.000204341020435,-0.0017751953564584,-0.0009983483469113
1772650913477958000,2.1879580078125,0.0369856225699186,-0.0073304159533232,-0.0091145776900462,-0.0007805456407368,-0.0003882423043251,0.001467268448323
1772650913487930000,2.19793017578125,0.0389361721158027,-0.0133450366003438,0.0065523442529141,-0.0005424586124718,0.0004304135218262,-0.0003146525705233
1772650913497902800,2.20790283203125,0.0384890128701925,-0.0111920598175376,0.0138171384909655,-0.0010924045927822,-0.0009005772881209,0.0008193831890821
1772650913507875000,2.217875,0.048365094718337,-0.0071129372777417,0.0088058496675919,-0.0024218545295298,-0.001163963926956,0.0017474949127063
1772650913517848000,2.22784814453125,0.0503062919139862,-0.0065193918313831,-0.0074437127352226,-0.0005850298330187,0.0004553482867777,0.0015539277810603
1772650913527819800,2.23781982421875,0.0375870955944061,0.0052738122170791,0.0059443775555584,-0.001792773604393,5.08143566548e-05,-0.0010431868722662
1772650913537792000,2.2477919921875,0.0375870955944061,0.00612184388116,-0.0136358819062355,-0.0008530979976058,0.0018661692738533,-0.0007502093794755
1772650913547765000,2.257764892578125,0.0425251365184783,0.008601239606738,-0.0161713369342964,-0.0010877223685383,-0.000831080134958,-0.0027534391265362
1772650913557737000,2.267737060546875,0.0295008197724819,0.0048570481097325,-0.0127809090447146,-0.0005229474045336,-6.88601285219e-05,0.003422520821914
1772650913567709000,2.277708984375,0.0375689754158258,0.0119769265849143,-0.0045651068252976,0.0005220770835876,-0.0002118716947734,0.0017886713612824
1772650913577682000,2.287681884765625,0.0438484940767288,0.0126803256139159,-0.0214599722611717,-0.0025041175540536,0.0006018290296196,-0.0009818997932597
1772650913587654000,2.29765380859375,0.0357680634737014,0.0077460475495085,0.0096852628506254,0.0009585246443748,-0.0026964959688484,0.0011925711296498
1772650913597625900,2.3076259765625,0.0456482369750738,0.0060644876707345,-0.0155497709698509,0.000618849415332,-0.0026855706237256,0.0005274303839541
1772650913607599000,2.31759912109375,0.0398100323408842,0.0008221665704622,-0.0080571958579123,0.0005498733371496,-0.0017811609432101,-0.0016640848480165
1772650913617570800,2.32757080078125,0.0345785614281892,0.0023489377463236,0.0031485088924877,-0.0012522628530859,-0.0005600969307124,0.0003370667109265
1772650913627543800,2.337543701171875,0.0263537539184093,-0.0046699645724147,0.0054599459063261,0.0013925223611295,0.0023041330277919,0.0002571719232946
1772650913637516000,2.34751611328125,0.0443102663695812,-0.0007029241049662,-0.0181649401706177,-0.0021653161384165,-0.0013344823382794,0.0003846522886306
1772650913647488000,2.357488037109375,0.0399701913386583,-0.018624401775375,0.0028230397977866,-0.000575675163418,0.0014597061090171,-0.0019117913907393
1772650913657461000,2.3674609375,0.0404243648469448,-0.0019923428609967,0.0042455834141932,-0.0002441317774355,0.0007729106582701,-0.0003397828550077
1772650913667433000,2.377432861328125,0.0471592260599136,0.00619878157489,0.0060302748738788,-0.000156513415277,-0.0017775986343622,-0.0012053102254867
1772650913677405000,2.387405029296875,0.0369879606574773,0.0044407954590395,-0.0013782386837992,-0.0006792615167796,0.000138328410685,-0.0007092496380209
1772650913687378000,2.3973779296875,0.0268120190799236,0.0187137240266427,-0.0074277571142651,-1.93300656974e-05,-0.0003615468740463,0.0025797542184591
1772650913697350100,2.40735009765625,0.0232189630240201,0.0054958574699237,-0.0094276713603641,0.0016611935570836,0.0001259734854102,0.0015548897208645
1772650913707323000,2.417322998046875,0.0408709395706653,0.006829553759098,0.0054615533415228,-0.0012206132523715,0.0018735397607088,0.0015263938112184
1772650913717294800,2.427294921875,0.0224655143082141,0.0096647771850228,-0.0026187585304956,-0.0002153604291379,-0.000714884372428,0.000217308406718
1772650913727267000,2.43726708984375,0.0398170466035604,0.0146183079391717,-0.0021188735838048,0.0004954375326633,0.0013253632932901,0.0011898948578163
1772650913737239800,2.44723974609375,0.0317331088691949,0.0221332501465454,-0.0112764501653611,-0.0021081508602946,0.002436991315335,0.0001550854649394
1772650913747212000,2.4572119140625,0.0465507387727499,0.0052299000101163,0.0025869203538168,-0.0008956138044595,0.0017672064714133,-0.0011405423283576
1772650913757184000,2.46718408203125,0.0287491246223449,-0.0068849737407639,0.0049973607627209,0.0009183166548609,-0.0003542066551744,-0.0021966630592942
1772650913767156700,2.47715673828125,0.0356394686579704,-0.0050035804409533,-0.0087411412677727,0.0008536018431186,0.0012519457377493,-0.0005220673047006
1772650913777129000,2.48712890625,0.0280056127786636,0.004375475137867,0.0125818428086582,-5.57694584131e-05,0.0012799003161489,0.0028018103912472
1772650913787101000,2.497100830078125,0.0272597628474235,-0.0067819152250885,-0.0036304837231524,-0.0004208888858556,-0.0007305198814719,-0.0010919974884018
1772650913797074000,2.507073974609375,0.0371381827831268,-0.0053288303399458,0.0002159717050846,-0.0013893507421016,0.000390404369682,0.0001439328189007
1772650913807046000,2.5170458984375,0.0313034852802753,0.0003056684156879,-0.0085234799291007,-0.0010332860983908,0.0007635131478309,-0.0003186582471244
1772650913817019000,2.527018798828125,0.0250198749661445,-0.0001711187832057,-0.0051987559531815,-0.0007090447470545,-0.0014625368639826,0.0028227299917489
1772650913826990800,2.536990966796875,0.0265168355256319,0.0065120487751439,-0.0034898514097556,0.0012851301580667,0.001015268266201,-0.0020335442386567
1772650913836962800,2.546962890625,0.0335486338585615,-0.0003241904530674,0.0149545358899049,0.0003748321905732,-0.0003601540811359,-0.0009720971575006
1772650913846936000,2.55693603515625,0.0268137726455926,0.0033129970055073,0.0004530044645071,-0.0007002856582403,0.0011072475463151,0.0008537661051377
1772650913856907800,2.56690771484375,0.0420791463166475,-0.0014020853502675,0.0001340655752923,-0.0009371316991746,0.0017067375592887,-0.0030351574532687
1772650913866880000,2.5768798828125,0.0302560220539569,-0.0112619467159733,-0.0002465951722115,0.0009372010827064,-0.0016533727757632,0.000721763994079
1772650913876853000,2.58685302734375,0.0669154814094305,-0.0155644296828657,-0.0106218495809938,0.0002357391640543,0.0017969850450754,-0.0008967992616817
1772650913886825000,2.596824951171875,0.0435761068761348,-0.0239169917581602,-0.0069850457149092,-0.001597847091034,-0.0010161118116229,-0.0005481914849951
1772650913896797000,2.606796875,0.0423778370022773,0.0005139408715069,0.0034928014186676,-0.0020489103626459,0.0025704675354063,-0.0013247919268906
1772650913906770000,2.61677001953125,0.0396866982221603,0.012110270640999,0.0172486473096068,0.0026401174254715,-0.0018341345712542,0.0014954954385757
1772650913916742000,2.626741943359375,0.0387871190339326,0.013317381408438,-0.0012636815265752,0.000839321874082,0.0001811822876334,0.0015511035453528
1772650913926715000,2.63671484375,0.0431277785867452,-0.0025999533653259,-0.0021846779621671,-0.0008752215653657,9.40971076488e-05,0.0007279203855432
1772650913936687000,2.64668701171875,0.038337037178874,-0.0095807156307622,-0.0004396152599714,0.0003080116584897,0.0002048132009804,0.0027182816993445
1772650913946658800,2.656658935546875,0.0408762002676725,0.0004465747237205,0.0133039739375933,0.0010297279804944,0.0002490216866135,-0.0016490363050252
1772650913956631800,2.6666318359375,0.0224736976146698,-0.0054393415097147,-0.0015614588967524,-0.0009787986055016,0.0011251210235059,-0.0022514734882861
1772650913966604000,2.67660400390625,0.0305547127395868,0.0077130220627412,0.0009859422974288,0.0012518651783466,-0.0009388288017362,-0.0006154935690574
1772650913976575700,2.68657568359375,0.0553933859199285,0.0083152257395908,0.010973868755903,-0.0020989198237657,0.0002172216773033,-0.0004167349252384
1772650913986549000,2.696549072265625,0.0332470205634832,0.0162234415808692,0.0025036990497726,0.000986352097243,0.000480874441564,0.0009308246080763
1772650913996521000,2.70652099609375,0.0299544087588787,0.005253682744503,0.0053745783109683,0.0016453359276056,-0.0003450564108788,0.0001900350907817
1772650914006493000,2.716492919921875,0.0416238037645816,-0.0136881509495899,-0.0018364125137683,0.0028850375674664,0.0014235489070415,0.0009833907242864
1772650914016466000,2.7264658203125,0.037135844695568,-0.0144785341423004,0.0147623377860523,0.0011023418046534,-0.0005022347904741,0.0009491356904618
1772650914026438000,2.73643798828125,0.0455126278966665,0.0001223842706531,0.0140081310184206,-0.0014857179485261,-0.0022503337822854,-0.0008881791727617
1772650914036411100,2.7464111328125,0.0305500365644693,-0.0091695410139858,0.0142144581123255,-0.0023107449524104,-0.0003768308088183,-0.0018984151538461
1772650914046382800,2.7563828125,0.0251683435261249,0.0032618513401597,0.0105255861322861,-0.0002438658848404,-0.0012444886378943,0.0009785976726561
1772650914056355000,2.76635498046875,0.0413256976008415,6.11921353265e-05,0.0162966072817798,-5.83385117352e-05,0.0013281665742397,0.0023343749344348
1772650914066328000,2.776328125,0.017385434564948,0.0160416187405586,0.0063250383030623,0.0007555233314633,-0.0018726869020611,-0.0003186661342624
1772650914076300000,2.786300048828125,0.0212725051313638,0.0225929766127839,0.0082878810749389,0.0007570534944534,0.0007783854380249,0.0018490909133106
1772650914086272000,2.79627197265625,0.0266612124323844,0.0363295698139816,-0.0055739185416605,-0.0018275445327162,-0.0035393978469073,-0.0010337808635085
1772650914096245000,2.806244873046875,0.0323468568533659,0.0311556377748027,-0.0066730297568254,0.0006176875904202,-0.0011442571412771,-0.001210001297295
1772650914106217000,2.816217041015625,0.0396820220470428,0.0243965919686481,-0.0083056907262653,-0.001153846969828,-0.0004547648131847,-9.36041469685e-05
1772650914116189000,2.82618896484375,0.0351911403685808,0.0067690922761335,-0.0025318474320229,0.0018839482218027,0.0003713578917086,-0.0007498183986172
1772650914126162200,2.836162109375,0.0212754277408123,-0.0044843423398211,-0.0067548993539996,0.0015158993192017,-0.0011727430392056,0.0012720534577965
1772650914136134000,2.8461337890625,0.0414747506827116,-0.0219626793526113,-0.0045348395511973,-0.0008991598151624,0.0004528602585196,0.0002062552375718
1772650914146107000,2.85610693359375,0.0462637385249137,-0.0155483187982812,-0.0027733919697813,0.0015954230912029,-0.0014390493743121,-0.0018941798480227
1772650914156079000,2.8660791015625,0.024418401941657,-0.0261233061634004,0.0049040564560797,-0.0004411772824823,0.0010726749897003,-0.0008397824713028
1772650914166050800,2.87605078125,0.029358780953288,-0.0376795231182128,-0.0074317665691021,0.0008411351591348,0.0001134043559432,0.0002707557287067
1772650914176024600,2.886024658203125,0.0356447293549776,-0.0131734428931027,0.0108491098650731,0.0008788486011326,-0.0018194906879216,-0.0020797778852283
1772650914185996800,2.895996826171875,0.0328021994054317,-0.0137597914136946,-0.002417883929843,0.0005691228434443,0.0006585805676877,0.0007737992564216
1772650914195968500,2.905968505859375,0.0218827459841966,-0.0017756679030135,-0.0117037447998765,-0.0006330017931759,-0.0016512933652848,-0.0001503526582382
1772650914205941800,2.915941650390625,0.0420808998823165,0.014341500291787,-0.0157190448558423,0.000609362963587,0.0012744553387165,0.001688293647021
1772650914215913700,2.925913818359375,0.0396826065689325,0.0224037376509979,-0.0005899743829388,0.0016806949861347,-0.0002373526804149,0.0001393757411278
1772650914225885700,2.9358857421875,0.0307008432120084,0.0290748494453728,-0.0021505838963203,0.0014612507075071,0.0001647844910621,0.0024523311294615
1772650914235858700,2.945858642578125,0.0260585703641176,0.012572225596942,-0.0105013193407095,0.0006176396273076,-0.0014365804381668,0.0006094612181186
1772650914245830700,2.95583056640625,0.0384855057388544,0.0056783013647422,-0.0098001579345669,3.99998389184e-05,-0.0021306001581251,-0.002252637874335
1772650914255804000,2.965803955078125,0.0378898779332637,0.0180378705916926,0.0076236632788553,0.0001883874647319,-0.0001529520377516,0.0005207003559917
1772650914265775600,2.975775634765625,0.0200818340420722,-0.015748554078117,0.0122819191471673,0.0004051690921187,-0.0011737418826669,-0.0007027558167465
1772650914275747800,2.985747802734375,0.0395364760965108,-0.0232469470094889,0.0193997700620442,0.0006060120649635,-0.0008035222999751,-0.0002380543446633
1772650914285720800,2.995720947265625,0.041332127341628,-0.0147045979831367,0.0149100848268251,-0.0003724335692822,-0.0005281511694192,0.0005502413259819
1772650914295692800,3.00569287109375,0.0417863008499145,-0.0283434298982843,-0.0024284875222481,-0.0002877512015402,0.0012594033032655,0.000470982864499
1772650914305664800,3.015664794921875,0.0356505745738744,-0.0008052519682794,-0.0087462284348439,0.001541840378195,0.0006037331186234,0.0017274621641263
1772650914315637800,3.0256376953125,0.0114110363304615,0.0139379244595766,0.0058755044372752,-0.001592363230884,0.0005192044191062,-0.0004167725273873
1772650914325609700,3.035609619140625,0.0141109429389238,0.0029802213871851,0.0045624034115578,0.0004777116701006,0.000180450733751,-0.0025025601498782
1772650914335582700,3.045582763671875,0.0292272635281085,0.0136170584747567,0.0032837617778684,0.0001603625714778,-0.0003325836732983,-0.0001794613199308
1772650914345555000,3.055554931640625,0.0390992537230253,0.0093508158650249,-0.0007320223352871,-0.0005198088474571,0.0003718226216733,0.0011465265415608
1772650914355526700,3.065526611328125,0.0209901810586452,0.0023964666824787,-0.0190176571429707,-0.0008762846700847,-0.0027047868352383,0.0005427283467724
1772650914365499600,3.075499755859375,0.0495668717235326,-5.2972296252e-06,0.0089742376375943,7.84588046371e-05,-0.0003145998343825,0.0003536439035087
1772650914375471900,3.085471923828125,0.0435766913980245,0.0065998731890693,0.0048413390839472,-0.0028061547782272,-0.0005000801756978,-0.0011815390316769
1772650914385443600,3.095443603515625,0.0344487975686788,-0.0151703523313626,-0.0046996564577799,0.0002940311096608,7.48964957892e-05,0.00177803193219
1772650914395416800,3.105416748046875,0.0411871659129857,-0.0181472127176821,-0.0061719118342734,-0.0007992819882929,-0.0004986254498362,-0.0027941749431192
1772650914405388800,3.115388916015625,0.0371504577428102,-0.0011739391501992,-0.0073098024235572,-0.0007076696492731,0.0003639725036919,-0.0008415453485213
1772650914415360800,3.12536083984375,0.0304202727049589,-0.0154827062161639,0.0140978094627149,0.0001737019047141,-0.0017709855455905,0.0011756138410419
1772650914425333800,3.135333740234375,0.0476326887905597,0.0101602690843865,0.0121107090324163,-0.0023302019108086,0.000925198663026,0.0008469797321595
1772650914435305700,3.1453056640625,0.0391050989419221,0.0149599244510754,0.0104470044707413,0.0016095484606921,-0.0014851435553282,0.0016151589807122
1772650914445278700,3.15527880859375,0.0290747033149003,0.0114651776704937,-0.0059639407725539,1.3249926269e-05,0.000950317364186,0.0022489912807941
1772650914455250700,3.165250732421875,0.040742929276824,0.017961079028435,-0.0131078851099126,-0.0004451866261661,0.0007225670851767,-0.0007728601922281
1772650914465223000,3.175222900390625,0.0286164381533861,0.0021233853621408,-0.0020533249337691,7.83908180892e-05,-0.0004601427353918,0.0007427447708323
1772650914475195600,3.185195556640625,0.0591407557547092,-0.0004676540443673,0.0049168976713437,-0.0005956417880952,0.0005632359534502,-0.0010746415937319
1772650914485167600,3.195167724609375,0.0477694669127464,0.0057612304078415,-0.0087196600883267,0.00154500734061,-0.0002889754250645,-0.0009593267459422
1772650914495139800,3.205139892578125,0.0323573782473802,0.0055579629207029,-0.0134561231588479,-0.0001728325150907,0.0003529665991663,0.0017441790550947
1772650914505112600,3.215112548828125,0.0334013343423604,-0.0094969463374465,0.0063222618240863,0.0005203881300985,0.0004448452964425,-0.001658541848883
1772650914515084800,3.225084716796875,0.0188847332119941,-0.0143779233120381,-0.0095330588304437,-0.0023299425374716,-0.0002887323498725,0.0027997144497931
1772650914525056800,3.235056884765625,0.0425263055622577,-0.0050949119862169,0.0011786153253167,0.0014149947091937,0.0002532210201025,0.0013948971172794
1772650914535029800,3.24502978515625,0.0464151296943426,-0.0120266109455376,0.0038312304596416,4.58434224128e-05,-0.0005649365484714,0.0026430948637425
1772650914545001700,3.255001708984375,0.0374368734687566,-0.0209840070461854,-0.0030219051044434,0.0003976472653448,-7.91759230196e-05,0.0001876602182164
1772650914554974700,3.264974609375,0.042378421524167,-0.0038799832385033,-0.0021047445937525,7.40005634725e-05,0.0015985388308763,-0.0032366318628191
1772650914564946700,3.27494677734375,0.0568979452639818,-0.0025483327759429,-0.0070817384218797,-0.0004327986389398,0.0008041178807616,-0.0018850775668397
1772650914574918700,3.284918701171875,0.0256248551219701,-0.0055300520004704,-0.0087699655034579,-0.0009321523830294,-0.000200571026653,0.0012197114992886
1772650914584892000,3.294891845703125,0.0338525852411985,0.0139022686243057,0.0003418448407668,-0.0008610459044575,-0.000419482588768,-0.0007084170938469
1772650914594863600,3.304863525390625,0.0334054259955883,-0.0043715296151116,0.0057887120698112,-0.0011792627628892,0.0008933888748288,0.0011488914024084
1772650914604835800,3.3148359375,0.025621347990632,0.0087284461829811,-0.0070744592977222,0.0002868073061108,-2.8331298381e-05,-0.0003653819148894
1772650914614808800,3.324808837890625,0.0380389310151338,0.0007154913255944,0.0074322780257556,0.0004580458626151,-0.0005513657815754,-0.0002986103645525
1772650914624780500,3.334780517578125,0.0266617969542741,0.0016076178597286,-0.0183359219565056,-0.0012042995076626,0.0006137671880424,-0.0006187223480083
1772650914634753800,3.34475390625,0.0322013109028339,0.0032594767199829,0.0047537247325759,0.0005693831481039,-0.0007426107767969,-0.0016468957765027
1772650914644725800,3.354725830078125,0.0441752418130636,0.0067651467533782,0.0047559075565077,-0.0011454264167696,0.0015735402703285,-0.0001946740958373
1772650914654697700,3.36469775390625,0.019487375280261,-0.0039678807176649,0.0055942032778635,-0.000667808111757,0.0014123930595815,-0.0011329668341204
1772650914664670700,3.374670654296875,0.0221843592792749,0.012663374479115,0.0013381624017376,-0.0017703569028526,0.0007367487996816,0.0008476260118186
1772650914674642700,3.384642578125,0.0260761060208082,0.005002082603611,-0.0085280008405912,0.0001673237420618,-0.0012712290044873,0.0005226250505074
1772650914684614700,3.39461474609375,0.0486719687104225,0.010373254247941,-0.0146419536762405,0.0014858548529446,-0.0007625652942806,-0.0008750018896535
1772650914694587600,3.404587646484375,0.0296679930329322,-0.009514080135338,-0.0068444134015124,3.16179357469e-05,8.3423219621e-06,3.15075740218e-05
1772650914704559900,3.414559814453125,0.0361029945164918,0.0109479488633573,-0.0016371453483123,-0.0011553529184311,0.0022637732326984,-0.0004625087894964
1772650914714531600,3.424531494140625,0.0422369672268629,0.0084171517441049,-0.0094766433349344,0.0001217653043568,-0.0029554427601397,0.0010855994187295
1772650914724504800,3.4345048828125,0.0286216988503932,0.0270945623483508,-0.0083607727812137,0.0028626909479498,0.0011673970147967,-0.000742926960811
1772650914734476800,3.444476806640625,0.0262269126683473,0.0125207511380314,-0.0047872616759967,-0.0010949729476124,0.0003930069506168,-0.0012803263962268
1772650914744449500,3.454449462890625,0.040293431943655,0.0004507759748026,0.0164217132324818,0.000266168732196,0.0009711789898574,0.0007905476959422
1772650914754421800,3.464421875,0.0350567003339529,-0.0043507790880277,0.0004312766898889,0.000635911244899,0.0006242943927645,-0.0008770547574386
1772650914764393700,3.474393798828125,0.0181447284996509,-0.0052615007247775,0.0137018598145339,0.0010524298995733,-0.0019469875842332,0.003971230238676
1772650914774366700,3.48436669921875,0.0301139832347631,-0.0083132895108312,-0.0017851846500299,0.0009290287271142,0.0003343443386256,8.81453161127e-05
1772650914784338700,3.494338623046875,0.0350531932026147,-0.0013499898368492,0.0035090127679519,-0.0002078749239444,-0.0003767195157706,-0.000194149732124
1772650914794311000,3.504310791015625,0.0395440748810768,0.0005701645707711,0.0076480853340588,-0.0013014252763241,3.4088268876e-05,-0.000166308338521
1772650914804283600,3.51428369140625,0.0358078109622001,0.005984627367556,0.0141320587921887,0.0005862233228981,0.0011986885219812,-0.0009420871501788
1772650914814255600,3.524255615234375,0.0376028776854276,0.001210252572596,-0.0012865418123546,0.0003309003077447,0.0012669418938457,-0.0003648747806437
1772650914824228900,3.534228759765625,0.0374561626911163,0.0167968575546517,-0.0125911586262751,-0.0021562257315963,0.0005984888412058,-0.0024732993915677
1772650914834200600,3.54420068359375,0.0301256736725568,0.0095859032625332,-0.0038650961966253,0.0010207393206655,-0.0023634880781173,-0.0003836357209365
1772650914844172800,3.5541728515625,0.0293733940005302,0.0001576017145067,0.0120623581123538,0.0008002296090126,-0.0017959685064852,6.24437234364e-05
1772650914854145800,3.564145751953125,0.0341629663646221,0.0019113135140389,-0.0053026638522278,-0.0005733934231102,0.0002730656415224,0.0003793456126004
1772650914864117500,3.574117431640625,0.0349123234272003,-0.008840016798675,-0.0113369116483256,0.0016599334776401,-0.0013685068115592,-0.0024156421422958
1772650914874089700,3.58408984375,0.033262218132615,0.0087586586581543,0.0102768903345335,0.0013823742046952,0.0014098458923399,0.002068059053272
1772650914884062700,3.594062744140625,0.0426852955162525,0.003968246043846,0.0125702893681824,-0.0032400744967162,0.0002753394655883,0.0005023867124691
1772650914894034700,3.60403466796875,0.0407411757111549,0.0326449264844879,0.0192760797502938,0.0012852111831307,0.0002145613543689,4.49633807875e-05
1772650914904006700,3.614006591796875,0.0376017086416482,-0.0007752221561968,-0.0124865931401029,-0.0038552223704755,-0.0005287271924316,0.0018897351110354
1772650914913979600,3.623979736328125,0.0335609088182449,-0.0053581660322844,-0.0037246374131646,-0.0002046078443527,0.0004803137853741,0.0017480938695371
1772650914923951600,3.63395166015625,0.0295212780386209,-0.0007684636218473,-0.011012164072832,0.0002665054053068,0.0006739255040884,-0.0005765793612226
1772650914933924600,3.643924560546875,0.040742929276824,-0.0005573781544342,0.013464991451893,0.001643968746066,-0.0015557908918708,0.0017349475529044
1772650914943896800,3.653896728515625,0.0242827928632497,-0.0056702276561409,0.0020102712433319,-0.0007480825297534,0.0023087221197783,-0.001816910225898
1772650914953868500,3.66386865234375,0.0405927071511745,-0.0175256102206185,-0.0154406206401064,0.0007458790205419,-0.0001382152549922,-0.0010430498514324
1772650914963841800,3.673841796875,0.0299713598936796,-0.0034219372726976,0.0015698522657621,0.0017871749587357,0.0007867007516324,-0.0007242695428431
1772650914973813800,3.683813720703125,0.0509223779857158,-0.0015268077084794,-0.00427360393228,-0.0028204321861267,-0.0007487882394343,0.0005441608373075
1772650914983785700,3.69378564453125,0.0449397964447736,-0.0045970819992944,-0.00229328030264,0.0007250341586768,0.0013308739289641,-0.0032196845859289
1772650914993758700,3.7037587890625,0.0368587813198566,0.0069291416760534,0.0090629297011997,-0.0005838684737682,-0.0004871129058301,0.0005028223386034
1772650915003730700,3.713730712890625,0.0335638314276933,0.00599014379289,0.0106073917973786,-0.0007276791147887,-0.0002721957862377,0.0009616849711164
1772650915013702700,3.72370263671875,0.0389484470754861,0.0068160732230171,0.0041723355148918,0.0020622755400836,0.0003301771357655,0.0008445364655926
1772650915023675600,3.733675537109375,0.0435877973139286,0.0096127912694588,-0.0107025227349251,0.0001538540236651,-0.0008264337666332,-0.000652160088066
1772650915033647900,3.74364794921875,0.027723288705945,0.0036619931062683,-0.0226681790071539,0.0018877009861171,0.0021593999117612,-0.000525370822288
1772650915043620900,3.753620849609375,0.0307148717373609,0.0141831313923001,-0.00767881839904,0.000700463540852,0.0007399353198707,0.0011715954169631
1772650915053592600,3.763592529296875,0.0464250665664672,0.010334420074895,0.0008361585631966,-0.0002182857133448,0.0020970348268747,-0.0005804516258649
1772650915063564800,3.773564697265625,0.0334036724299192,0.0158249072499573,-0.0021458346559666,-0.0012404068838804,0.000869317445904,0.0020848400890827
1772650915073537800,3.783537841796875,0.0346031113475561,-0.006393573494628,0.0138522828695829,-0.0016022964846342,0.0005134488455951,-0.0027267306577414
1772650915083509800,3.793509765625,0.030561727002263,-0.0203489240130409,0.0107169896516948,-0.0012009581550955,0.0004471358843147,0.0025103755760937
1772650915093481700,3.803481689453125,0.0302636208385229,-0.0125009504590183,-0.0025762071635574,-6.98748044669e-05,-0.0001806686632335,-0.0010961203370243
1772650915103454700,3.813454833984375,0.0432815078437328,-0.001774462326616,0.0243861984387971,-0.0021615214645862,-6.80168159306e-05,0.0008788799168542
1772650915113426700,3.8234267578125,0.0486713841885328,-0.0099093995958566,0.0003867434284184,0.0001466246321797,0.0001314152032136,-0.0014236058341339
1772650915123399700,3.833399658203125,0.0413403106480836,0.000494907377474,0.0041955063279252,0.0009716721251606,0.0014898935332894,0.0009660485666245
1772650915133372000,3.843371826171875,0.0470224479377269,0.0039528292790055,0.0089187171912286,0.000798197928816,-0.0032784440554678,0.0007288563647307
1772650915143343600,3.853343505859375,0.0325093539386987,0.0132369365833699,-0.0145920409867539,-4.41595911979e-05,0.000994864385575,0.0017126279417425
1772650915153316900,3.86331689453125,0.0351999081969261,0.0187286293348297,-0.0023154921344481,-0.000523914117366,-0.0001151342876255,0.0001945655094459
1772650915163288800,3.873288818359375,0.047768297868967,0.0115241413161158,0.0081981204322539,0.0009637279435992,0.0021301768720149,-0.0005234227282926
1772650915173259800,3.883259765625,0.0356464829206466,0.0013809329643845,-0.0138279886785428,-0.0008213329128921,-0.0018142012413591,0.0009019532590173
1772650915183232800,3.893232666015625,0.0375917717695236,0.0060793929789215,-0.0065160673631355,0.0004037208855152,-0.0018291149754077,-0.0001601153635419
1772650915193204700,3.903204833984375,0.0263677824437618,0.0061386854181066,0.0007409088946413,0.0025580110959708,7.50496983528e-05,0.0026371660642325
1772650915203176700,3.9131767578125,0.0290583367019891,-0.0029064620312303,-0.010373930101376,-0.001716628903523,0.0011573582887649,-0.001506446278654
1772650915213149700,3.923149658203125,0.0342979909211397,-0.0005693608531728,-0.0103166469561867,-0.0002058846876025,-0.0032294034026563,-0.0015161113115027
1772650915223121700,3.93312158203125,0.0298106163740158,0.0042459670066833,0.0105147633441723,0.0017278362065553,0.00043217651546,0.0004865858354605
1772650915233094700,3.9430947265625,0.0399871424734592,-0.0205079870322719,0.0023560433405451,-0.0022844136692583,0.0008106534369289,0.0008153764065355
1772650915243067000,3.95306689453125,0.0546481205105781,-0.0023186156732961,0.0085801420197822,0.0009529246017336,0.0031502400524914,-0.0002541490539442
1772650915253038600,3.96303857421875,0.0435755223542451,-0.0194030214650556,-0.0294469524270854,-0.0002779136411845,-0.0010121613740921,0.0008551202481612
1772650915263011600,3.973011474609375,0.0443231258511543,-0.0036443113191053,-0.0012260346636176,-0.0004699272103607,-0.0004734038375318,-2.31902231462e-05
1772650915272983800,3.98298388671875,0.0381903221845626,0.003640402328968,-0.0152563318480737,-0.0006029806099832,0.0008320691995322,0.000214178871829
1772650915282955500,3.99295556640625,0.0301075534939765,0.0190897542648017,-0.0281869698280934,-0.0023289753589779,0.0016078478656709,0.0020256610587239
1772650915292928800,4.0029287109375,0.0257651403754949,0.0174979915613308,-0.0061187751412391,-0.0005154749378561,0.0021991492249071,-0.0007157292566262
1772650915302900700,4.012900634765625,0.0292079743057489,0.012021204118058,-0.0180609409400261,0.0011191731318831,-0.0005993004888296,0.0004693774390034
1772650915312873700,4.022873779296875,0.0429722957640886,-0.0007378492878749,-0.0036160350726917,0.000828456133604,-0.0029129178728908,0.0011488237651064
1772650915322845700,4.032845703125,0.0423679001301527,-0.0011577552003785,0.0044587512408383,0.0015997071750462,-3.69702465832e-05,-0.000368112756405
1772650915332818000,4.04281787109375,0.0329419001370668,0.0045495530631393,0.0176062468419317,-0.0013374527916312,0.0019301013089716,-0.0005395475891418
1772650915342790700,4.052790771484375,0.0371346756517887,-0.019224340429902,0.0028242636404931,0.0017283782362937,0.0011591161601245,0.0001568690640851
1772650915352762600,4.0627626953125,0.0242693488597869,0.0043645153524354,0.0095327483031898,-0.0016092248260974,-0.0030536409467458,-0.0016573491739109
1772650915362734800,4.07273486328125,0.0782861857295036,-0.0119650169514119,-0.0158977715567685,-0.0022073709405958,-0.0005702432245016,0.0037286279257386
1772650915372707600,4.08270751953125,0.0143932670116424,-0.014093334216997,0.0039388464194256,0.0007474208250641,0.0003284527920186,-0.0019826530478894
1772650915382679800,4.0926796875,0.0094552260875701,0.0014865122307091,0.0255261805204674,-0.0016851106192916,0.0006331182084977,-0.0023965081200003
1772650915392651800,4.10265185546875,0.056142158460617,-0.0112555900404229,0.0036302736605983,0.0009705270640552,0.0010369718074798,0.0013831105316057
1772650915402624500,4.11262451171875,0.0160375270873308,0.0110824254306033,0.0003042162441182,-0.0009504109621047,-0.0019239305984228,-0.0003676515771076
1772650915412596700,4.1225966796875,0.0333954891234636,0.004941073131375,0.0017795220942236,0.0005329828709363,0.0010981820523738,-0.0026329248212277
1772650915422569700,4.13256982421875,0.0326502237141132,0.0089938191208988,-0.0070074128103442,0.0025769593194127,-0.0007567098364233,0.0006246537086553
1772650915432541700,4.142541748046875,0.0377384867638349,0.0250054445819929,0.001107303654775,0.000575556885451,-0.000741047784686,-0.0008064688881859
1772650915442513700,4.152513671875,0.0205301623314619,0.0094751728970557,-0.0062796282587572,-0.0022290181368589,-0.002423100406304,-0.0021641482599079
1772650915452486700,4.162486572265625,0.0404319636315107,0.0023867855386808,-0.0001157353341579,-0.002047429094091,0.0006821369752287,0.0020600105635821
1772650915462458600,4.172458740234375,0.0515033927440643,0.0133453653939068,0.0085075882402248,2.66404822468e-05,0.0007806736975908,-0.0001837027084548
1772650915472430600,4.1824306640625,0.03608779694736,0.0016050240438431,-0.0123292014881502,-0.0021850776392966,0.0011315937153995,0.0016896692104637
1772650915482403800,4.19240380859375,0.0419213254064321,-0.0025362039467319,-0.0050267969197593,0.0002866024151444,-0.0004671015776693,-0.0001511076698079
1772650915492375600,4.20237548828125,0.0444639956265687,-0.0180881029415875,0.0076246587926987,0.0002126195468008,0.0017899684607982,-0.0024009414482861
1772650915502348500,4.2123486328125,0.0432739090591669,-0.0016999723182991,0.0005982855535577,-0.0002787336707115,-0.0001160562969744,-0.0017884144326671
1772650915512320800,4.22232080078125,0.0334013343423604,0.0080636255986988,-0.0037750250266864,0.0010602087713778,0.0004942119121551,-0.0004538344801403
1772650915522292700,4.232292724609375,0.0333960736453533,-0.0034471813118085,-0.0061518919595517,0.0004167887382209,0.0005006035789847,0.0006066362839192
1772650915532265700,4.242265625,0.0459656323611736,0.0083925287595018,-0.0097025519121438,0.0012365006841719,-0.0031793867237865,0.0008504412835463
1772650915542237700,4.25223779296875,0.030854572468996,-0.0017955781798809,-0.0055377055839635,0.0013374341651797,-0.0025644630659371,-0.0009498555446043
1772650915552209700,4.262209716796875,0.0289116217076778,0.0027569705579429,-0.0033141386498231,0.0017264084890484,0.0005495282821357,0.0002248442033305
1772650915562182700,4.2721826171875,0.0444715944111347,0.0104901951584964,-0.0010284023328218,0.0015431828796863,-0.0002653989940881,0.0001843641512095
1772650915572155000,4.28215478515625,0.0354921691417694,0.006765439014323,-0.0109409528669901,0.0001655588857829,0.0003660442307591,0.0023237753193825
1772650915582126600,4.292126708984375,0.0428244117259979,0.0039131183231249,-0.0037852084939833,0.0006161658093333,-0.0017394507303833,-0.0035588811151683
1772650915592099600,4.302099609375,0.0450759900450706,0.0030990254612639,-3.88981051277e-05,-9.63150523602e-05,0.0006609568372368,-0.0018634289735928
1772650915602071800,4.31207177734375,0.0485194084972143,0.0038094752855598,-0.0041601792862173,0.0027540661394596,0.0007807989604771,-0.0009060224983841
1772650915612044800,4.322044921875,0.0429869088113307,-9.023556672e-06,-0.002274557335861,-0.0012738581281155,7.99568369984e-05,-0.0014469833113253
1772650915622016800,4.332016845703125,0.0349082317739725,-0.0015462795939296,-0.0022178587125614,-0.0006360309198498,-0.0016641474794596,-0.0009487058268859
1772650915631988700,4.34198876953125,0.0456786321133375,0.0005756079308688,0.0068772927578072,-0.0002529672347009,-0.0006903016474097,0.001210892223753
1772650915641961500,4.35196142578125,0.0271229847252368,0.0082379957849159,-0.0099768479420337,0.0005739443004131,0.0001528551802039,-0.0008115122327581
1772650915651933700,4.36193359375,0.0278694191783666,0.0152561674512922,0.001679687582096,-0.0008576367981731,0.0013470500707626,0.0001227083848789
1772650915661905700,4.37190576171875,0.0316097747504711,-0.0058091612027958,0.0041169429326895,0.0006350646726787,-5.1375478506e-05,0.001859089359641
1772650915671878700,4.381878662109375,0.0178396080732345,9.24275238066e-05,-0.0187172950900625,0.0013564103282988,0.0018082135356962,0.0003990696859546
1772650915681850600,4.3918505859375,0.0528501311779022,0.0065313745301216,-0.0172284630381036,0.001680517103523,-0.0008205927442759,0.0010579357622191
1772650915691823600,4.40182373046875,0.0272638545006513,-0.0020404563190415,-0.0164659998987801,0.0005598575808107,-0.0011862753890454,-0.0005330361309461
1772650915701795600,4.411795654296875,0.0227747263878583,-0.011003295779787,0.0100760248670354,-0.0007301778532564,-6.98780640959e-05,-0.0009474239777773
1772650915711767600,4.421767578125,0.0271118788093328,-0.0189157859373837,0.0018649810211267,0.0003050062805414,-5.23035414516e-05,-0.0001185606233775
1772650915721740800,4.43174072265625,0.0386287136018276,-0.0250232359670102,0.0188163076182827,-0.0002675731666386,6.86040148139e-05,0.002962983213365
1772650915731712500,4.44171240234375,0.0508960745006799,-0.0341474400019273,0.0251962270468939,-0.0006199120543897,0.0002358583733439,-0.0005375894834287
1772650915741684700,4.451684814453125,0.0318926833450794,-0.0174182043233886,-0.0041680429322645,0.0004328358918428,-3.2936222851e-06,0.0005481813568621
1772650915751657700,4.46165771484375,0.0384743998229503,-0.0191061208777129,0.0156686207097023,0.0003479509614408,-0.0007210609037429,0.001993344631046
1772650915761629700,4.471629638671875,0.0311392346292734,-0.0170595270788297,0.0230295231328345,0.0006512850522994,-0.0002097338438034,0.001771769602783
1772650915771601700,4.4816015625,0.037868835145235,-0.0024057459674775,-0.0071651058563962,0.0001054140739142,-0.00012136856094,-5.502894055e-06
1772650915781574700,4.49157470703125,0.0411596933841705,0.0205683023847639,0.0086427041282877,0.0003333804197609,-0.000343476422131,-0.0006521184113807
1772650915791546600,4.501546630859375,0.03487549854815,0.0171395700450986,-0.0044887901860754,2.93892808258e-05,-0.0012899078428745,-0.0005918068345636
1772650915801519600,4.51151953125,0.042956513673067,0.0318174626844003,0.0044095052716322,-0.0001564994454383,-0.0005410271696746,-0.0009364198776893
1772650915811491800,4.521491943359375,0.034873744982481,0.0322253128329291,0.0200485619601327,0.0014337319880723,-0.001952207647264,-0.0008279118919745
1772650915821463600,4.531463623046875,0.0239542915612459,0.0312278992934152,-0.0045423744036816,0.0014457162469625,0.0017123017460107,-0.0019493689760565
1772650915831436500,4.5414365234375,0.038171032962203,0.0128950643431395,0.0034462953958194,0.0003096098080277,0.0002251048572361,-0.0003845759783871
1772650915841408800,4.55140869140625,0.0342822088301181,0.0206684382909908,-0.0061996400914154,0.0001628696918487,-0.0007970165461301,-0.0013038991019129
1772650915851380500,4.56138037109375,0.033387305817008,0.0146377432920038,0.0112807701474521,-8.67727212607e-05,-0.0025556222535669,-0.0004228518810123
1772650915861353700,4.571353759765625,0.0345890828222036,0.0166687741955742,0.0024938535091932,-0.0012572321575134,-0.0003366763703525,0.0014610684011131
1772650915871325700,4.58132568359375,0.0426677598595619,0.0076017802406102,-0.0033558862991631,-0.0016058851033449,-0.0002511092461645,0.0007253077928908
1772650915881298700,4.591298583984375,0.0529985997378826,-0.004402509275265,0.0099924839025828,0.0016471659764647,-0.0014221011660993,-0.0021370577160269
1772650915891270700,4.601270751953125,0.0134960259109735,-0.0186426315518096,-0.0067012146716937,-0.0034060510806739,-0.0013408022932708,-0.0016044422518461
1772650915901242600,4.61124267578125,0.0413274511665105,-0.0266992428878322,-0.0007419866068754,0.0003593922592699,0.0020584566518664,0.000142857665196
1772650915911215900,4.6212158203125,0.0275625451862812,-0.0128584586597979,-0.0028898305568378,-0.0003538238815963,0.0008700340986251,3.69918416254e-05
1772650915921187600,4.6311875,0.0452186133861541,-0.013600874524936,-0.0029724034069105,0.0012784274294972,-0.0011805999092757,0.0005195566336624
1772650915931159800,4.641159912109375,0.0339981311917305,0.0026645795667544,0.0186290414178743,-0.0020695142447948,-0.0009205464739352,-0.0013776042032986
1772650915941132800,4.6511328125,0.023077508726716,0.0094426223343238,0.0008064027457498,-0.0007227538153529,-0.0008198791183531,-0.0004079473437741
1772650915951104800,4.661104736328125,0.052259179547429,0.011332564266771,0.0011603946820367,-0.002982310950756,0.0004519163630902,-0.0007428665994666
1772650915961077800,4.671077880859375,0.0485164858877658,0.0277160552475601,0.00793354207878,8.9514069259e-06,-0.0018676971085369,0.0008233384578488
1772650915971049700,4.6810498046875,0.0398328286945819,0.0140201593829318,-0.0074777246026787,0.0019003553315997,-0.0028309589251875,0.0028243265114724
1772650915981021700,4.691021728515625,0.0278577287405729,0.0275021202359348,-0.0009690550947096,0.000223895534873,0.0014143860898911,0.001335619483143
1772650915990994700,4.70099462890625,0.03668459379673,0.0197669594066217,0.0030624654436949,0.0032535502687096,-0.0004107886925339,0.0008478066301904
1772650916000967000,4.710966796875,0.0277069220930337,0.0045131665755063,0.011819315737253,5.72241842746e-05,0.0005785753019154,0.0007348885410465
1772650916010938600,4.720938720703125,0.0308446355968713,-0.0178006643023341,0.0141692033316474,-0.0009141718037426,0.0006324397400021,0.0015542323235422
1772650916020911600,4.73091162109375,0.0374257675528526,-0.0247436883732676,-0.0018646796270273,-0.0023157931864261,0.0008004852570593,-0.0003917395370081
1772650916030883800,4.7408837890625,0.0362234060257673,-0.0102407869746908,0.020239956346387,-0.0005234507843852,-0.0004253652878105,0.0005200478481128
1772650916040855600,4.75085546875,0.0477443324714899,-0.0075052245309576,0.0076574468174483,-0.0014968360774219,0.0019333963282406,0.0019275285303592
1772650916050828800,4.760828857421875,0.0372661930769681,-0.0081453855980187,-0.0010059987047687,-0.00040646456182,0.0009468458592891,0.0020254114642739
1772650916060800800,4.77080078125,0.0282885213732719,0.0080245722299441,-0.0129392140121199,-0.0010432265698909,0.0008357921615242,-0.0008553299121558
1772650916070773500,4.7807734375,0.0317342779129743,0.0135859326841309,-0.0100734127848409,0.0003061327151954,-0.0010296260006725,-0.0010722464649006
1772650916080745700,4.790745849609375,0.0368213719189167,0.0231307732839137,-0.0058347797012422,-0.000670448411256,0.000464407261461,-0.0010698495898395
1772650916090717700,4.8007177734375,0.0389198055028915,0.0272215862615033,-0.0073208626736886,-0.0008981926366686,0.0023659956641495,-0.0011105600278824
1772650916100690700,4.810690673828125,0.0371253233015537,0.0226707180241122,-0.0075352908756583,0.0002925065346062,-0.0014551079366356,-0.0013627614825963
1772650916110662700,4.82066259765625,0.037428690162301,0.0264194395657628,0.0078668517844285,-0.000866278540343,0.0002837534993886,-0.0015079865697771
1772650916120635000,4.830634765625,0.0283031344205141,0.0041756417168304,0.0031801552729215,-0.0023824160452932,-0.0002483460120856,0.0008228119113482
1772650916130607600,4.840607666015625,0.0284475113272666,-0.0035330329643562,0.0072048624780494,-0.0001988718286156,-0.0017094733193516,0.0027393011841923
1772650916140579600,4.85057958984375,0.0360766910314559,-0.009518938973546,0.0078184917312115,-0.0002060625702142,-0.0007627196609973,0.0010596454376354
1772650916150552800,4.860552734375,0.0449041406095027,-0.0227826174333691,0.0029296967763453,0.0007162657566368,0.0002042115665972,-0.0007557707722298
1772650916160524500,4.870524658203125,0.0194692551016807,-0.0147838372318074,0.0195908539210446,0.0018025692552328,-0.0003558513708412,-0.0027512772940099
1772650916170497500,4.88049755859375,0.0396709161311388,-0.0165882197726517,-0.0046476796753704,0.0007335236296057,0.0015650452114641,0.0012427864130586
1772650916180470500,4.890470458984375,0.0423591323018074,-0.0070042527388781,-0.0035859687279909,5.41512854397e-05,0.0001474446617066,0.0014792751753702
1772650916190442200,4.900442138671875,0.0371212316483259,-0.0023461247347295,0.0088359616780653,-0.0007793121039867,-0.0027027667965739,-0.0010699273552745
1772650916200414500,4.91041455078125,0.0383224241316318,0.0155418525248765,0.0251202392012346,0.0016779867000877,-0.0016255183145403,-0.000493619358167
1772650916210387500,4.920387451171875,0.0414653983324766,0.0146212670812383,0.0240747030705213,-0.0010951617732644,0.0001516980119049,-0.000764146563597
1772650916220359400,4.930359375,0.0371253233015537,0.0319939517624676,-0.0048401700401678,-0.0001595932990312,0.0002270657569169,-0.0017929256428033
1772650916230331400,4.940331298828125,0.0236585234850645,0.0327092238923534,-0.013715742209414,5.2373856306e-05,0.0010011559352278,-0.001858718576841
1772650916240304400,4.950304443359375,0.0511947651863098,0.0169342201987281,-0.000913242387399,-0.0008546984754502,-0.0016364390030503,0.0007274771342054
1772650916250276400,4.9602763671875,0.0332411753445863,0.0051294353103265,0.0034979159852024,-0.0009965910576283,0.0014330963604152,-0.0003459793224465
1772650916260249300,4.970249267578125,0.0260579858422279,-0.006703041302599,0.0102852654372341,-0.0010655671358108,0.0010970053263008,-0.0004232109931763
1772650916270221600,4.9802216796875,0.0302501768350601,-0.0204037960054352,0.0178911738636903,-0.0011185547336935,6.32810406386e-05,0.0004018507315777
1772650916280193300,4.990193359375,0.0428162284195423,-0.0219752465732395,0.0112587683781981,0.0001560342498123,-0.0011069120373576,-0.0009185445378534
1772650916290166300,5.000166259765625,0.0485036264061927,-0.0269244299458339,0.032116947954474,-0.0007248627953231,-0.0009253337047994,0.0005439879605546
1772650916300138500,5.010138427734375,0.0531435611665248,-0.0349740270191803,0.0062118693853262,4.47910279035e-05,-0.0029514664784073,0.0010947297560051
1772650916310110200,5.020110107421875,0.0508960745006799,-0.0182883016888052,0.0127689628785941,-0.000226835720241,0.0001062750816345,0.0016000596806406
1772650916320083500,5.03008349609375,0.029798925936222,-0.0248384174520149,0.0105414412885438,-0.0020998369436711,0.0013134856708347,-0.0023155859671533
1772650916330055400,5.040055419921875,0.0449123239159584,-0.0044820042522624,0.0270247667814604,-0.0003715436905622,-0.000860029598698,0.0012865760363638
1772650916340028400,5.0500283203125,0.0582224718660116,0.0213710701350122,-0.0118331981321331,-0.0013675657100975,-8.82456079125e-05,0.003538811346516
1772650916350000400,5.06000048828125,0.0351712666243314,0.0400490652611479,-0.0132184328122995,0.0014912909828126,0.0010187993757426,0.0027132704854011
1772650916359972400,5.069972412109375,0.0236450794816017,0.0279597643429413,-0.0135309145612642,0.0001722271554172,-0.0031362641602754,0.00067621859489
1772650916369945600,5.079945556640625,0.0233458042740821,0.0681062986291945,-0.034982575651817,0.0011412757448852,0.0033277976326644,-0.0008521475247107
1772650916379917300,5.089917236328125,0.0299286897957324,0.0795137182304635,-0.0237871548334136,-0.0004161410033702,0.0003253496252,-0.0007368326187133
1772650916389889500,5.0998896484375,0.0302197816967964,0.0387039707951247,-0.025859449329134,-0.0004766401834785,0.0013391827233135,0.0025556744076311
1772650916399862500,5.109862548828125,0.0327595293074846,0.0460253266591578,0.0058986021850723,-0.0001325597986578,-0.0003274232149124,0.0021391557529568
1772650916409834500,5.11983447265625,0.0465256043314933,0.0184000915002077,0.0017986743192654,-0.0013035060837864,-0.0025980020873248,-0.0004718481213785
1772650916419806500,5.129806396484375,0.0472661935657262,-0.0226362677652388,0.0139776719480752,0.001865389291197,0.0011282926425337,0.0039114486426115
1772650916429779500,5.139779541015625,0.035589784297347,-0.024421178420633,0.0265579164546914,0.0008308268152177,-0.0008450166787952,0.0025117420591413
1772650916439751400,5.14975146484375,0.0263069921672344,-0.030515622838214,-0.0077859229021705,0.0020715938881039,0.000862069427967,0.0028270604088902
1772650916449724400,5.159724365234375,0.0297433963567018,-0.02958473519627,-0.0107363154066726,-0.0012687840498983,-0.0019260866101831,0.0031075242441147
1772650916459696600,5.169696533203125,0.0387175609290599,-0.0108458036631345,0.0097503822423983,0.0010529598221182,9.25892964005e-05,0.002305912785232
1772650916469668400,5.17966845703125,0.0551695140361785,0.0079730977710336,-0.0096752072474919,2.75634229183e-05,-0.0007720338180661,0.0015806837473064
1772650916479641300,5.189641357421875,0.0340577524244785,0.0300855973904952,0.0027716749367304,-0.0005908226594328,-0.0002857409417629,0.0036164042539894
1772650916489613600,5.199613525390625,0.0653226592600345,0.0498901123285293,-0.0173160865226294,2.88281589746e-05,-0.0002376083284616,0.0038831843994557
1772650916499585300,5.209585205078125,0.0355348392397165,0.0567464444966986,-0.0509124228472821,-0.0001053949818015,0.0006960961036384,0.0038999621756374
1772650916509558500,5.21955859375,0.0341752413243055,0.0911294468201696,-0.0381331760366912,-0.0017401627264916,-0.0007318591233342,0.0034978683106601
1772650916519530500,5.229530517578125,0.0343120194464922,0.0890039060335606,-0.0252361663316376,0.0013389838859438,-0.0005797925405204,0.0047231884673237
1772650916529503200,5.239503173828125,0.0250233820974826,0.075916460923478,-0.0345903888633009,0.0002787774428725,-9.87169332802e-05,0.0035401587374508
1772650916539475500,5.249475341796875,0.0336941798090934,0.0536011687409132,-0.0074080477667972,0.0002076709643006,-0.000552253331989,0.0022506564855575
1772650916549447400,5.259447509765625,0.0145312141776084,0.0129252768183127,0.0170790354968979,0.0005249748937785,-0.0023356464225798,0.0053860060870647
1772650916559420400,5.26942041015625,0.046986792102456,-0.01958477124013,0.0196349579242523,-0.0009184582158923,-0.0016741172876209,0.003726590424776
1772650916569392400,5.279392333984375,0.0498170470923185,-0.0820026489693671,0.0364681380344554,-0.0002403683029115,-0.0003466103225946,0.0043186261318624
1772650916579364600,5.289364501953125,0.0370814841598272,-0.1053027144055813,0.0319657394481357,0.0012438115663826,-0.0008603341411799,0.0049346149899065
1772650916589337300,5.29933740234375,0.0087894556552171,-0.1093084429156035,0.0294339011492673,-0.0014316260349005,-0.0030600107274949,-0.0002026578004006
1772650916599309600,5.3093095703125,0.0105792616814374,-0.0975870619943365,0.0348654246787074,0.0010515050962567,0.0018849465996026,0.0034088548272848
1772650916609280300,5.3192802734375,0.0415448933094739,-0.0437468238005414,0.0417300497511867,6.18994235992e-05,0.000604806933552,0.002015019999817
1772650916619252500,5.32925244140625,0.0421375985056161,-0.0143675845811143,0.0019610161409713,0.0001820079050958,0.0014085490256547,0.0013361803721636
1772650916629225500,5.3392255859375,0.0500642998516559,0.015562456921488,-0.014730179948965,-0.0004066484980285,-0.0012818868272006,-0.000680393713992
1772650916639197400,5.349197509765625,0.0232779997348785,0.0492740627894178,-0.0296654996817465,0.001177133526653,0.0007165493443608,0.001749740797095
1772650916649169400,5.35916943359375,0.0063677814662456,0.0722411334116011,-0.0072772975265979,-0.0008346657268702,0.0021642134524881,0.0020991852506995
1772650916659142400,5.369142333984375,0.0292623348414897,0.0518619603907689,-0.0266629294654354,-0.0009148269891738,0.0002003987319767,0.001303965342231
1772650916669114400,5.3791142578125,0.0300105228602886,-0.0062089741753414,0.0003885974587872,-0.0017073336057364,-0.0008736895397305,0.001213927171193
1772650916679086300,5.38908642578125,0.0593394931972026,-0.0472479272566735,0.0369848553849384,-0.0005137049593031,0.0018027871847152,-0.0014985024463385
1772650916689059600,5.3990595703125,0.0341997912436723,-0.0627747283428907,0.0245753643353469,-0.0001302817836403,-0.0027615712024271,8.0085010267e-06
1772650916699031300,5.40903125,0.017737901264429,-0.0498747320963069,0.0179712807620409,-0.0010711764916777,0.0012017451226711,-0.000180277012987
1772650916709004300,5.41900439453125,0.0135486328810453,-0.0070716188866645,0.011711526247533,-0.0013697890099138,-0.0022176906932145,0.0005904469871893
1772650916718976500,5.4289765625,0.0400344887465238,0.0282815801758319,0.0058461778780911,-0.0003442056477069,0.0003626458346843,-0.0003166257229167
1772650916728948500,5.438948486328125,0.042730888223648,0.0594432823652401,-0.0254831176968757,-0.000154904089868,-0.0003051967360079,-0.0015467552002519
1772650916738921500,5.44892138671875,0.0340519072055816,0.0736428169030696,-0.0446990921572316,-0.0007780841551721,-0.0007038717158138,0.0020770081318914
1772650916748893400,5.4588935546875,0.0333048882305622,0.0527328249411657,-0.017859710146347,7.81142152845e-05,-0.001833448652178,-0.0011717092711478
1772650916758865400,5.468865478515625,0.0174473938852548,0.0433473396215587,-0.0169438100109808,-0.0001107039861381,-0.0020150763448327,-0.0013916862662881
1772650916768838400,5.47883837890625,0.0512666613787412,0.0259865280412137,-0.0116384975439403,-0.0003750980831682,0.0004166653379797,0.0045913527719676
1772650916778810600,5.488810546875,0.0211854113698005,0.0109035251997411,0.0083897705468349,-0.0001205001026391,-0.0007758981082588,-0.0023632259108126
1772650916788783600,5.49878369140625,0.0171381818056106,-0.0276102567855268,0.0201020548461936,0.0007562972605228,-0.0001855813898146,0.0023198933340609
1772650916798755300,5.50875537109375,0.0910603271067142,-0.0391121497372165,0.0194536465405952,-0.0010147048160433,0.0063266460783779,0.0112529350444674
1772650916808727600,5.5187275390625,0.016992051333189,-0.0418454836912453,0.043655199994333,0.0010671433992683,0.0018775849603116,0.0025849225930869
1772650916818700500,5.528700439453125,0.0042746085792779,-0.0714058150986209,0.0094586510205175,0.0003355732187628,0.0047916159965097,-0.0009176669409498
1772650916828672500,5.538672607421875,0.0416881011724472,-0.0376527812417596,0.0145194506745785,-5.4620206356e-05,0.0027155363932251,0.000582234817557
1772650916838644500,5.54864453125,0.0333119024932384,-0.0271662028124555,0.0074184321634937,-0.0013188226148486,0.0032095527276396,-0.0005043349228799
1772650916848617500,5.558617431640625,0.0208931504249572,0.015866737097688,-0.0116402602427639,-0.0005285902880132,0.0005793520249426,-0.0013743942836299
1772650916858589400,5.56858935546875,0.0428945543527603,0.0614889628486707,-0.0011968268354423,0.0017231125384569,-0.0029248353093862,-0.0011173991952091
1772650916868561400,5.5785615234375,0.0487280828118324,0.0428956503313034,-0.0267215460511855,0.0002876669168472,0.0002226694487035,0.0016125579131767
1772650916878534700,5.58853466796875,0.0294283390581607,0.07407203863319,-0.0156329831407405,0.0007534539327025,-0.0013944020029157,-0.0016713859513401
1772650916888506400,5.59850634765625,0.0244862064808607,0.088590575992316,-0.0103164460267871,-0.0004717428237199,0.0012032617814838,0.0019915886223316
1772650916898479400,5.608479248046875,0.033915129083395,0.044605815250054,-0.0149684456842485,-0.0009788088500499,0.0003385334275662,-0.0017863714601844
1772650916908451600,5.61845166015625,0.0443938529998064,0.0327154709700494,-0.0110948647870682,0.0007007215172052,-0.0039194910787045,0.0008149711648002
1772650916918423300,5.62842333984375,0.0191039289206266,-0.0231054927121847,0.0066123216786887,-0.0006180759519338,0.0016547716222703,-0.001358700916171
1772650916928396500,5.638396484375,0.0557674799293279,-0.0528283212048932,0.0346928993897046,0.0005444628186523,0.0015911702066659,0.0005057168891653
1772650916938368500,5.648368408203125,0.0330225641578435,-0.0723255602920427,0.0371614540608599,4.67179343104e-05,0.0003621215000748,-0.0026740974280983
1772650916948340500,5.658340576171875,0.0385609090626239,-0.1063277100717648,0.0312090849950909,-0.0023490868043154,0.0004380894824862,0.0005769312847405
1772650916958313500,5.6683134765625,0.0387152228415012,-0.1049880589658394,0.0287712725220713,-0.0005535837262868,0.0015393062494695,-0.0016952777514234
1772650916968285400,5.678285400390625,0.0433510659486055,-0.0742676342705264,0.0357047250470612,0.0004641273990273,0.0012368494644761,0.0019662049598991
1772650916978258400,5.688258544921875,0.0490355413258075,-0.0311496098928153,0.0108052524570375,-0.0015630710404366,0.0007766550406813,0.0001384775387123
1772650916988230400,5.69823046875,0.0200128604590892,0.0258388997314497,-0.0135091959198005,-0.0009433310478925,-0.0002089645713567,-0.0031886310316622
1772650916998202400,5.708202392578125,0.0355769248157739,0.0754107033584266,-0.0244065288407728,-0.0001403880305588,-0.000216154847294,-0.0008152219816111
1772650917008175400,5.71817529296875,0.0270516730546951,0.1121035169942304,-0.0305281900588423,-0.0020649055950343,0.0011961488053202,0.0006069533992558
1772650917018147600,5.728147705078125,0.0384223773747682,0.1308570250419899,-0.042512706295168,-0.0011362615041434,-0.000306140165776,-6.38968776911e-05
1772650917028119300,5.738119384765625,0.0337836116582155,0.1150757012054324,-0.044026197864348,-0.0005842372775077,0.0023909215815365,-0.003832817543298
1772650917038092300,5.74809228515625,0.0352817412614822,0.0785025684265419,-0.0277278096174355,0.0008040685206651,-0.0011649311054497,3.9984006434e-06
1772650917048064500,5.758064453125,0.0390191742241382,0.0277134979642927,-0.0036580384503584,0.0006805472075939,0.0015487512573599,-0.0002694928843993
1772650917058037500,5.76803759765625,0.0185217451184988,-0.0416476595642045,0.0264127540966495,0.0010166382417082,-0.000380708836019,-0.0006404712330549
1772650917068009500,5.778009521484375,0.0134364046782255,-0.0903425707587972,0.0262922695221379,-0.0006224140524864,0.000529043842107,-0.0018691910663619
1772650917077981400,5.7879814453125,0.008200257590413,-0.0923133228424936,0.0589599192950874,-0.0005273390561342,-0.0020789897534996,-0.0008294930448755
1772650917087954400,5.797954345703125,0.0870668735563755,-0.1225981691321358,0.0257806850044988,-0.0007699793204665,0.0027795424684882,0.0012320270761847
1772650917097926400,5.807926513671875,0.0064209729582071,-0.0905500029643997,0.0447805233629886,0.0001842309720814,-0.0011792462319135,-0.0024442004505544
1772650917107898400,5.8178984375,0.0201917241573333,-0.049359768311493,0.0208946847949177,-0.0014782121870666,0.0009799352847039,-0.0013579267542809
1772650917117871600,5.82787158203125,0.0338128377526998,-0.0050336467856541,0.0032546452812384,-0.0007314616814255,-0.0003082361072301,-0.0012676457408815
1772650917127843300,5.83784326171875,0.0134627081632614,0.0596759220773354,-0.0087267930820118,0.0009775636717677,0.0008918792009353,0.0020637512207031
1772650917137815600,5.847815673828125,0.0532698178946971,0.0986558602696284,-0.0186882790581323,0.0007165735587477,-0.0004535499028861,0.0023918526712805
1772650917147788500,5.85778857421875,0.0197509946525096,0.0935782647443935,-0.0460263495724648,0.0012354766950011,-0.0012759659439325,-0.0001389928802382
1772650917157760300,5.86776025390625,0.0420429059594869,0.0875987519433721,-0.0465824216858018,0.0008394648320972,0.0001363083720207,-0.0005480544059537
1772650917167733500,5.8777333984375,0.0333645094633102,0.0887327974746003,-0.0261929099340457,0.0015674741007387,-0.0006646127440035,-0.0008162657031789
1772650917177705000,5.887705078125,0.0275227976977825,0.067347479618527,-0.019763927199319,0.0011349767446517,-0.0018720901571214,0.0010247775353491
1772650917187677200,5.89767724609375,0.0367991600871086,0.0130149278631433,-0.016313147424627,0.0008261264301836,0.000988129992038,0.0015958610456436
1772650917197650000,5.90764990234375,0.0125520230591297,-0.031133572073467,0.0050210247660987,0.0028831516392529,-0.0005458509549498,0.0006088936934247
1772650917207622100,5.9176220703125,0.0414256508439779,-0.0574277778243646,0.0337115876016207,-0.0001587839797139,0.0019539627246558,0.0023787841200828
1772650917217594000,5.927593994140625,0.0264583833366632,-0.0820581420162692,0.0331613789734896,3.48277390003e-05,0.0007355664856731,-0.0007608163286931
1772650917227566800,5.93756689453125,0.0352893400460481,-0.0846663152206689,0.0337678569666575,-0.0002950271591544,0.0007665031589567,-2.73477635346e-05
1772650917237539000,5.9475390625,0.0349947410136461,-0.0578665345678105,0.0433729672531597,0.0021809139288961,-0.0026119831018149,-0.0017418909119442
1772650917247512000,5.957511962890625,0.0369435369938611,-0.0436035794049501,0.0318721520137041,-0.0008382857777178,-0.0005595786496996,-0.0005980292335152
1772650917257484000,5.967484130859375,0.049517771884799,-0.0112453609073534,0.0068004463956225,2.37794592976e-05,-0.0008725000079721,0.0014901553513482
1772650917267456000,5.9774560546875,0.0246779296606779,0.0131673784784972,-0.0049877070183865,0.0026845638640224,-0.0005834209732711,-0.0010977133642882
1772650917277429000,5.987428955078125,0.050868017449975,0.0594711567528545,-0.0194456641635391,0.0008302046917378,-0.0025339198764413,-0.000897710036952
1772650917287401000,5.99740087890625,0.013911036452651,0.0755528152428567,-0.0280236416256986,-0.0007226089946925,-0.0007705483585596,-0.0017554629594087
1772650917297373200,6.007373291015625,0.0329132585644722,0.0858209651485085,-0.0363441371954511,0.0007450589910149,-0.0001082201488316,-0.0003644940152298
1772650917307346200,6.01734619140625,0.025876784056425,0.053496758518368,-0.0152933850559871,-0.0005013262853026,-7.84466974437e-05,0.0002120292047038
1772650917317318000,6.02731787109375,0.0204863231897354,0.034570158926025,-0.0157703092521987,0.0014212094247341,-0.0013663514982908,0.0013918095501139
1772650917327291100,6.037291015625,0.0661217006832361,0.0180650143269449,-0.0065292830377351,-0.000643590465188,0.0010451315902173,0.0014406063128262
1772650917337263000,6.04726318359375,0.0282639714539051,-0.0080343995042145,0.0098118118397425,0.0017671026289463,0.0020195823162794,-0.0021498673595488
1772650917347235000,6.057235107421875,0.027214170140028,-0.0208359768776223,0.024049468164565,-0.0033145793713629,-0.001748105045408,0.0017879107035696
1772650917357208000,6.0672080078125,0.046964580270648,-0.0307188172601163,0.0298580357123166,-0.0002476829104125,0.0028024381026625,-0.0015860481653362
1772650917367180000,6.077179931640625,0.0560971502751111,-0.0390546108637005,0.0166541154825594,-5.33522106707e-05,0.0004919534549117,-0.0024084700271487
1772650917377152000,6.087152099609375,0.0236292973905801,-0.0361222106736153,0.0285560314693488,-0.0002530892379581,-0.0008699870668351,-0.0015189743135124
1772650917387125000,6.097125,0.0197381351709365,-0.0337577465645968,0.0283321321861352,-0.0012239096686244,0.0019406033679842,-0.0028822768945246
1772650917397097200,6.10709716796875,0.0403887090116739,-0.0326980814438313,0.0075872311254497,0.0017356611788272,-0.0011017916258424,-0.0002007398870773
1772650917407070200,6.1170703125,0.033357495200634,-0.00958827788271,0.000800091735972,0.0001896461471915,0.0006634308956563,-0.0017107678577303
1772650917417042000,6.1270419921875,0.0372480728983879,0.0248737079611048,0.0041844186783302,0.0011470527388155,-0.0027430187910795,0.0008112456416711
1772650917427014100,6.13701416015625,0.0556499910295009,0.0278236803404986,-0.008828582089208,-0.0029219386633485,-5.69834373891e-05,-0.0003231416339986
1772650917436987100,6.146987060546875,0.0315559987366199,0.0250072712128981,-0.0122377603450324,8.31722281873e-05,0.0017321282066404,0.0029938253574073
1772650917446959000,6.156958984375,0.0343996977299451,0.0371203913981094,-0.0140012811525259,-0.0007514860481023,0.0011689611710608,-0.001969538629055
1772650917456931000,6.16693115234375,0.0484668015271425,0.0282331379242241,-0.0083719882949721,0.0002426719292998,-0.0014105765148997,0.0003705809940584
1772650917466904000,6.176904052734375,0.0357476052075624,0.0198939833197742,-0.0181460893396753,-5.9597659856e-05,0.0004423451609909,0.0004707633634097
1772650917476876000,6.1868759765625,0.0333487273722887,0.0038020226314663,-0.0097888328229542,-0.0007200613617897,-0.0003257105126976,0.000182076706551
1772650917486848000,6.196847900390625,0.0308078107178211,-0.0048141588160768,0.0086162819122429,2.86260619759e-05,-0.0006516382563859,0.000122636090964
1772650917496821200,6.2068212890625,0.0472644400000572,-0.0129130018586292,0.0136220817097462,0.0003327587619423,0.0024829022586345,0.0014209270011633
1772650917506793000,6.21679296875,0.0270621944487094,-0.0227758954316377,0.0050328339349012,-8.57445411384e-05,-0.0006866513285785,0.0012949503725394
1772650917516766000,6.226765869140625,0.0463596001148223,-0.0196167007483541,-0.0119176067462656,-0.0012769766617566,0.0011205696500837,0.001684304443188
1772650917526738200,6.23673828125,0.0309469269275665,-0.01032853832338,0.0110044008914846,-0.0022102696821093,-0.001281194621697,-0.0010648861061781
1772650917536710100,6.246710205078125,0.038581367328763,-0.0130634797126054,0.0179810075716115,0.0007002991624176,-2.92425975203e-05,4.99131274409e-05
1772650917546683100,6.25668310546875,0.0273608851343393,0.0152972666466608,-0.0089354217308573,0.0011778734624385,0.0010366020724177,-0.0012596230953931
1772650917556655000,6.266655029296875,0.0290115749508142,0.0163621924644336,-0.0101075707827694,-0.0009457315318286,-0.000153032131493,-0.001894254470244
1772650917566627000,6.276626953125,0.0412812739372253,0.0361168769113719,-0.0115015550249721,-0.0015295657794922,0.0010698442347347,0.0016613919287919
1772650917576600000,6.28660009765625,0.0511567712634801,0.0308824468566104,-0.0127305214311927,-0.0013074581511318,-0.0008287234231829,0.0008374098688364
1772650917586572300,6.296572265625,0.0219727623552083,0.0483892427789047,-0.0257307997144758,0.0009409040212631,-0.0005108825862407,0.0030582291074097
1772650917596545000,6.306544921875,0.0360357744991779,0.0397222444595769,-0.0034227866560686,-0.000960593111813,-0.0008110210765153,0.0023042885586619
1772650917606517000,6.31651708984375,0.0420230322152376,0.0040319954624399,0.0027995675906538,-0.0001875758171081,0.0012120720930397,0.0006776009104214
1772650917616489200,6.3264892578125,0.0328951383858919,-0.0081248542666435,-0.013712098080758,0.0007341443561017,0.0002378881908953,-0.000985543243587
1772650917626462000,6.3364619140625,0.0502519313782453,0.0001647986402735,0.0141517955391202,-0.0015196874737739,-0.0007680964190512,0.0002981520374305
1772650917636434200,6.34643408203125,0.0328928002983331,-0.0315090543223544,0.0325989958503749,0.0006494573317468,-0.001506590982899,-0.0018733895849436
1772650917646406100,6.35640625,0.0231727857947349,-0.0395075057303532,0.0264218324522487,0.0008197003044188,-0.0004560831002891,-0.0017842871602624
1772650917656379000,6.36637890625,0.0474205073446035,-0.0365830696510151,0.0230859386283438,-0.000925735104829,0.0012225075624883,-0.0033140068408101
1772650917666351000,6.37635107421875,0.0112163905411958,-0.0194845622686669,0.0004645213723648,-0.001117066014558,-0.000165345147252,-0.0023554353974759
1772650917676324000,6.386323974609375,0.0520733015865087,0.0105852164981886,-0.0009784439775627,-0.0005080010741949,0.0010594427585601,0.0011008151341229
1772650917686296000,6.396296142578125,0.0390583371907472,0.0263655174214392,-0.0158852774013765,0.0014407765120267,-0.0011643131729215,0.0019340550061315
1772650917696268000,6.40626806640625,0.0314279884427785,0.034899390880391,-0.0211764882778283,0.0007052114233374,-0.0016450136899948,-0.0018471009097993
1772650917706241000,6.416240966796875,0.0273901112288236,0.0386265947099775,-0.0158151895735412,0.0007249214686453,-0.000584119465202,0.0007924118544906
1772650917716213000,6.426212890625,0.0228939688533544,0.0257549843076616,-0.0039823841670528,0.001331856008619,0.002330177463591,0.0019785836338996
1772650917726185000,6.43618505859375,0.0299205064892768,0.0278817672032862,-0.0071869706283323,-0.0009682192467153,-0.0002788109704852,-0.0014853625325486
1772650917736158200,6.446158203125,0.0209428347855806,0.0135122829260304,-0.0056612132326234,-0.0026364235673099,-0.0004782816395163,-0.0018792441114783
1772650917746130000,6.4561298828125,0.0288707051753997,-0.0180214309135451,0.0139957555940374,-0.0007767155766487,0.0029021925292909,0.0004975562915205
1772650917756103000,6.46610302734375,0.0257259774088859,-0.001526332784444,0.0055214759683702,0.0017697988077998,-0.0003679026849567,-0.0006044597830623
1772650917766075100,6.4760751953125,0.0251297650814056,-0.0162393698023632,0.0235260836112778,0.0017898706719279,0.0004047900438308,3.89894121326e-05
1772650917776047000,6.486047119140625,0.033661446583271,-0.0249900643497705,0.0220549242133274,-0.0007545133121311,2.82190740108e-05,0.0005362015799619
1772650917786020000,6.49602001953125,0.039940965244174,-0.0092846187610179,0.0052194516813382,-0.0018943722825497,-0.0007578525692224,0.0018752042669802
1772650917795992000,6.505991943359375,0.0336579394519329,0.0140009797584265,0.0082096464732661,-0.0007811710238456,-0.0007501293439418,0.0004600006504915
1772650917805964000,6.515964111328125,0.0441349098026752,0.0123185065641999,-0.0070967441947665,0.000603215303272,0.0021099341101944,-0.0026233587414026
1772650917815937000,6.52593701171875,0.0415963312357664,0.0428477195363491,-0.0163477712134364,0.0004487517289817,-0.0015287429559975,-0.0031043253839015
1772650917825909200,6.5359091796875,0.0209475109606981,0.033723150175251,-0.0313747878176625,-0.0004157591611146,0.0011789705604314,0.0006043785833753
1772650917835882000,6.545882080078125,0.0430921227514743,0.0190930422004312,-0.0125800435772165,0.0001304550096392,0.0001635076478123,0.0013932068832218
1772650917845854000,6.55585400390625,0.0436912576884031,0.031338373930566,-0.0066111252354457,-0.0001030061393976,-0.0001655486412346,1.1054216884e-05
1772650917855826200,6.565826171875,0.0332160409033298,0.0139936001695692,-0.0206507473706733,-0.001208750763908,-0.0009626327082514,-0.0009314384660683
1772650917865799000,6.575798828125,0.0239408475577831,0.0135487059462815,-0.00673339077509,-0.0013319358695298,-0.0018846513703465,0.0002315214369446
1772650917875771100,6.585771240234375,0.0360609089404344,-0.0079138418644666,0.009009993937565,0.0009195003658533,-0.0027046385221183,0.0021423394791781
1772650917885743000,6.5957431640625,0.0315694427400827,-0.0202504320746287,0.0075281578819733,-0.0026481894310563,0.0015186346136033,-0.0020374492742121
1772650917895715800,6.6057158203125,0.0383013813436031,-0.0175073439115658,-0.000133974243747,0.000353192910552,0.0013860091567039,0.002553840400651
1772650917905688000,6.61568798828125,0.0344049584269523,-0.018682634768635,0.0094265388492029,-0.0010999902151525,-0.000798265915364,0.0030563795007765
1772650917915660000,6.625659912109375,0.0288648599565029,-0.0070129475019872,0.0225357482665218,0.0007069646380841,-0.0007292900700122,0.0018574243877083
1772650917925633000,6.635633056640625,0.0233282686173915,0.0157980923082679,0.0102807079931255,-0.0020988588221371,-0.0025711029302328,-0.0003729315358214
1772650917935605000,6.64560498046875,0.0403887090116739,0.0214923218945041,0.0017362218086142,0.0022215875796973,-0.0012134234420955,0.0012023281306028
1772650917945578000,6.655577880859375,0.0260234990507364,0.0309430544700473,-0.0213693165693432,0.0002172393724322,-0.0007387255318462,-0.0018716210033744
1772650917955550000,6.665550048828125,0.029172318470478,0.0276691838985309,-0.007468271787744,0.0001724981702864,-0.0032149327453225,0.0001790130045264
1772650917965522200,6.675522216796875,0.0447375518709421,0.0371399728814139,-0.0069186568146571,0.0002831667661666,0.0009667999111115,0.0007614827482029
1772650917975495200,6.6854951171875,0.0399485640287399,0.0024382965302094,0.0016342866709455,-0.0005956767126917,-0.0007890223059803,-0.0008926066220737
1772650917985467000,6.695466796875,0.0474333668261766,0.0179301359008997,-0.0031362430659588,0.0004385258071124,0.000510977115482,-0.0001261216239072
1772650917995439000,6.705439208984375,0.0406955830037593,0.00918970701918,0.0006911606019362,0.0031205951236188,-0.0026195687241852,0.0023136001545935
1772650918005412000,6.715412109375,0.0356102425634861,-0.0128512617340311,-0.0034526520713698,0.0003031147643923,-0.0004839971661567,6.876088446e-05
1772650918015384000,6.725384033203125,0.0172100779980421,-0.0273682281905785,0.0119774197752587,0.0007414710707962,0.0010683597065508,-0.0023832116276025
1772650918025357000,6.735357177734375,0.0209539407014846,-0.0129484384981915,0.0103462292436975,-0.001957471948117,0.0004256786778569,-8.26989416964e-05
1772650918035329000,6.7453291015625,0.0199082310408353,-0.0121560460114851,0.010968662857823,-0.0008285581134259,0.001009177416563,-0.0001551369205117
1772650918045301000,6.755301025390625,0.0407101960510015,0.0145483479754999,-0.0076290518400259,-0.001123271882534,0.0003734389320015,-0.0009325818391516
1772650918055274000,6.76527392578125,0.0471463665783405,0.012381634928286,-0.0036369773960206,0.0001563769765198,-0.0001589269377291,-0.0003240495279897
1772650918065246200,6.77524609375,0.0306873992085456,0.0157984211018308,0.0002920508822891,-0.0011597387492656,-0.0001703179441392,-0.001639992929995
1772650918075218000,6.785218017578125,0.0333826296418905,0.032933314971812,-0.0037777375735808,-0.0010297764092683,-1.61211937665e-05,-0.0018562416080385
1772650918085191000,6.79519091796875,0.0396674089998006,0.0269048119299113,-0.0055576067276764,-0.00042783934623,0.0011995681561529,-0.0005194389959797
1772650918095163100,6.8051630859375,0.0579208585709333,0.0196304004801437,-0.0027262009603437,0.0004342258907854,0.0004855743609368,-0.0004762957687489
1772650918105136000,6.81513623046875,0.040559973925352,0.0334457580059766,-0.0055171925188973,0.0006537428125739,0.0008630407974123,0.0002055185032077
1772650918115108000,6.825108154296875,0.0433978276997804,0.0136844611551612,-0.0117102019401267,-0.001030440442264,0.0008800853975117,0.0014244474004954
1772650918125080000,6.835080078125,0.0402548534989357,0.0118837684087455,-0.0204252954511903,0.0003901142627,-0.0011481640394777,-0.0013628345914185
1772650918135053000,6.845052978515625,0.02528933955729,0.0026856954200193,-0.0022498612860217,0.0002367161214351,-0.0001649251207709,0.0002265399671159
1772650918145025000,6.85502490234375,0.0266343244254589,-0.0063989437894895,-0.0109915505430661,0.0003801877610385,0.0006790938787162,0.0004739520954899
1772650918154997000,6.8649970703125,0.0327694661796093,-0.0028323373490944,-0.0028083536853082,0.002794343046844,-0.0012402462307363,0.0013362835161387
1772650918164970200,6.87497021484375,0.0420528428316116,0.0025866554923355,-0.0093948285366874,0.0029114494100213,-0.002109705004841,-0.0010419148020446
1772650918174942000,6.88494189453125,0.0493868389815092,0.0095742128247395,0.0026213797458447,-0.0010010004043579,0.0011662496253848,0.0008116453536786
1772650918184915200,6.894915283203125,0.0372661930769681,0.0176224216585978,0.004924971379945,0.0009336872026324,0.0017617298290133,0.0007572363247163
1772650918194887200,6.90488720703125,0.0206552500158548,0.0113510497715324,9.06008929014e-05,-0.0001715244725346,0.0011920798569917,0.0014746920205652
1772650918204859100,6.914859130859375,0.0287345115751028,0.0087326474340632,-0.0200139381713233,-0.0001453016884624,0.0002219066955149,0.0011578383855521
1772650918214832400,6.924832275390625,0.0405558822721242,0.0135694199407473,-0.0046718186027836,0.0028984253294765,-0.0001032655127346,0.0004638185491785
1772650918224804000,6.93480419921875,0.0516273113846778,0.0139351845132187,-0.004468377585709,0.0011259457096457,-0.0011902421247214,-0.0002166100312024
1772650918234776300,6.9447763671875,0.0393570278763771,0.0097697353968396,-0.0165391290670726,0.0001967684365808,6.57048076391e-05,0.0005431898753158
1772650918244749300,6.954749267578125,0.0505757565051317,0.0094460564004257,-0.0091970044096466,9.94428992271e-05,0.0010173926129937,0.0005503713618963
1772650918254721300,6.96472119140625,0.036361937713623,0.0011641849411651,-0.0121944509262684,0.0015431423671543,-0.0004018056206405,-0.0025298406835645
1772650918264693200,6.974693359375,0.043844402423501,0.0095154318422079,-0.0117571372212376,-0.0018292441964149,-0.0009367414750158,0.0019453023560345
1772650918274666200,6.984666259765625,0.0426490551590919,0.0066479135818779,0.0056392662622965,-0.0027349852025508,-0.0008153012022376,0.0020446381531655
1772650918284638200,6.99463818359375,0.027684125739336,-0.0191897440405562,0.0098818722681142,0.0012097614817321,0.0007742764428257,0.0014728526584804
1772650918294611200,7.004611083984375,0.0273836814880371,-0.021831929112412,0.0129262997316196,0.0018326751887798,-0.0013751611113548,0.0024387810844928
1772650918304583400,7.01458349609375,0.0354635275691747,0.0022943945474922,0.0178705055349972,0.000319433864206,0.0005354015156626,-0.0007263842853717
1772650918314555100,7.02455517578125,0.031871056035161,0.0106894805902615,-0.0064166255766525,0.0009745713323354,0.0013553886674344,0.0003402117290534
1772650918324528000,7.034528076171875,0.0341173736572265,-0.0010580576855689,0.0014719996481668,0.0021839276887476,-0.00259171705693,0.0008475762442685
1772650918334500000,7.0445,0.0300759893119335,0.0297938844349235,-0.0019960691880434,0.0007647289894521,0.0032563181594014,0.0007264023297466
1772650918344472000,7.05447216796875,0.0384556951224803,0.0370957684135064,-0.0017513737119734,-0.0009611742570996,-0.0005930522456765,0.0009984332136809
1772650918354445300,7.0644453125,0.0338151758402585,0.0346371962802484,-0.0154340721683111,0.0029022735543549,0.000441319309175,0.0016479783225804
1772650918364417000,7.0744169921875,0.0203442843705415,0.0215809865586459,0.0051973220479208,0.0008750739507377,-0.0004857634194195,0.0035719643346965
1772650918374390000,7.08439013671875,0.0336626156270504,0.0280887244848534,0.0022404176042415,-0.0012386767193675,0.0016442327760159,-0.0026156241074204
1772650918384362200,7.0943623046875,0.0258820447534322,0.0084037077406421,-3.6167291924e-06,0.0003001461736857,0.0013167466968297,-0.0010477598989382
1772650918394334000,7.104333984375,0.0284311447143554,0.0045509047700092,0.0141469275677576,-0.0011419556103646,-0.0018236530013382,-0.0008821112569421
1772650918404307200,7.11430712890625,0.0276829566955566,-0.0094888726288452,0.003914369565295,-3.13930213451e-05,0.0015991628170013,0.0024201422929763
1772650918414279200,7.124279052734375,0.0282791690230369,0.0008835048362612,0.0033809294088743,-0.0012828125618398,0.0008841040544211,0.0005918822716921
1772650918424251100,7.134251220703125,0.0383037194311618,0.0018362024512141,0.0104492786262184,0.0026310165412724,-0.0026796562597155,0.0003674397012218
1772650918434224000,7.14422412109375,0.0164566292822361,0.0041180297780781,0.0012839388633146,-0.0022529542911797,-0.0008657772559672,-0.0005329750711098
1772650918444196400,7.1541962890625,0.0459393288761377,-0.0051954132186248,0.0083558226114604,0.0017759972251951,-0.0021220245398581,-0.000878425897099
1772650918454169300,7.16416943359375,0.0426478861153125,0.0067117725983262,-0.0017519034349359,-0.001767871202901,0.0012221066281199,-0.000575091864448
1772650918464141000,7.17414111328125,0.0164613054573535,0.0023962474867701,-0.0112606772074941,0.000186744146049,-0.0017116002272814,5.5915385019e-05
1772650918474113300,7.18411328125,0.0433995812654495,-0.0090167250724509,-0.0027450609244406,-3.77600081264e-05,-0.0002375408075749,-0.0006919002626091
1772650918484086300,7.194086181640625,0.0239466927766799,0.0135780416386201,0.0068176806582137,3.06013971567e-05,-0.001585547812283,-0.0007086333353072
1772650918494058200,7.204058349609375,0.0534258852392435,0.0150272540662437,0.001250109658949,0.0006955927237868,0.0010917279869318,0.0016815536655485
1772650918504030200,7.2140302734375,0.0329255335241556,0.0091914605848491,0.0058805642048828,0.0012584314681589,-0.0010670269839465,0.0019638314843177
1772650918514003200,7.224003173828125,0.0338239436686039,-0.0020861586242914,0.0005248823906295,-0.0015338929370045,-0.0011330733541399,-0.0024737939238548
1772650918523975200,7.23397509765625,0.0474357049137353,0.0071666402263566,-0.0028265651954337,0.0013923961669206,0.0002637412399053,0.001155792735517
1772650918533948200,7.2439482421875,0.0457850150972604,-0.0047839828735217,0.008765837317612,0.0007503079250454,-0.0025847756769508,0.0028189369477331
1772650918543920400,7.25392041015625,0.0158516491264104,0.010465426043421,0.004315333315311,-0.0006044418551027,-0.0001967642456293,-0.0015008765039965
1772650918553892000,7.26389208984375,0.0379997680485248,-0.0012585121611133,0.0159678867840673,0.0004845247603952,-0.0018689630087465,-0.0005687701050192
1772650918563865000,7.273864990234375,0.0278261645585298,-0.0058442325161769,-0.0011694091055542,-0.0012066059280186,0.0010218354873359,0.0015778297092765
1772650918573837300,7.28383740234375,0.0377075071036815,0.0094144191531464,0.0135154977964237,0.0004962193779647,-0.0007398456800729,0.0006326739676296
1772650918583809000,7.29380908203125,0.0287333425313234,0.0082638243459165,0.0012977664592675,0.0002468931488692,-0.0024746358394622,-0.0031341833528131
1772650918593782300,7.3037822265625,0.0407025972664356,0.0081319050619378,0.0136234516829252,0.0042586787603795,-0.0006154831498861,0.0013982504606246
1772650918603754200,7.313754150390625,0.0516278959065675,0.0061330228623002,-0.0034338469062,0.0011211312375962,-0.0016783259343355,-0.0013926941901445
1772650918613727000,7.32372705078125,0.0239431856453418,0.0218869472352787,-0.0079440178070217,0.001270801294595,-0.0018527631182223,0.0021232110448181
1772650918623699200,7.33369921875,0.0571627336800098,-0.0007089154543355,0.0123959100488107,-0.001594909466803,0.0013730810023844,-0.0016111525474116
1772650918633671200,7.343671142578125,0.0417488914489746,0.0062243178749457,-0.0012007814913522,0.0013140612281858,-0.0014293633867055,4.82631730847e-05
1772650918643644200,7.35364404296875,0.0270808991491794,0.0030215032456442,0.0095529691073112,0.0010678088292479,0.0018661161884665,-0.0006135365110822
1772650918653616000,7.3636162109375,0.0315711963057518,-0.0071900576345622,0.0120914106769021,-0.001138087362051,-0.0002907779999077,-0.0004833079292438
1772650918663588400,7.37358837890625,0.0430938763171434,0.001945654175058,0.0208095363952685,-0.0006017140112817,-0.0008885937277227,0.0005265232175588
1772650918673561000,7.38356103515625,0.0391980379223823,0.0153808167442679,0.0103948815578594,0.0017370739951729,0.0007910621352493,-0.0004649716429412
1772650918683533300,7.393533203125,0.0296212312817573,0.0189924313701689,-0.0140759720902424,0.0011212602257728,-0.000229503493756,0.0012108567170798
1772650918693506300,7.40350634765625,0.0347147550284862,0.0196124264320358,0.000849803496059,0.0001971437595784,0.00017343275249,0.0020151312928646
1772650918703478000,7.41347802734375,0.0389046079337596,0.01797390197739,-0.0030527477672789,0.0019669895991683,0.0003384696319699,-0.0001610131294
1772650918713450200,7.4234501953125,0.0333674320727586,0.0204844234935939,-0.0121196595238521,0.0013810941018164,-0.0008879161905497,0.0010115767363458
1772650918723423200,7.43342333984375,0.0306739552050828,0.0052088572220876,0.0134408159918617,0.0019886619411408,0.0010981727391481,0.0009178563486784
1772650918733395200,7.443395263671875,0.0402455011487007,0.0126567255426198,0.0095899309836793,0.0013987715356051,-0.0002674963325262,0.0007490118732675
1772650918743367200,7.4533671875,0.0420440750032663,0.0082438044711947,0.0007716602259315,-0.0008240872994065,0.0013010571710765,-0.0002671347174327
1772650918753340200,7.463340087890625,0.0471358451843261,-0.0058147141607478,0.0016270988783333,0.0007956475019454,-0.0006813998334109,0.0003235544427298
1772650918763312000,7.47331201171875,0.0387538012862205,0.0002676379602402,0.0129108007683884,0.0029727630317211,-0.0006532380357384,-0.0002733016153797
1772650918773285000,7.48328515625,0.020945757395029,0.0159600779369473,0.0015948862423188,0.0002422239631414,-5.24288043379e-05,-0.0003526638029143
1772650918783257300,7.49325732421875,0.0366594593554735,0.0192398667925968,-0.0038746586094144,-0.001147317700088,-0.0015054563991725,-0.000736973946914
1772650918793229000,7.50322900390625,0.039207974794507,-0.0023923019640147,0.010490049028024,0.0002447166480123,-0.0002918541431427,-0.0026299487799406
1772650918803202000,7.5132021484375,0.0439963781148195,0.0131557976385578,-0.0106426366406958,0.0013572531752288,-0.0004390156827867,0.0008723263163119
1772650918813174300,7.52317431640625,0.0318769012540578,0.0137094129333272,0.0101222751615568,5.68316318094e-05,-0.0024182768538594,0.0012675394536927
1772650918823146000,7.53314599609375,0.0243944365441799,0.0191407537996768,0.0058653392362874,0.0006039198487997,-9.52621921896e-05,-0.0006216656183823
1772650918833119200,7.543119140625,0.0407037663102149,0.006839600229077,-0.0059760422023013,0.0012441435828804,0.0021252818405628,0.0008377466001547
1772650918843091200,7.55309130859375,0.0366653045743703,0.0111047833928838,0.0088069639124441,-0.0012569034006446,-0.0006073284894227,-0.0010005787480622
1772650918853063200,7.563063232421875,0.0297808057576417,0.0155878836236894,-0.0124145142845809,-0.0010486440733075,0.0033722328953444,0.000666293723043
1772650918863036200,7.5730361328125,0.0390589217126369,0.0039584187695756,-0.0064403352458029,0.0009927260689437,-0.0018746010027825,0.0012525790371
1772650918873008000,7.583008056640625,0.0454904160648584,0.0080607760544866,0.0113120968674775,-0.000595583114773,0.0031537134200334,0.0008829322759993
1772650918882981400,7.5929814453125,0.0291764101237058,0.0195025728493928,0.0163383549311198,-4.43402677774e-05,0.0015568118542432,0.0028580096550285
1772650918892953000,7.602953125,0.0353115518778562,0.0174135646808892,0.0101848555363714,0.000507200602442,-0.0007145979907363,0.0005842028767801
1772650918902925300,7.61292529296875,0.0442874700158834,0.0066935793545097,-0.0121336971823591,0.0007302518934011,-0.0006118402816355,0.0011660848977044
1772650918912898300,7.622898193359375,0.0436848279476165,0.0073998644603416,0.0030817090002819,0.0005350420251488,0.001919228117913,0.0017674266127869
1772650918922870300,7.632870361328125,0.0243833306282758,0.0130128820365294,0.0145537548029795,-0.0004245531745254,-0.0005180393345654,0.0006096675642766
1772650918932842200,7.64284228515625,0.032762451916933,0.0077838588092476,0.0262064818016719,0.0004012929275631,0.0019323355518281,0.0006237823399715
1772650918942815200,7.652815185546875,0.0442827938407659,0.0163566760390996,0.0094326215301174,-0.0015742606483399,0.0015757479704916,0.0020921151153743
1772650918952787200,7.662787109375,0.0418850850492715,0.0099873967355117,0.0129174131722655,-0.0002743718214333,-0.0001478497870266,0.0011988908518105
1772650918962760200,7.67276025390625,0.027967618855834,0.0222763849442824,0.0103416535332798,0.0011949427425861,5.82011416554e-05,0.0006998284370638
1772650918972732400,7.682732421875,0.0411392351180315,-0.004156096766144,0.014248250784073,-0.0012900526635348,-3.20803374052e-05,-0.0031252698972821
1772650918982704000,7.6927041015625,0.039648119777441,-0.0005855082703754,-0.0025212621059268,0.0006017601117491,0.0005235029384493,0.0012074495898559
1772650918992677000,7.702677001953125,0.0406996746569871,-0.0049256928991526,0.0050600142027717,0.0027866172604262,0.0003125807270407,0.0014601835282519
1772650919002649300,7.7126494140625,0.026932430589199,0.0105130645774304,-0.0060144379839301,0.0005915509536862,-0.0002413494512438,-0.0015506945783272
1772650919012621000,7.72262109375,0.0330687413871288,0.0027054960990324,-0.0059978156426921,0.0010791756212711,0.0003826292231678,0.0012054108083248
1772650919022594300,7.73259423828125,0.0426478861153125,0.004299596890062,-0.0046030185497365,0.00150473928079,-0.0003646500408649,-0.0010381815955042
1772650919032566300,7.742566162109375,0.0514782583028078,0.0097880017058923,0.0111078156001865,0.0001641041599214,-0.0003065932542085,-0.0009420415153726
1772650919042539000,7.7525390625,0.0492336942464113,0.0078268577007576,-0.0031097203852143,-6.64046965539e-05,0.0001582829281687,0.0031614070758223
1772650919052511200,7.76251123046875,0.0290326177388429,0.0130222343867644,-0.003366279829014,-0.002268305979669,0.0002304543741047,-0.0003552970883902
1772650919062483200,7.772483154296875,0.028135376638174,0.0147917282773181,-0.0045904056633356,-0.0001057065092027,-0.000975880306214,0.001067649340257
1772650919072456200,7.782456298828125,0.0296294145882129,0.0218728821773082,0.0092768281802069,-0.0002543106675148,0.0001346580684185,0.0022801863960921
1772650919082428200,7.79242822265625,0.0329237799584865,-0.0071950991358608,-0.0038200514785014,0.0006779669784009,0.0011839070357382,-0.002774741500616
1772650919092400000,7.802400146484375,0.0339677360534667,0.0010690174710005,0.0162324468712322,-5.62663190066e-05,0.0006352956406772,0.0028402672614902
1772650919102373000,7.812373046875,0.0306739552050828,0.0035600305691361,0.0080889153035823,-0.0002383887767791,-0.0010767937637865,-0.001885398174636
1772650919112345300,7.822345458984375,0.0433972431778907,-0.0009144844964146,-0.0049523708435241,-0.001494867959991,0.0017062094993889,-0.0005098754190839
1772650919122318300,7.832318359375,0.0318792393416166,-0.0060032955354079,0.0009566614040173,0.0006832801736891,0.0011135526001453,-0.0016800712328404
1772650919132290000,7.8422900390625,0.0477425789058208,-0.0095048373829573,0.005431121670641,0.0006803506985306,-0.000464370008558,-0.0011282642371952
1772650919142262300,7.85226220703125,0.0347252764225006,-0.00240106979236,-0.000176260749204,0.0006043636240065,0.0015066191554069,-0.0017745711375027
1772650919152235300,7.8622353515625,0.0320329685986042,0.0042282486869022,-0.0165180497464258,0.0015444597229361,-0.0010596027132123,5.79499173909e-05
1772650919162207200,7.872207275390625,0.0468505985021591,-0.0112503293434157,-0.0007054631219245,-0.0023132460191845,0.0001521566882729,-0.0020698623266071
1772650919172179200,7.88217919921875,0.0266460148632526,-0.0023637334566563,0.0051712286254391,-0.0014738177414983,0.0011585652828216,0.000582113454584
1772650919182151700,7.892151611328125,0.02888882535398,0.0054020782392472,0.0080118040799163,-0.0019651059992611,0.001829536166042,-0.0041041495278477
1772650919192124000,7.9021240234375,0.0570247865140438,0.014922332387045,-0.0069641581905074,-0.0019211638718843,-0.0002384088002145,-0.0003672019811347
