time,seconds_elapsed,acc_z,acc_y,acc_x,gyro_z,gyro_y,gyro_x
1772650979174698800,0.06869873046875,0.0380909534633159,0.031540107047744,-0.0220992656785529,-0.0010764151811599,0.0021752994507551,-0.0009859782876446
1772650979184672000,0.078672119140625,0.0385509721904993,0.018732209531404,-0.00619704627553,0.0004346626810729,0.0012503834441304,0.0024196722079068
1772650979194643700,0.088643798828125,0.0577151068657636,0.0198281515419483,0.0011240355938673,-0.0013624150305986,0.0007527726702392,0.0013499745400622
1772650979204616000,0.098615966796875,0.0257061036646366,0.013543664444983,-0.0185346867984626,0.0005622515454888,-0.0022278369870036,0.0034488118253648
1772650979214589000,0.1085888671875,0.0424789592891931,0.0079286010421812,-0.0130744577643461,4.5858323574e-06,0.0004001702181994,-0.0006063835462555
1772650979224560600,0.118560546875,0.0396510423868894,0.0002178440017625,0.0008972137012053,-0.0017776016611605,-0.0022475444711744,0.0028948741964995
1772650979234532600,0.12853271484375,0.0511842437922954,-0.0114587844623252,0.020012248537736,0.0018496001139283,3.65148298442e-05,-0.0001574688358232
1772650979244505600,0.138505615234375,0.0281494051635265,-0.0108387894004583,0.0083455386794637,0.0017795590683817,-0.0016133135650306,0.0017493544146418
1772650979254477800,0.148477783203125,0.0290226808667182,-0.0334930494801141,0.0429582124398089,0.0017911586910486,0.000961952842772,-5.48263196833e-05
1772650979264449500,0.158449462890625,0.0258136556923389,-0.0429875298658385,0.020047612112062,-0.0017804065719246,0.0007286597974598,0.0002493066131137
1772650979274422500,0.168422607421875,0.0385544793218374,-0.023300357697159,0.0193986923498101,-0.001625268952921,0.0016076476313173,0.0003680670633912
1772650979284394800,0.178394775390625,0.0199818807989358,-0.0194878684706054,0.0056384077457711,-0.0011219317093491,-0.0016259625554084,-0.0004037170147057
1772650979294366700,0.18836669921875,0.0308311915934085,-0.0052867082312703,6.00048252381e-05,0.0003155176527798,-0.0001379097811877,0.0001715089310891
1772650979304339700,0.198339599609375,0.0372843132555484,-0.0188816644720733,0.009503860135423,0.0004113912582397,0.0011870129965245,0.002653841394931
1772650979314311700,0.208311767578125,0.0364390946030616,-0.0002969371199607,-0.0032040293388534,-0.003364915959537,0.0024988022632896,0.0002492983476258
1772650979324283600,0.21828369140625,0.0318260478496551,0.002451302142255,-0.0230484013632405,0.0001246239989995,-0.0004605022259056,-0.0002095642848871
1772650979334256600,0.228256591796875,0.0474263525635004,0.0033078459063544,-0.0032598329130094,-0.0021836967207491,0.0022637443616986,0.0003753150231204
1772650979344228900,0.238228759765625,0.0366933616250753,0.024224669467844,0.0142758603102061,0.001165494788438,0.0005963393487036,-0.0014460207894444
1772650979354200600,0.24820068359375,0.0285860430151224,0.0097273940924555,-0.0070214230693876,0.0017427918501198,0.0005757808685302,-0.0004272122168913
1772650979364173600,0.258173583984375,0.0535866287589073,0.0060730728359892,-0.0201632743809837,0.0003254576586186,-0.0014207910280674,-0.0017534664366394
1772650979374145800,0.268145751953125,0.0549888967722654,0.0115692225668579,0.0001911569242365,-0.0003786273300647,0.0025384463369846,5.93729782849e-05
1772650979384117500,0.278117431640625,0.0398521179169416,0.0039591128893196,-0.0078152129287365,0.0014088861644268,-0.0004347069188952,0.0006250284495763
1772650979394090800,0.2880908203125,0.0427203668296337,0.0155870433734729,-0.0038695349097251,0.0015664594247937,-0.0017135196831077,0.0018631739076226
1772650979404062700,0.298062744140625,0.0141787474781274,0.0136750722723081,-0.0085766805542167,-0.0020533092319965,0.0001256591640412,-0.0016886838711798
1772650979414034700,0.30803466796875,0.0132908587276935,0.0099299309272319,-0.0075345876227598,-0.0009949319064617,-0.0008430387824773,0.0013087610714137
1772650979424007700,0.318007568359375,0.0411480029463768,-0.002657857565023,0.0080602006657514,-0.0009358096867799,-0.0003444948233664,0.0012288661673665
1772650979433979600,0.327979736328125,0.045644145321846,-0.007856083795242,-0.0064937185340095,0.0007143034599721,-0.0005896326620131,0.0007184239802882
1772650979443951600,0.33795166015625,0.0354869084447622,0.0113749055711552,0.0105845406447537,0.0003446568734943,0.0007302300073206,0.0002989760832861
1772650979453924600,0.347924560546875,0.0362450333356857,-0.0173135749051347,0.0022648031268268,-0.0002955058589577,0.0001400508917868,0.0034601604565978
1772650979463896800,0.357896728515625,0.0290653509646654,-0.0020010376241058,0.0122967879227362,0.0016283616423606,0.0001858570612967,-1.44658843055e-05
1772650979473868500,0.36786865234375,0.0346188934385776,-0.0120686234563589,0.0070078968675341,0.0005926820449531,-0.0018398750107735,0.0002519448753446
1772650979483841500,0.377841552734375,0.0409235465407371,-0.0015163228470832,-0.0123805846155155,-0.0005082688294351,-0.001305644866079,0.0008407697314396
1772650979493813800,0.387813720703125,0.0452700513124465,0.0006286167597398,-0.0052181547733955,-0.0006246492266654,-0.0005828628782182,0.0006002862937748
1772650979503785700,0.39778564453125,0.0525906034588813,0.0015424436690285,0.0033101565944496,0.0014957599341869,0.0013577826321125,-0.00104741146788
1772650979513758700,0.4077587890625,0.0407616339772939,-0.0104146457042545,-0.0050269704496953,-7.87009485065e-05,-0.0005213438998907,0.0002655269345268
1772650979523730700,0.417730712890625,0.0313379720717668,-0.0086374068986624,-0.0017444325145334,0.0005615227855741,0.0003364603035151,0.0006950948154553
1772650979533702700,0.42770263671875,0.0193459209829568,-0.0057523164490237,-0.0013271569505333,0.0002071838825941,-0.000207386445254,-0.0006786932935938
1772650979543675600,0.437675537109375,0.0343050051838159,-0.025846279320307,-0.0044624410352669,-1.17276795208e-05,0.0004075374454259,-0.0010715095559135
1772650979553647900,0.44764794921875,0.0399736984699964,-0.0089562635894864,0.0029575437644962,0.0001618913374841,-0.0010083375964313,0.0010749112116172
1772650979563619600,0.45761962890625,0.0398287370413541,-0.0051644700910896,-0.0085929741018917,-0.000643981155008,-0.0009236489422619,-0.0023757466115057
1772650979573592600,0.467592529296875,0.0449181691348552,-0.009196977010183,0.0015741448483895,-0.0006755315698683,-0.0003855456598103,0.0016514691524207
1772650979583564800,0.477564697265625,0.0455137969404459,-0.0048163873057812,0.0131346817852929,0.0012478032149374,-0.000207114033401,3.57294338755e-05
1772650979593536500,0.48753662109375,0.0262047008365392,0.0010994491418823,0.0037962870104238,-0.0010297489352524,-0.0004718545824289,-0.0023440388031303
1772650979603509800,0.497509765625,0.0229068283349275,0.0187880313718691,-0.0024974428389221,0.001541266683489,-0.0012702702078968,0.002006501192227
1772650979613481700,0.507481689453125,0.0179646957576274,0.0127884621635079,-0.0121767234733328,-0.0019127451814711,0.0007301289588212,-0.0011799234198406
1772650979623453700,0.51745361328125,0.0260217454850673,-0.0037420726051554,-0.0086825429483316,0.0013669375330209,-0.0009966646321117,-0.0012968361843377
1772650979633426700,0.5274267578125,0.0366337403923273,-0.0020411869714036,-0.010978188737994,0.0003826674073934,-0.0019878481980413,0.0036065122112631
1772650979643398700,0.537398681640625,0.0505506220638751,0.0036831820247694,0.0033546350569929,0.0020032008178532,0.0023509738966822,-0.0021762759424746
1772650979653370600,0.54737060546875,0.0439642294108867,-0.0104071199849247,0.0074714501255191,-0.0001091104932129,-0.0007208830211311,-0.0034071407280862
1772650979663343600,0.557343505859375,0.0266021757215261,-0.0098638799536973,-0.0039826216290704,4.00263816118e-05,-0.0015275545883923,-0.002128557069227
1772650979673315800,0.56731591796875,0.0321405206263065,-0.0107030341915786,0.011193922981061,-0.0012719926889985,-0.000781062990427,-0.0011635336559265
1772650979683287600,0.57728759765625,0.0370920055538415,-0.0090753599245101,0.0022759912411216,-0.0008722520433366,0.0018613254651427,-0.0003693790640681
1772650979693260500,0.587260498046875,0.0415939931482076,-0.0008524521108716,0.0086072583555709,0.0006250320002436,-0.0007585100829601,-0.0006295447237789
1772650979703232800,0.597232666015625,0.0291717339485883,0.0123504726050421,0.0041971228962764,0.0004151747561991,0.0005570915527641,0.0024551947135478
1772650979713204700,0.607204833984375,0.0344067119926214,0.0317854966435581,0.0091343144369777,-0.0004217163659632,-0.0001474362798035,-0.0012354305945336
1772650979723177700,0.617177734375,0.0088186817497014,0.0329330957761034,-0.0152413534746505,0.0015080105513334,0.0012256898917257,0.0006892358651384
1772650979733149700,0.627149658203125,0.0200333187252283,0.0181303346481174,-0.0335537118924781,0.0025474964641034,0.0015398589894175,0.0003086951910518
1772650979743121700,0.63712158203125,0.0276607448637485,0.0074267889998853,0.0029766229243017,-0.0027207685634493,-0.0001027788966894,-0.0027323684189468
1772650979753094700,0.6470947265625,0.0421685781657695,0.013512502121739,0.0061878126563038,1.99279747903e-05,-0.0006528280209749,-0.0022279089316725
1772650979763067000,0.65706689453125,0.0394739322543144,0.0054495341101661,0.0018030856329016,-0.0006783530116081,-0.0002427012659609,0.0013359333388507
1772650979773038600,0.66703857421875,0.0194160636097192,0.0058292906753718,-0.013589092755597,0.0021651918068528,0.0005404963158071,0.0008924765279516
1772650979783011600,0.677011474609375,0.0327414091289043,-0.0095454251216724,-0.0069088569398503,-0.0010737446136772,0.0013421080075204,-0.0011789301643148
1772650979792983800,0.68698388671875,0.0363455711007118,-0.0124359954640269,0.0060796852398663,-0.0012697370257228,-0.0003258073702454,-0.0006141067715361
1772650979802955500,0.69695556640625,0.0377168594539165,-0.0013397972363978,0.0007764277325943,-0.0007749213837087,-0.0005575022660195,-0.00123968324624
1772650979812928800,0.7069287109375,0.0443213722854852,-0.0115500064097344,-0.015443771578418,0.0002050343900918,-0.0003593252040445,0.0024757338687777
1772650979822900700,0.716900634765625,0.0329500834435224,0.0010911197049543,0.0019674093491397,-0.000824543647468,-0.000460791401565,-0.0019821315072476
1772650979832872700,0.726872802734375,0.0304120893985033,0.0086881141725927,-0.0094559658730868,-0.0012662911321967,0.0019069644622504,-0.0006811853381805
1772650979842845700,0.736845703125,0.0314589681029319,0.0009782704476267,-0.0313613712136633,0.0008256216533482,0.0004611341282725,0.0001390682882629
1772650979852817700,0.746817626953125,0.0287701674103736,0.0042346053624525,-0.0082227982157841,-0.0003604427911341,-0.0027350927703082,-0.0010806111386045
1772650979862790700,0.756790771484375,0.0441810870319604,0.0039135201819241,-0.0064051908671855,-0.0005695009604096,0.0009011873044073,0.0017292900010943
1772650979872762600,0.7667626953125,0.0434188704878091,0.008125365723297,-0.019365895191906,-0.000352207571268,0.0011061136610805,-0.0010854946449398
1772650979882734800,0.77673486328125,0.0414741661608219,0.014946261251904,-0.0100492190585006,0.0008099959231913,-5.98179176449e-05,-0.0009267702698707
1772650979892707600,0.78670751953125,0.0263555074840784,-0.0012918664414435,-0.0024268526875879,0.0004027117975056,0.0013761962763965,0.0006887447088956
1772650979902679800,0.7966796875,0.0182698161840438,-0.0044618017144501,-0.0088126630008686,-0.0021022574510425,-0.0012528761290013,0.0014437508070841
1772650979912651800,0.80665185546875,0.0284516029804944,-0.0063209101172164,-0.0049097738108132,-0.0023086359724402,-0.0010174303315579,-0.0021147979423403
1772650979922624500,0.81662451171875,0.024867899274826,0.0027449513265863,-0.0105100141038186,-0.0002191197127103,0.0017748940736055,-0.0024964290205389
1772650979932596700,0.8265966796875,0.0378928005427122,-0.0105409024324268,0.0019056874908506,-0.0024155541323125,0.0005177604034543,0.0007363653858192
1772650979942568700,0.836568603515625,0.0434317299693822,-0.0040168344259262,-0.0097431396508589,-0.0010530808940529,0.0004628994502127,0.0007827043882571
1772650979952541700,0.846541748046875,0.0229401460826396,-0.0119673915715888,-0.0042737043969798,0.0007817526347935,0.0022218050435185,-0.0017641823505982
1772650979962513700,0.856513671875,0.0245931739866733,0.0163258059768006,-0.0192050603406969,-0.0012337276712059,0.0006486759521067,0.0009458503918722
1772650979972486000,0.86648583984375,0.0394061277151107,0.0036742315333336,-0.0203199627800378,-0.0016298666596412,-0.0010194999631494,0.0025052621494978
1772650979982458600,0.876458740234375,0.0386532635211944,0.0141062667638063,-0.0062991366768255,-0.0033766338601708,0.0002068858593702,0.0012280100490897
1772650979992430600,0.8864306640625,0.0376046312510967,0.0047322161536663,-0.0062829344606958,-0.0012644655071198,0.0019819061271846,-0.002234132727608
1772650980002402800,0.89640283203125,0.0331166721820831,0.0066689563699066,-0.008006698646536,-3.70144844055e-05,-0.000323592685163,-9.85439983196e-05
1772650980012375600,0.90637548828125,0.0377501772016286,0.010260258860141,0.0043924993379041,4.7646462917e-06,0.0006031412631273,0.0004762326134368
1772650980022347800,0.91634765625,0.0277215351402759,0.002206971992366,-0.004883744320413,-0.0005169482901692,-0.0013060788623988,0.0026262025348842
1772650980032319700,0.92631982421875,0.043122517889738,0.0043015696514397,-0.013506081514107,0.0017771888524293,0.0001102676615118,-0.0005005354760214
1772650980042292500,0.93629248046875,0.0354991834044456,-0.0203175424940884,-0.0070007090749219,-0.0016745342873036,-0.0014404910616576,0.0026126997545361
1772650980052264700,0.9462646484375,0.02487900519073,-0.0143123107299208,0.0033186686944682,0.0009765354916453,-0.0006850522477179,0.0009444485185667
1772650980062236700,0.956236572265625,0.0449415500104427,-0.0086150489363819,0.0007796974019147,-0.0013819599989801,-0.0008863871917128,0.0005971724167466
1772650980072209700,0.966209716796875,0.0232440974652767,-0.0012377616340294,-0.0007795512714423,0.0002300515770912,-0.0015122301410883,0.002430758671835
1772650980082181600,0.976181640625,0.0272837282449007,-0.0021150193925946,-0.0077908091398421,0.0003144736401736,-0.0010022346395999,-0.0001226800959557
1772650980092153900,0.98615380859375,0.0262438638031482,0.0078493983261287,0.0126232525312807,0.0012948368676006,-0.0002417191863059,-0.0016808718210086
1772650980102126600,0.996126708984375,0.0376186597764492,0.0118647349147126,0.0020970727439504,0.0001568682491779,9.38391312956e-05,-0.000661413767375
1772650980112098800,1.006098876953125,0.0307423442661762,-0.0093370796006172,-0.0100560506580863,-0.0009099068120121,-0.0019560342188924,-0.0007541315862908
1772650980122070800,1.01607080078125,0.0445031585931777,0.0117056718954816,0.0081745477604214,0.0013447254896163,0.0003606495447456,-0.0010353613179177
1772650980132043500,1.02604345703125,0.0334247152179479,-0.0017785905124619,0.0104751985187642,-0.0003515123389661,-0.0011751349084079,0.0004757242859341
1772650980142015700,1.036015625,0.0500350737571716,0.0170764782136306,-0.0105652057566214,4.5299064368e-05,-0.0011003001127392,-0.0010127164423465
1772650980151987700,1.04598779296875,0.0497393056809902,-0.0117681426724419,-0.0102587518896441,0.0009164358489215,0.0014113499782979,0.0022064801305532
1772650980161960700,1.055960693359375,0.0286374809414148,-0.0017366145342588,-0.0089454134019091,-0.0009067645296454,-0.0009881579317152,0.0014778393087908
1772650980171932700,1.0659326171875,0.0235503869354724,0.0031117388123646,-0.0076203479437623,0.0017473953776061,0.0014213868416845,-0.0022915743757039
1772650980181905000,1.07590478515625,0.0314852715879678,-0.0109895229827612,-0.0116316202785819,-0.0005309390835464,-0.0002457522787153,-0.001599152572453
1772650980191877600,1.085877685546875,0.0304319631427526,-0.006713453098759,0.0029973186524584,-0.001200174447149,-0.0019733221270143,0.0033284618984907
1772650980201849600,1.095849609375,0.0440478160411119,-0.0070358534535393,0.0057142129283398,-0.0008883182890713,-0.0009512009564787,0.0003526455839164
1772650980211821800,1.10582177734375,0.0334159473896026,0.0038058220237493,-0.0049251175104174,0.0011586416512727,-0.0008013490587472,0.0008573391241952
1772650980221794600,1.115794677734375,0.0328255802810192,0.0077948551272973,-0.0034666257977951,-0.0001905155368149,0.0002018637023866,-0.0024095606058835
1772650980231767000,1.12576708984375,0.0244499661237001,0.0098111268531531,-0.0087603208922781,-0.001445717876777,0.0008847820572555,-0.0016865369398146
1772650980241739000,1.135739013671875,0.028642741638422,0.0115250546315684,-0.0009539214576594,0.0008880100212991,0.0010325876064598,-0.0021914721000939
1772650980251711700,1.145711669921875,0.0202636203497648,0.0034221564684063,0.0141465805078856,0.0010310383513569,0.0014850818552076,0.0015238706255331
1772650980261684000,1.15568408203125,0.0234030874192714,0.0016323504421859,0.0015619794865604,-5.57978637516e-05,0.0003633582964539,0.0024242852814495
1772650980271656000,1.165656005859375,0.0347726226955652,0.0061714551765471,-0.0089848412299994,0.0014330013655126,-0.0016970534343272,0.0004360511666163
1772650980281629000,1.17562890625,0.0349234293431043,-0.0035528701759874,0.0021596348524559,-0.0005348082631826,-0.0021838792599737,-0.002207935322076
1772650980291601000,1.185600830078125,0.0337257439911365,-0.0133369628917425,-0.0087538089531008,-0.0008394792675971,0.0002780999056994,0.0016977327177301
1772650980301573000,1.195572998046875,0.0337298356443643,0.0042566710637882,0.0024238844123668,-0.0018285773694515,-0.000413523055613,0.0003139540785923
1772650980311545900,1.2055458984375,0.0364285732090473,0.0021477526184171,-0.010728132100217,-0.0008737579919397,0.0001053130254149,-0.000770635146182
1772650980321517800,1.215517822265625,0.0415156672149896,-0.0138450220117345,0.0055807227417826,0.0004682089202105,0.0013567325659096,0.0003209945862181
1772650980331490000,1.225489990234375,0.0421130485862493,-0.0077185384880751,0.0095418997240252,0.0002621505409479,-0.000653482042253,9.19547164812e-05
1772650980341462800,1.235462890625,0.0346299993544816,0.0050408437114208,0.0083482603595126,2.758577466e-06,0.001262396108359,-0.0019243245478719
1772650980351435000,1.24543505859375,0.0226613291412591,-0.0023997911507263,-0.0034126031887717,-0.0005450877360999,0.0010269274935126,-0.0009854971431195
1772650980361407000,1.255406982421875,0.0344826998382806,-0.0059654477430507,0.0015709665106143,0.0005992725491523,-0.000665244879201,-0.000180689850822
1772650980371380000,1.2653798828125,0.031041034951806,0.0070845149008557,0.0042142840936314,-0.0011246651411056,0.0005360525101423,0.0008005727431736
1772650980381352000,1.27535205078125,0.0280547126173973,0.0058124126058071,0.0061016139438841,0.0003288881853222,0.0002228645607829,-0.0021888255141675
1772650980391324200,1.28532421875,0.0415209279119968,-0.0016484978593885,-0.0089196670392993,0.0015804320573806,0.0008371118456125,0.0008727609529159
1772650980401297000,1.295296875,0.0257996271669864,-0.0005623100578784,0.0128659295802004,-0.0002217292785644,0.0011324561201035,-0.0001869108527898
1772650980411268900,1.305268798828125,0.028635142853856,-0.0050751478398218,0.0078321457972284,0.0026930305175483,0.0009383726865053,0.0001467914553359
1772650980421241000,1.315240966796875,0.0377618676394224,-0.0109471451457589,-0.0111882512921001,0.0009510568343102,0.0015796618536114,0.0009188418043777
1772650980431213800,1.3252138671875,0.0377624521613121,-0.0178448687702417,3.83957816287e-05,-0.0023060981184244,-0.003733709687367,-0.00165621843189
1772650980441186000,1.33518603515625,0.0311836582928895,0.0015052899964153,0.0148571307968813,4.2543746531e-05,0.0003230837173759,-0.0034993924200534
1772650980451158000,1.345157958984375,0.0202636203497648,-0.0081939739800989,0.0031233744512312,0.0007740976288914,-0.0007517912890762,0.0020911488682031
1772650980461130800,1.355130859375,0.0299894800722599,0.0019437179462984,-0.0001148220187053,0.0015354952774941,-0.002211203565821,2.93295597657e-05
1772650980471103000,1.36510302734375,0.0382218863666057,0.000909406462498,0.0017075528365559,0.0007911622524261,0.0008334596641361,0.0005071891355328
1772650980481075000,1.375074951171875,0.0277443314939737,0.0150810300800949,-0.0156160594054032,0.0038356878794729,-0.0013604522682726,-0.0015455754473805
1772650980491048000,1.3850478515625,0.0238520002305507,0.020332666997984,-0.018703768888209,0.0003448873758316,-0.0015666419640183,0.0014097264502197
1772650980501020000,1.39502001953125,0.0277402398407459,0.007268675828725,-0.0026311978869605,0.0012753955088555,-0.0017381496727466,0.0010747008491307
1772650980510992100,1.4049921875,0.0352145212441682,0.0004950169753283,-0.0097630042619537,-0.0005202321335673,-0.0006128195673227,0.000439787574578
1772650980520964900,1.41496484375,0.0319189868301153,-0.0111351785311475,-0.007376447052136,0.0005162698216736,0.0013003954663872,0.0026526080910116
1772650980530936800,1.424936767578125,0.039247137761116,-0.0087695819109678,-0.0133593117208685,-0.0005477704107761,-0.0011985476594418,-0.0005027535371482
1772650980540909000,1.434908935546875,0.0500216297537088,-0.0140645099813118,0.0063032283300533,0.0007851417176425,0.001422269269824,0.0007683732546865
1772650980550881800,1.4448818359375,0.0426870490819215,-0.0047408013189211,-0.006477607649425,0.0015778397209942,-0.0002306103706359,0.0009899318683892
1772650980560854000,1.45485400390625,0.0311637845486402,-0.0046373774770647,-0.0148338138533756,0.0019727866165339,-8.04085284471e-05,0.0001228065229952
1772650980570825700,1.46482568359375,0.0503273347020149,-0.0003848711317405,-0.0083855601625982,-0.0002284571528434,-0.0010589980520308,0.0004173686029389
1772650980580799000,1.474799072265625,0.0355149654954671,-0.0003591156359761,-0.0058433466001879,0.0018085944466292,-0.0016395670827478,0.0014890247257426
1772650980590771000,1.48477099609375,0.0301268427163362,-0.0065652037344872,0.0111681126863695,-0.0011475482024252,0.0006123562343418,-0.0020228216890245
1772650980600743000,1.494742919921875,0.0386573551744222,0.0117697866402566,-0.0010396269797347,0.001361415721476,0.0003694761544466,-0.0001575436908751
1772650980610716000,1.5047158203125,0.0280360079169273,0.0027149945797398,0.0002179353333078,-0.0018995178397744,0.0014111385680735,-0.0033556874841451
1772650980620688000,1.51468798828125,0.0244394447296857,0.0086554540120065,0.0043962895970325,-0.0011189454235136,-7.031485438346864e-08,0.0017807512776926
1772650980630661000,1.5246611328125,0.0343096813589334,0.0091168975112959,-0.0010079714661464,0.0007361229509115,-0.0015562332700937,0.0001406985684297
1772650980640632800,1.5346328125,0.04268997169137,0.0102740316571667,-0.005664711230807,0.0004714047536253,-0.001464886823669,0.0004629410686902
1772650980650605000,1.54460498046875,0.025035657057166,0.0074087784191593,-0.0180823216547723,-0.0007002665661275,0.0019072159193456,-0.0037742559798061
1772650980660578000,1.554578125,0.0311743059426546,0.0041433103498071,0.0052385034416802,0.000155939720571,0.0014840397052466,0.0016631199978291
1772650980670549800,1.5645498046875,0.0311725523769855,0.0030950434058904,-0.0007524988677352,0.0020175436511635,0.0019790371879935,-0.0010953567689284
1772650980680522000,1.57452197265625,0.0269873756468296,0.0003920315248891,-0.014226961400872,0.0005301684141159,-0.0009014378301799,-0.0001978714717552
1772650980690495000,1.584494873046875,0.0316273104071617,-0.0096996293026953,0.0090343063949141,-0.0007926565594971,-0.0006617992185056,-8.75504338182e-05
1772650980700467000,1.594467041015625,0.0323790055572986,0.0012730156105011,0.0128111580525059,-6.2417704612e-05,-0.0004013422876596,-0.0024921186268329
1772650980710439000,1.60443896484375,0.0355278249770402,0.0087151848426088,-0.0088491590863559,-0.0012944503687322,0.0009036906994879,-0.000407154293498
1772650980720412000,1.614411865234375,0.0386731372654438,0.0060393897620961,-0.0228639390412718,-0.001028134021908,0.001282125711441,-0.001620756695047
1772650980730384000,1.6243837890625,0.0464607224017381,-0.0035488150553777,-0.0256133108146488,-0.0014956279192119,0.0006021223962306,-9.66797815635e-05
1772650980740356000,1.634356201171875,0.0346451969236135,0.0037508039008826,-0.0078416716773994,0.0014298544265329,-0.0002756556496024,-0.0030187000520527
1772650980750329000,1.6443291015625,0.0294102188795804,-0.0037864962687715,-0.0013480444749351,0.000399031676352,0.0007496243342757,0.0008305900846607
1772650980760300800,1.65430078125,0.0208779528558254,-0.0138622288748621,-0.0038728228453546,0.0004395116120576,0.0002809078432619,-0.000294062832836
1772650980770273000,1.66427294921875,0.0325473478615283,0.0014565189512446,0.018700124759553,-0.0001373938284814,0.0015000104904174,-0.0013818305451422
1772650980780246000,1.67424609375,0.0276098914593458,0.0028454890916123,0.0193919338154606,-0.0013001300394535,-0.0004142695106565,-0.0016356299165636
1772650980790218000,1.684218017578125,0.0394306776344776,-0.0006650032473728,-0.0003811356715392,0.000437896233052,-0.0016716606914997,0.0011881055543199
1772650980800190000,1.69418994140625,0.0454144282191991,0.0043900151198729,0.0070900861251167,-0.0009749103337526,-5.271285772323608e-07,0.0011164665920659
1772650980810163000,1.704162841796875,0.0373322440505027,0.0024357757795602,0.0065472205532249,0.0004694378003478,-0.0019027607049793,-0.0004620382096618
1772650980820135000,1.714135009765625,0.0265577520579099,-0.004849924249202,0.0054042427968699,0.0027011665515601,-0.0008225825149565,0.0016684907022863
1772650980830107000,1.72410693359375,0.0422679468870162,-0.0108772217147052,0.0091133081815671,0.0004582954570651,-0.0003089206293225,-0.0009658648632466
1772650980840080100,1.734080078125,0.0290986687123775,0.0011730988999828,0.0059192065816838,0.0014079790562391,-0.0018210632260888,0.0011918281670659
1772650980850051800,1.7440517578125,0.0341851781964302,0.0091081662155687,0.0002953022853005,-0.0025385578628629,-0.0005705321673303,-0.0007163161062635
1772650980860024000,1.754024169921875,0.0243085118263959,0.0029016031930223,-0.0102114878149703,0.0008263462223112,-9.48915258049e-05,-0.0007956783520057
1772650980869997000,1.7639970703125,0.0240086520969867,0.0157702909858897,-0.0081540072958916,0.0005007493309676,0.0024438118562102,-0.0008130686474032
1772650980879968800,1.77396875,0.0311900880336761,0.007646057773754,0.0001775759234558,0.0003505470231175,0.000729801133275,-0.0007936275796964
1772650980889941000,1.78394091796875,0.0337350963413715,0.0007218845337629,-0.0022250921709462,-0.0025115346070379,-0.0009279905352741,-0.0001293050590902
1772650980899914000,1.7939140625,0.0566267271071672,0.006917232042551,-0.0037834275288507,-0.0019871583208441,0.0002014557830989,-0.0005191918462514
1772650980909886000,1.803885986328125,0.0257955355137586,0.0054073754688724,-0.0015092537854798,-0.0013281358405947,0.0002479064278304,0.0004871835117228
1772650980919858000,1.81385791015625,0.0482405915558338,-0.00249324158784,0.0049524895745329,-0.0001246533356606,-0.0004410534165799,0.0014059741515666
1772650980929831000,1.823830810546875,0.0331254400104284,-0.00977262147367,0.0019740126198623,-0.0028768524061888,-3.22805717587e-05,-0.0004194547072984
1772650980939803000,1.833802978515625,0.0343260479718446,0.0039274391094222,-0.0103469690292142,0.0024313605390489,-0.0022216651123017,-0.0013076189206913
1772650980949775000,1.843775146484375,0.0443511829018592,0.0042517026277258,0.0014735157518181,-0.0007323333993554,-0.0002253041602671,0.0022243759594857
1772650980959748000,1.853748046875,0.0453974770843982,0.0009833484815433,-0.0064765390703454,-0.0002801287919282,-0.0003187810070812,-0.00081988342572
1772650980969719800,1.8637197265625,0.0455441920787096,-0.0053766515370458,-0.0003962693085893,0.0003060256130993,0.0023782895877957,0.0006254789186641
1772650980979692000,1.873692138671875,0.0262409411936998,-0.0010572905005887,-0.0044697110262699,-5.66970556974e-05,0.000882658176124,0.0019759680144488
1772650980989665000,1.8836650390625,0.0468885924249887,-0.0032722266037017,0.0054777190250344,-0.0025959194172173,0.0030430383048951,-0.0022924919612705
1772650980999637000,1.893636962890625,0.0346177243947982,0.0048645738290622,0.0043340106163173,0.0013234550133347,0.0034939111210405,-0.0013124486431479
1772650981009609000,1.90360888671875,0.019800679013133,-0.0079217329099774,0.010132221166836,-9.33692790567e-05,-0.0003410424105823,0.0004101927042938
1772650981019582000,1.91358203125,0.033417116433382,-0.0074313921097666,-0.004016606097063,-0.0014744845684617,-0.0015237524639815,0.0009500154410488
1772650981029554000,1.923553955078125,0.0322165084719657,0.0012211392927914,-0.0201683524149004,0.0026027606800198,9.74116846919e-05,0.0024256161414086
1772650981039526000,1.93352587890625,0.0358089800059795,0.0075238561661913,-0.0085162099380977,-0.001269741449505,-0.0011697204317897,-0.0011102627031505
1772650981049499100,1.9434990234375,0.0289303264081478,0.0080205536419525,0.0026617300225421,-4.32804226875e-05,-0.000956063857302,-0.0008582299342378
1772650981059470800,1.953470947265625,0.038055297628045,0.00349207989946,-0.0058416204339824,-0.0004281071014702,0.0004980219528079,0.0026494194753468
1772650981069443000,1.963443115234375,0.0346148017853498,0.0158648008689284,0.0158321224420331,-0.0007428182289004,-0.0001851948909461,0.0002451406908221
1772650981079416000,1.973416015625,0.0376081383824348,0.0143465052604675,-0.006319741073437,0.0005972841754555,-0.0011974626686424,0.0008177203708328
1772650981089387800,1.9833876953125,0.0361076706916093,0.0066723173707723,-0.0178816388503648,0.0015201228670775,-0.001477951882407,0.0025543090887367
1772650981099360000,1.993360107421875,0.0328121362775564,0.0034811566466465,-0.0145879858661442,-0.0002101329155266,0.002523714210838,0.0011617423733696
1772650981109333000,2.0033330078125,0.0250257201850414,0.0218564059665426,-0.016791934784362,0.0013554841279983,-9.0601388365e-05,0.0011472884798422
1772650981119305000,2.013304931640625,0.0242787012100219,-0.0035485227944329,0.0140217942175921,-0.001122054643929,-0.0002155033871531,0.0007635270012542
1772650981129277000,2.02327685546875,0.0160486330032348,-0.0174915983531624,-0.0011329130200669,0.0010927645489573,0.0007546399720013,-0.0005912648630328
1772650981139250000,2.03325,0.0377449165046215,-0.0077502853332087,0.0137742217978462,0.0002962131984531,-0.000160688534379,0.0011658888543024
1772650981149222000,2.043221923828125,0.0274111540168523,0.000371902052313,-0.0073346628701779,-0.0015406790189445,0.001399490982294,0.0023379325866699
1772650981159194000,2.053194091796875,0.0223275671422481,-0.0140764196148142,-0.014880219411524,-0.0015457388944923,-0.0012498218566179,-0.0001526555861346
1772650981169167000,2.0631669921875,0.0289145443171262,-0.005720533071272,-0.0033843360755126,0.0015463670715689,-0.0006137257441878,-0.0010032694553956
1772650981179138800,2.073138916015625,0.0352004927188158,-0.0003430412840098,0.009702990303561,-0.0008709845133125,0.001182310283184,2.04496318474e-05
1772650981189111000,2.083111083984375,0.0257727391600608,-0.0018037980189546,-0.0082008786449208,0.0011121365241706,-0.0026017669588327,-0.0012822563294321
1772650981199084000,2.093083984375,0.034748657298088,0.0133805828377604,-0.002962694863649,-0.0010815095156431,-0.0005857541691511,-0.0002305739908479
1772650981209056000,2.103055908203125,0.0217278476834297,0.0116321682678535,-0.0017927195025142,-0.0023335760924965,0.0001874188892543,0.0007861615158617
1772650981219028000,2.113028076171875,0.0082598788231611,0.0026853300938382,0.0109501682199072,9.739305824e-06,-0.001505286199972,-0.0014953685458749
1772650981229001000,2.1230009765625,0.0392372008889913,0.0002253331884741,0.0161661127699073,-0.0011326503008604,-0.0010908604599535,0.0003769793547689
1772650981238972000,2.132971923828125,0.0375923562914133,0.0038520357856526,-0.0109242209278978,1.96993350982e-05,0.0008599050343036,-0.0011056023649871
1772650981248943900,2.14294384765625,0.0339981311917305,-0.0028282456958666,0.0053323283381294,0.000371272675693,-0.0008036699146032,0.0012928817886859
1772650981258916900,2.152916748046875,0.0308563260346651,-0.0021789880068972,0.0089426369229331,0.0012812749482691,-0.0008769067935645,0.0014167185872793
1772650981268888800,2.162888916015625,0.0283119022488594,-0.0016863091191276,0.0184378388278651,-0.0014752391725778,-0.0008705076761543,0.0020862184464931
1772650981278860800,2.17286083984375,0.0314572145372629,0.0104047088321298,-0.0030172380624804,0.0025245621800422,-0.0016460199840366,-0.000444050761871
1772650981288833800,2.182833740234375,0.0362497095108032,0.0075642612418159,-0.0048568197808694,-0.0017438647337257,0.0005987961776554,-9.89180407486e-05
1772650981298806000,2.192805908203125,0.0196370128840208,0.015227306682989,-0.0067598951895255,-0.000476200133562,-1.18664465844e-05,0.0013189488090574
1772650981308777700,2.20277783203125,0.0232242237210273,0.0131282520445063,-0.0111960601392202,0.0003442647866904,-0.0035201534628868,0.0008286237134598
1772650981318751000,2.2127509765625,0.0401379491209983,0.0198025787092745,-0.0153906074859201,-0.0005063489079475,0.0012423773296177,0.0003122367779724
1772650981328723000,2.222722900390625,0.0173901107400655,-0.0031831966133788,-0.0217444974241312,0.0004154290072619,-0.0011221326421946,0.0015337821096181
1772650981338695000,2.23269482421875,0.0404296255439519,0.003348579775542,-0.0056385812757071,-0.0003726002760231,-0.0003106673248112,-0.0020495010539889
1772650981348668000,2.24266796875,0.0229214413821697,0.0066185778895393,-0.0123453397721983,-0.001063750591129,0.0010054176673293,-0.0004488203267101
1772650981358639900,2.252639892578125,0.0399812972545623,-0.0109402770135551,-0.0078881868334021,0.00031283730641,0.0008059469982981,-0.0019188852747902
1772650981368611800,2.26261181640625,0.0435766913980245,-0.022602000169456,0.0196076771916821,-0.0032722952309995,0.0024532666429877,-0.000143636483699
1772650981378584800,2.272584716796875,0.016191840866208,-0.0127696478651836,0.0042049956754781,0.0002300278283655,-0.0003078985027968,0.0004569063312374
1772650981388557000,2.28255712890625,0.0206879832416772,0.0176143844826146,0.0008814407433383,0.0025857845321297,-0.0003803540021181,-0.0014897980727255
1772650981398528800,2.29252880859375,0.0337082083344459,-0.0099625910878181,-0.0049266062146052,-0.0012313243933022,0.0014116871170699,-0.0020727640949189
1772650981408501800,2.302501708984375,0.0377525152891874,-0.0070501377072185,0.0124062031139619,0.0010835048742592,-0.0007252048235386,-0.0020732271950691
1772650981418474000,2.312473876953125,0.0286292976349592,0.0087771076302975,-0.0095258893041405,-0.0031067128293216,0.000723554752767,-0.0006702739628963
1772650981428445700,2.32244580078125,0.0256394681692123,0.0222251296810805,-0.0142947202743031,-0.0034816083498299,0.0007284060120582,-0.0003620680945459
1772650981438419000,2.3324189453125,0.0307201324343681,0.0059623059378936,-0.0187118791294284,-0.0001321509480476,0.0025377576239407,0.0015831047203391
1772650981448391000,2.342390869140625,0.0289162978827953,0.0109683705968782,-0.0045600105250719,0.0012849122285842,-0.0012989707756787,0.0018890583887696
1772650981458363000,2.35236279296875,0.0178390235513448,0.003727057699114,0.0055179597038775,-0.0013500191271305,0.0027045593596994,-0.0009293648763559
1772650981468335900,2.3623359375,0.0242757786005735,0.0058680883157998,0.0105628768022172,-0.0011667939834296,0.0012508276849985,0.0009929105872288
1772650981478307800,2.372307861328125,0.0371375982612371,-0.0135473907720297,0.005847876644833,-0.0010181893594563,0.0004476183094084,0.0009439084678888
1772650981488279800,2.38227978515625,0.0351911403685808,-0.0056564913917332,-0.0116643352380953,-0.0001603858545422,-0.0013130779843777,0.0003300110111013
1772650981498252800,2.392252685546875,0.0304009834825992,-0.0151490172823891,-0.0023404804452322,-0.0013649337925016,-0.0005492833442986,-0.000504357391037
1772650981508225000,2.40222509765625,0.0305547127395868,0.0073086425129324,0.0054471046910621,-0.0001856717281043,-0.0015567860100418,0.0009909160435199
1772650981518196700,2.41219677734375,0.0414805959016084,0.0135571084484457,0.007473477685824,0.0008186060003936,-0.0005541059654206,4.33633103966e-05
1772650981528170000,2.422169921875,0.0311602774173021,0.0100040556093677,-0.0004004431602079,0.0011162920854985,-0.0014781006611883,-0.0023488844744861
1772650981538142000,2.432141845703125,0.0420861605793237,-0.001801825257577,0.0034792934831231,0.0006441138684749,0.0004369784146547,-0.0008593786042183
1772650981548114000,2.442114013671875,0.0218821614623069,0.0038849151419475,0.0049460872332099,-0.0019337346311658,0.001445538830012,-0.0005099126137793
1772650981558087000,2.4520869140625,0.0242740250349044,0.0028661300208419,-0.0001183656826615,-0.0006484929472208,-0.000144634861499,-0.0017192540690302
1772650981568059000,2.462058837890625,0.0375894336819648,0.0072858826918527,-0.0015581526948139,-0.0003331303596496,0.0013342602178454,0.0005765416426584
1772650981578030800,2.47203076171875,0.0350438408523798,0.0073186889829114,-0.0035642592196818,-0.0005411230958998,-0.0012157163582742,-0.0014650376979261
1772650981588003800,2.48200390625,0.0307061039090156,0.0069352791558951,0.0007245422817301,-0.0010537938214838,0.0033518401905894,-0.0002796271583065
1772650981597976000,2.49197607421875,0.0311556012421846,0.0164605748049914,0.0024228340995963,0.000359013210982,-6.76582567393e-05,0.0005092011997476
1772650981607947800,2.50194775390625,0.0112520463764667,0.0004780658405274,-0.0021100966223049,-0.0009593931026756,0.0015124320052564,-0.0011746304808184
1772650981617920800,2.511920654296875,0.0187298349112272,-0.0132169167086482,-0.0014778448670636,0.0009660725481808,-0.0010641764383763,0.0024454044178128
1772650981627892700,2.521892822265625,0.0324935718476772,0.0027436726849526,-0.0048853608887642,-0.0007685581222176,-0.0005854195915162,-0.001002567471005
1772650981637864700,2.53186474609375,0.0330921222627162,0.0122615156799554,-0.0020296243977732,-0.0013770903460681,0.000859878025949,-0.0002835140039678
1772650981647838000,2.541837890625,0.0315992533564567,-0.003217939133197,0.0016475388781633,0.0023211906664073,0.0004523410461843,-0.0010783999459818
1772650981657809700,2.5518095703125,0.0458136566698551,0.0047490211579948,0.0070178063401952,-0.0003917715512216,9.65427607297e-05,-0.0001987578580155
1772650981667782000,2.561781982421875,0.0441682275503873,0.0027228125600144,0.0194465226800646,-0.0025082032661885,0.0021514063701033,-0.0009435233077965
1772650981677755000,2.5717548828125,0.0546428598135709,-0.004466989346221,0.0094130857125855,0.000260951463133,-2.12001614272e-05,-0.0011467224685475
1772650981687726800,2.581726806640625,0.0426706824690103,0.0062032020216807,-0.0032649566126987,0.0008408105932176,-0.0016024766955524,0.0038275781553238
1772650981697698800,2.59169873046875,0.0315934081375598,0.0071391676975414,-0.007202999314526,-0.0010423106141388,-0.0015273755416274,0.0010704074520617
1772650981707671800,2.601671875,0.0344376916527748,0.0141219392569735,-0.0042197731195017,-0.0018900134600698,0.0023509627208113,-0.0025055876467376
1772650981717643800,2.611643798828125,0.0305494520425796,0.0122522729275748,-0.0275856064014602,-0.0007848017849028,0.0019839792512357,-0.0012600271729752
1772650981727615700,2.62161572265625,0.0318967749983072,-0.0212864971240982,-0.0075246964164078,0.0005883192643523,-0.0006287051364779,0.0007190907490439
1772650981737589000,2.631589111328125,0.0371323375642299,-0.0095570059616118,-0.0082637056149076,-0.0004292745143175,-4.30759973824e-05,-0.0009469827637076
1772650981747560700,2.641560791015625,0.0354810632258653,0.0126800698855891,-0.0099001477103214,0.0001477762125432,-0.0014184543397277,0.0011783228255808
1772650981757533000,2.651532958984375,0.0308399594217538,-0.0077158350743353,-0.0088196315977722,-0.001355045242235,-0.0006035270635038,-0.0019295860547572
1772650981767506000,2.661505859375,0.0461088402241468,-0.0033991043863818,0.0079709423465654,0.0009891539812088,-0.0005024317651987,-0.001711199991405
1772650981777477600,2.6714775390625,0.0335427886396646,-0.0084373908145353,0.0031951245131902,-0.0006292490288615,0.0021165208891034,-0.0018824413418769
1772650981787449900,2.681449951171875,0.0410316830903291,-0.0184304501058533,0.002207510848483,-0.0005437582731246,0.0004231808707118,-0.0007891192217357
1772650981797422800,2.6914228515625,0.0372965882152318,-0.0092484149364754,-0.00496864612489,-0.0008058133535087,-0.0005901521071791,4.23197052441e-05
1772650981807394800,2.701394775390625,0.0332499431729316,0.0014401158057153,0.0034627168076578,-0.0010870122350752,-0.0003698952496051,-0.001065905787982
1772650981817366800,2.71136669921875,0.0310053791165351,0.0132513304349035,-0.0073128620303235,-0.0020164554007351,0.0017707534134387,0.0001676703686825
1772650981827339800,2.72133984375,0.0342909766584634,0.0118978334667161,-0.0029620098770596,-0.0017802063375711,0.0006629419513046,0.0017254709964618
1772650981837311700,2.731311767578125,0.0311503405451774,0.0075133713047951,0.0190388917272444,-0.0002326434478163,-0.0012729098089039,-0.0005731031997129
1772650981847284000,2.741283935546875,0.0419260015815496,0.0189400801284238,0.0027969281089957,0.0009127440862357,0.0009540286846458,-0.0018083977047353
1772650981857257000,2.751257080078125,0.0386322207331657,0.0025039456449449,-0.0051917142910417,0.0003079399466514,-0.000321359373629,-0.0013431434053927
1772650981867228700,2.761228759765625,0.0187327575206756,-0.0100200568960979,0.011488174953591,0.0004633818753063,0.0010518035851418,-0.0015811877092346
1772650981877201000,2.771200927734375,0.032499417066574,-0.0021015023238956,0.002337804430956,0.0008207783102989,5.12539409101e-05,-0.0016280593117699
1772650981887174000,2.781173828125,0.0313023162364959,-0.0078173957526683,0.0043939515094738,0.0010111397132277,0.00131740514189,0.0017834247555583
1772650981897145900,2.791145751953125,0.0392336937576532,-0.0038840018264949,-0.0143305587726645,-0.0012333723716437,6.0647726058e-06,0.001718709943816
1772650981907117800,2.801117919921875,0.0310042100727558,-0.0031477965064346,-0.000564922140073,-4.61349263787e-05,0.0001059332862496,-7.54617503844e-05
1772650981917090800,2.8110908203125,0.0149959090799093,-0.0029909985095262,0.0097698267283849,-0.0003601219505071,-0.0020163396839052,-0.0040441043674945
1772650981927062800,2.821062744140625,0.0233820446312427,-0.0091996804239228,0.0059915046329144,-0.0005455100908875,0.0002046902664005,-0.0032791777048259
1772650981937034800,2.83103466796875,0.0353571445852518,-0.0096580551832914,-0.0047168815872166,0.0002012401819229,0.0016824784688651,0.0002694844151847
1772650981947008000,2.841008056640625,0.0298223068118095,0.0160542224938049,-0.001672919914592,-0.0008522029966115,-0.0007263654842972,-0.0010888030519708
1772650981956979700,2.850979736328125,0.0334153628677129,0.0184078729478642,-0.004181395604182,-0.0008391537703573,7.09849409759e-05,-0.0008062416454777
1772650981966952000,2.860951904296875,0.020544775378704,0.0259645719377323,-0.0110332707929424,-0.0007940917275846,-0.0013389769010245,-0.0014472391922026
1772650981976925000,2.870925048828125,0.0292237563967704,0.0004407295048236,-0.0348360159211326,-0.0020343260839581,7.09006562829e-05,-0.0001737155253067
1772650981986896600,2.880896728515625,0.0422369672268629,0.0125352180548012,-0.0157735332557465,-0.0013816996943205,0.0012216186150908,0.0005193795659579
1772650981996868900,2.890868896484375,0.0076689271926879,0.0057968497104942,-0.0064898278101813,-0.001049336977303,0.0008429172448813,0.0027401896659284
1772650982006841900,2.900841796875,0.0302571910977363,-0.0164554967710748,-0.007695632536523,-0.0010561472736299,0.0020847050473093,0.0014348266413435
1772650982016813800,2.910813720703125,0.0438701213866472,-0.0163781206859275,0.0231623831317294,-0.0009285816922783,0.0013408842496573,0.0007602479308843
1772650982026785800,2.920785888671875,0.0335451267272233,-0.0271258342694491,0.0119739309102296,0.0010449988767504,-0.0001999964006245,0.0010156399803236
1772650982036758800,2.9307587890625,0.0402758962869644,-0.0253085557144135,0.002730475276662,-0.0013065722305327,-0.0014117346145212,0.000592197291553
1772650982046730800,2.940730712890625,0.0377343951106071,-0.0169485044524073,0.0058090516049414,-0.0009783818386495,-0.0002275351434946,-0.0019587322603911
1772650982056703000,2.950702880859375,0.0316010069221258,0.011865575164929,0.0059484874750953,-0.0006758468225598,0.0014092437922954,-0.0021616651210933
1772650982066676000,2.960676025390625,0.0251677590042352,0.0136595093769952,0.0145498458128422,0.0023812977597117,-0.0024038993287831,-0.0003261313540861
1772650982076647700,2.970647705078125,0.0310036255508661,0.0368746364761143,-0.011294442479778,-0.0003159516490995,-0.0009026753250509,0.0007063761586323
1772650982086620000,2.980619873046875,0.0296563025951385,0.0354481838695704,-0.0101212796477135,0.0010248329490423,-0.0035338897723704,0.0001038147020153
1772650982096593000,2.990593017578125,0.0334007498204708,0.0215019299730658,-0.0071102521303109,-0.0017350008711218,-0.001161013264209,-0.0007310863002203
1772650982106564900,3.00056494140625,0.0501630840510129,0.022756240883097,0.0037975473857484,0.000643462408334,0.0010616667568683,-0.0008674761047586
1772650982116536800,3.010536865234375,0.0392389544546604,0.0170705964621156,0.0064273387669119,-0.0005216705612838,0.0020819236524403,0.0014848939608782
1772650982126509800,3.020509765625,0.0446177248835563,0.0014001856541261,-0.0063846869352739,0.0017717885784804,0.0003725248388946,0.0002667390508577
1772650982136481800,3.030481689453125,0.039226679494977,-0.0302274535465985,0.0116270811007823,-0.0009355805814266,0.0018535088747739,0.0006273309700191
1772650982146453800,3.040453857421875,0.0383300229161977,-0.0259319483097642,0.0053319721451029,-0.0013040089979767,-0.0009625148959457,0.0009269345900975
1772650982156427000,3.050427001953125,0.0302525149226188,-0.0300324424311518,0.0022543639312032,7.84378498792e-05,-0.0015705146361142,-0.0002259477914776
1772650982166398700,3.060398681640625,0.0338496626317501,-0.0265757626386359,0.0099892872984986,0.0006852759979665,-0.0012838032562285,-0.0019891252741217
1772650982176371000,3.070370849609375,0.0366974532783031,-0.0130977107757702,0.0089333850373979,-0.0018585755024105,0.0021223798394203,0.0013475493760779
1772650982186344000,3.080343994140625,0.0275654677957296,0.0085331793392077,-0.0070250854643527,0.0014319946058094,0.0002357903867959,0.0010393988341093
1772650982196315600,3.090315673828125,0.0372960036933422,0.0170910912608727,0.0099041571651585,-0.0028785977046936,0.000105295330286,8.67861672304e-05
1772650982206288000,3.100287841796875,0.0332552038699388,0.0352381213154643,-0.0042484512247145,-0.0010694912634789,-0.0014214846305549,2.74394406005e-05
1772650982216260900,3.1102607421875,0.0410386973530054,0.0217072432868182,-0.016346410373412,-0.001251118723303,0.0025159991346299,-0.0002460672112647
1772650982226232800,3.12023291015625,0.0298147080272436,0.020790822561644,-0.0214273303668946,0.0007735337130725,0.0011008619330823,-0.0007517175981774
1772650982236205600,3.13020556640625,0.0169400288850069,0.0204531515724957,-0.0119602494447492,0.0014494438655674,0.0005953940562903,0.0010981140658259
1772650982246178600,3.140178466796875,0.034299159964919,0.0081392846507951,0.0065666011071298,-0.0006878804415464,0.0013773017562925,5.11091202497e-05
1772650982256150500,3.150150634765625,0.0380401000589132,0.0009635478025302,-0.0115611488582566,0.0002876357175409,-0.0018443241715431,-0.0001536879572086
1772650982266122500,3.16012255859375,0.029806524720788,0.0048095922388136,-0.001642762238346,-0.0008357097394764,4.14936803281e-05,0.0015251360600814
1772650982276095700,3.170095703125,0.0191805012881755,-0.0069311875026673,-0.003385486852983,0.0021454328671097,0.001389053184539,0.003150463104248
1772650982286067500,3.1800673828125,0.0269616566836833,-0.0124784098336473,0.018270218042843,-0.000348059926182,0.0002950211055576,0.0002719996264204
1772650982296039700,3.190039794921875,0.0329483298778533,-0.0204512518763542,0.0095849077486898,5.22132031619e-05,0.0001999461092054,-0.0006755531067028
1772650982306012700,3.2000126953125,0.0426724360346794,-0.0192035168375819,0.0006991521121468,-0.0002345340326428,0.0005219769664108,0.0015276118647307
1772650982315984400,3.209984375,0.0435696771353483,-0.0107186336195096,-0.0098934805075172,3.39127145707e-05,0.0012154639698565,-1.8415157683e-06
1772650982325956600,3.21995654296875,0.0327934315770864,-0.0139809233510866,0.0164759824366774,0.0002130749635398,0.0005802041850984,0.0016911914572119
1772650982335929600,3.2299296875,0.0360866279035806,0.0063476885262876,-0.0101183022393379,0.0005749985575675,-0.0009404607117176,0.0018858686089515
1772650982345901600,3.239901611328125,0.0323462723314762,0.0040957083484157,-0.001579168083379,0.0012901374138891,-0.0006456323899328,-0.0019953558221459
1772650982355873500,3.24987353515625,0.0295037423819303,0.0353225116632878,-0.0204827703926246,0.0019351551309227,0.0002811476588249,-0.0008238314185291
1772650982365846500,3.259846435546875,0.0260591548860073,-0.0008787555959075,-0.0065669390338473,0.0028954860754311,0.0012744427658617,-0.0008148342603817
1772650982375818500,3.269818603515625,0.0203729259431362,0.024259302389808,0.0029932361323852,0.0004562968388199,-0.0006169341504573,-0.0008174974354915
1772650982385790500,3.27979052734375,0.0333937355577945,0.0206273390956223,-0.0126580955157987,-0.0012625397648662,0.0013966574333608,-0.0014564206358045
1772650982395763700,3.289763671875,0.0292032981306314,0.0075068319661542,-0.0082578238633926,0.0004490739665925,-0.0024785082787275,0.002227263757959
1772650982405735400,3.2997353515625,0.0280061973005533,-0.0210454549098387,0.0154518178875558,-0.0008870288729667,0.0017866059206426,-0.0009108050144277
1772650982415707600,3.309707763671875,0.0315945771813392,-0.02128434169963,-0.0087145820544101,-0.0022532304283231,0.0024492004886269,0.0002540616551414
1772650982425680600,3.3196806640625,0.0359340676903724,-0.0027757848562672,0.0058658141603227,0.0006501385942101,0.0002230107784271,-0.0014374889433383
1772650982435652600,3.329652587890625,0.0310007029414176,-0.0123425815595313,0.0003263824101537,-0.0011205971240997,0.0002131569199264,-0.0009986000368371
1772650982445624600,3.33962451171875,0.026658289822936,-0.0034117812048643,-0.0014379512480925,-0.0010746794287115,-0.0002620439045131,0.0011110268533229
1772650982455597600,3.34959765625,0.0336906726777553,0.0117048681778833,-0.008964446895942,0.0014902111142873,-0.0002969312481582,0.0007128842407837
1772650982465569500,3.359569580078125,0.0459580335766077,0.0158491283757612,-0.013404867895646,-0.0021159288007766,0.0002756877802312,-0.0012783764395862
1772650982475541500,3.36954150390625,0.0520949288964271,0.032195100357756,0.0105692700103856,0.0006404430605471,0.0010128505527973,-0.0012938226573169
1772650982485514800,3.3795146484375,0.040274727243185,0.0301488718850538,0.000522653900925,-0.0007498147897422,2.59182415902e-05,-0.000598051236011
1772650982495486500,3.389486572265625,0.0296469502449035,0.0121727779505774,-0.0041961182492785,0.0021282634697854,-0.0011072566267102,-0.0010401359759271
1772650982505458700,3.399458740234375,0.0383288538724184,0.0209241666177287,0.005093733809283,0.0007592374458909,-0.0014662304893136,-0.0020306522492319
1772650982515431700,3.409431640625,0.0368359849661588,0.0034596754672005,-0.0087940404987894,0.0002516387030482,-0.000414015725255,-0.0014583389274775
1772650982525403400,3.4194033203125,0.0576338583230972,-0.0152159815713763,-0.0124435759822838,-0.0007163612172007,0.0007394202984869,0.0001631623599678
1772650982535375600,3.429375732421875,0.0362409416824579,-0.02812427072227,-0.0090593860372435,0.0018860795535147,-0.0003711180761456,-0.0033791081514209
1772650982545348600,3.4393486328125,0.0323562092036008,-0.016493709889613,-0.0071483830504585,0.0010313903912901,-0.0009639079216867,-0.0014985469169914
1772650982555320600,3.449320556640625,0.0383487276166677,-0.0083058368567377,0.0041068690632469,-0.0006967349909245,-0.0023317073937505,-0.0008173103560693
1772650982565292500,3.45929248046875,0.0139589672476053,-0.0167228059377521,-0.0060714836671017,-0.0002981577999889,0.0005162949673831,-0.0006766901933588
1772650982575264500,3.469264404296875,0.0349076472520828,-0.0129516168359667,0.0120623124465812,0.0007167728617787,-0.0015689600259065,-0.0030008307658135
1772650982585237500,3.479237548828125,0.0287771816730499,0.0066287704899907,0.0060393166968598,0.0028074523434042,-0.0010834913700819,-0.0020241513848304
1772650982595209500,3.48920947265625,0.0425379960000514,0.0107309451118111,-0.0007713770981412,0.0025067818351089,-0.0003623072989284,0.002769272075966
1772650982605181400,3.499181396484375,0.0507680642068386,0.000719838707149,0.0011709708749782,-2.37757340073e-05,0.0007206294685602,0.0015517147257924
1772650982615154400,3.509154541015625,0.0328080446243286,0.0120229576837271,0.0009929930927231,0.0015661315992474,-0.0006287940777838,1.98645866475e-05
1772650982625126700,3.519126708984375,0.017989830198884,0.0233703907260671,0.0057528918377589,-0.0009454684332013,-0.0001465338282287,0.0010905571980401
1772650982635098400,3.529098388671875,0.0250187059223651,-0.0030156214941293,0.0115654505740385,-0.0029668076895177,0.0005352352745831,0.0003898795694112
1772650982645071600,3.539071533203125,0.0205266552001237,-0.0070346478771418,-0.0056695152700878,-0.0004409039393067,0.0030190190300345,-0.0040641594678163
1772650982655043600,3.549043701171875,0.0280056127786636,-0.0149943016447126,0.0004995378868188,-0.000155413057655,0.0009579984471201,-0.0022758471313863
1772650982665015600,3.559015625,0.0336883345901966,-0.0202038164539262,0.0076701145027764,0.0003716889768838,0.0003374353982508,0.002257234416902
1772650982674988500,3.568988525390625,0.0348790056794881,-0.0102906174657866,0.0059801521218381,0.0005136355757713,-0.0003834823146462,0.0016596210189163
1772650982684960500,3.57896044921875,0.0314338336616754,0.0044510611247271,-0.0069286758851725,0.001701318193227,-0.0003711995668709,1.90526479855e-05
1772650982694932500,3.588932373046875,0.0270931741088628,0.0067076444124802,-0.0173224340650253,0.0007801307365298,-0.0008537641260772,0.0015253366436809
1772650982704905500,3.598905517578125,0.0368202028751373,0.0201003926120698,-0.0186318909620866,0.0008059227839112,0.0024840482510626,0.0006662688101641
1772650982714877700,3.608877685546875,0.04026537489295,0.0164295586122199,-0.0202337001355364,-0.0004156692884862,-0.0014345266390591,-0.0022437672596424
1772650982724849400,3.618849365234375,0.0351788654088974,0.0346886342065408,-0.0186561668868176,-0.0003513917326927,-0.0002802270464599,0.0007845608051866
1772650982734822400,3.628822509765625,0.0487964718729257,0.0238000143149867,-0.0179420455344021,0.0024795485660433,-0.0004655830562114,0.0005880194948986
1772650982744794600,3.638794677734375,0.0279933378189802,0.0059671282434836,-0.0152086659146007,0.0013790656812489,-0.0022137276828289,0.0024507432244718
1772650982754766600,3.6487666015625,0.0217073894172906,0.0195441835014149,-0.0060548613258637,0.0002421620301902,-0.0014384815003722,0.0016201032558456
1772650982764739600,3.658739501953125,0.0405652346223592,0.0024379677366465,-0.0023458050743211,0.001288304105401,0.0004650237970054,-0.0008172150701284
1772650982774711600,3.668711669921875,0.0360801981627941,0.0114693058563396,0.0008590097158215,-0.0001657819375395,-0.0011917287483811,-2.89194285869e-05
1772650982784683500,3.67868359375,0.0229167652070522,-0.0095587229946628,0.0077309869776945,-0.0022063930518925,-0.001056057633832,0.0018069942016154
1772650982794656500,3.688656494140625,0.03129471745193,-0.0251921627931296,-0.007158630449837,0.0007635639049112,-0.0003002528101205,-0.0004199409740976
1772650982804628700,3.698628662109375,0.0389326649844646,-0.0208508821858093,0.0047779093257617,0.0001444821245968,-0.0002710758708417,-0.0022206262219697
1772650982814600400,3.708600341796875,0.0233686006277799,-0.0244982257122173,0.0080172383068595,0.0012973644770681,0.0027183224447071,0.0023805173113942
1772650982824573400,3.718573486328125,0.0486585247069597,-0.0127372799655422,0.0185675661547575,-0.0009336038492619,0.00040312577039,-0.0003791356575675
1772650982834545700,3.728545654296875,0.0289081145763397,0.0063440717970952,0.0091072072343435,0.000799847766757,0.0008745053783059,0.0024131888058036
1772650982844517400,3.738517333984375,0.0209720608800649,0.0031954350404441,-0.0075430905896238,-0.0003264918923377,0.0019346559420228,0.0024859614204615
1772650982854490600,3.74849072265625,0.0330880306094884,0.0181204708412289,-0.0234805822354275,0.0014865882694721,0.0010491549037396,0.0007455855957232
1772650982864462600,3.758462646484375,0.0239572141706943,0.012811733441241,-0.014515450352896,-7.9614110291e-05,-0.000465212855488,0.0030117428395897
1772650982874434600,3.7684345703125,0.0326391177982091,0.0130814172280952,0.0023482253602705,-0.0010354225523769,0.0012647765688598,-0.0017443965189158
1772650982884407600,3.778407470703125,0.0244067115038633,0.0113056397272273,-0.0133364697013981,5.97033649682e-05,-0.0009268743451684,0.00238474085927
1772650982894379500,3.788379638671875,0.0317307707816362,0.012062778237462,0.0068285765115637,-0.0001014177687466,0.0033608148805797,-0.0009109211387112
1772650982904351500,3.7983515625,0.0252934312105178,0.0158131437469273,-0.0077245207042898,0.0013516712933778,0.002142496407032,0.0004808350931853
1772650982914324500,3.808324462890625,0.0249906488716602,-0.0068241834642365,-0.0120698107664473,0.0014147884212434,-0.0027372138574719,0.0017032260075211
1772650982924296700,3.818296630859375,0.0278325942993164,-0.0058665904784575,0.013287397262128,0.0029905848205089,-0.0003486550413072,-0.0007877631578594
1772650982934268400,3.828268310546875,0.0381605115681886,-0.0365825947269797,0.0032259854423347,0.0019056126475334,-0.0015904868487268,0.0015313174808397
1772650982944241400,3.838241455078125,0.0202080907702446,-0.0035603958953171,-7.49649323523e-05,-0.0004089758731424,-0.0005473864730447,-0.0009149865363724
1772650982954213600,3.848213623046875,0.0326321035355329,-0.0131456781033426,-0.0004364277890417,-0.0004545161500573,0.0011024419218301,-0.0002302878419868
1772650982964185600,3.858185546875,0.0377180284976959,-0.0081663918534293,0.0076145940564107,-0.0004307092167437,0.0014078789390623,-0.0020672127138823
1772650982974158600,3.86815869140625,0.0302396554410457,0.0063896279718726,-0.0024143585321959,0.0018132701516151,0.0008720508776605,-0.0015044866595417
1772650982984130600,3.878130615234375,0.0401169063329696,0.0196378896668553,-0.0029034298239275,-0.0009713335894048,0.0001040771603584,-4.45257173851e-05
1772650982994102500,3.8881025390625,0.0290460617423057,0.0237295428946614,0.0064695796065963,-0.0011079537216573,0.0005307155661284,-0.0026283245533704
1772650983004075500,3.898075439453125,0.0223106160074472,0.0127166390363126,-0.001158595450595,-0.0031331202480942,0.0023905779235064,-0.001442766515538
1772650983014047700,3.9080478515625,0.0239542915612459,0.0107836251471191,0.0017036621127277,0.0008275327272713,1.6369856894e-05,0.0009301101090386
1772650983024019500,3.91801953125,0.0242570739001035,0.0297325096365064,-0.0161577011345885,0.0019068606197834,0.0003191540017724,-0.0024004310835152
1772650983033992400,3.927992431640625,0.0345844066470861,0.018399506978318,-0.0171251487941015,0.0007478529587388,0.0004658945836126,0.0008291843696497
1772650983043964700,3.937964599609375,0.024407296025753,0.0047654973687604,-0.0008335556141566,-0.0005076699890196,0.0016842349432408,-0.0011877032229676
1772650983053936400,3.947936279296875,0.0238075765669345,0.0013244900694116,-0.004350194566138,-0.0001745084300637,0.0018677269108593,0.0026243454776704
1772650983063909600,3.95790966796875,0.0363771352827548,-0.0096147274982184,0.0011589516436215,0.0001110681332647,0.0008397414349019,-1.51275889948e-05
1772650983073881600,3.967881591796875,0.0172229374796152,-0.0123068891916424,-6.34206250309e-05,0.0012495694682002,-7.26571306586e-05,0.0003617096808739
1772650983083853600,3.977853515625,0.0238110836982727,-0.0060833019690588,-0.0049977717546746,0.0006510270759463,-0.0006257896311581,0.0012851591454818
1772650983093826600,3.98782666015625,0.0326414558857679,-0.0018093509769067,-0.0027783238732255,3.1576026231e-05,-0.0006345780566334,-0.0013479081680998
1772650983103798500,3.997798583984375,0.0193289698481559,-0.0014949147328734,-0.0067678410339634,0.0001979074440896,0.004313648212701,-0.0010877281893044
1772650983113770500,4.0077705078125,0.0342909766584634,-0.0002695741889998,0.0042476018413435,0.0002604918554425,-0.0008022841066122,0.0023163242731243
1772650983123743500,4.017743408203125,0.0408726931363344,0.003971387849003,0.0080774075288791,0.000521152280271,0.0013571986928582,-0.0009583827340975
1772650983133715700,4.0277158203125,0.0333931510359048,0.01374156163726,0.0011423384355381,-0.0008559683337807,7.24899582564e-05,-0.0006569128599949
1772650983143687400,4.0376875,0.0377285498917102,0.0111156701130792,0.00431361628226,-0.0016420965548604,0.0035741627216339,0.0004107150598429
1772650983153660400,4.047660400390625,0.0251543150007724,0.0215296947628259,-0.0096016579540912,-0.0008154516108334,0.001304083969444,0.0009963442571461
1772650983163632600,4.057632568359375,0.029494974553585,0.0177806444276124,-0.0029558084651362,0.0025623026303946,0.0007878872565925,0.0002100843703374
1772650983173604600,4.0676044921875,0.0342775326550006,0.0179383922725915,-0.0088277327058371,-0.0004907450638711,-0.0007351743988692,0.0009144904324784
1772650983183577600,4.07757763671875,0.0501397031754255,0.0164444639204069,-0.0077335351278074,0.0006507709622383,-0.0001274989917874,-0.0014839537907391
1772650983193549600,4.087549560546875,0.0390659359753131,0.0034143019555136,-0.0082392561602406,-0.0004014438018202,-0.0010116684716194,0.0003778620739467
1772650983203521500,4.097521484375,0.0365232657551765,0.0007253185998648,-0.0029202439614105,-0.0010593780316412,-0.000508917029947,-0.0007369754603132
1772650983213494500,4.10749462890625,0.0306873992085456,-0.0019824790541082,-0.0052246210468001,0.003418993204832,-0.0011576630640774,-0.0021324718836694
1772650983223466800,4.117466796875,0.0419131420999765,-0.0076941346991807,-0.011628688535979,0.0001725992187857,0.0015520462766289,-0.0011003441177308
1772650983233438500,4.1274384765625,0.0419184027969837,-0.0010734379177913,-0.01003255105149,0.0011521098203957,-0.001185683067888,0.0023641618900001
1772650983243411200,4.1374111328125,0.0277080911368131,-0.0072992901626974,-0.0064564369972329,-0.0004576458595693,0.0008620233274996,0.00019101658836
1772650983253383400,4.147383544921875,0.0342909766584634,0.0187866796649992,0.001672225794848,0.0008739349432289,-0.0009015218820422,0.0013612096663564
1772650983263355100,4.157355224609375,0.0263648598343133,0.000914630626887,0.0100855598803609,0.0010896581225097,-0.0016923248767852,-9.0037821792e-05
1772650983273328400,4.167328369140625,0.029808278286457,0.0065688935289159,-0.011115615314152,0.0018579801544547,0.0003798804245889,-0.0011470464523881
1772650983283300400,4.17730029296875,0.0251712661355733,0.0122031730888411,-0.0150395290259271,-0.0023027944844216,0.0004763538017868,-0.0023730304092168
1772650983293272300,4.187272216796875,0.0244230781167745,0.0108405064335092,-0.0048898178681731,0.0006698258221149,-0.0012823978904634,0.0003481875755824
1772650983303244300,4.197244384765625,0.0332499431729316,-0.0041940541563555,-0.0106458880437072,0.0001906775869429,-0.0012508942745625,0.0016833440167829
1772650983313217300,4.20721728515625,0.0244189864635467,0.0068119085045531,0.0016241945351939,-0.0005390285514295,0.0004346203058958,-0.0006495850393548
1772650983323189200,4.217189208984375,0.0353413624942302,-0.0069309317743405,0.006699415440252,-0.0004851520061492,0.0030158758163452,-0.0002925662847701
1772650983333162200,4.227162353515625,0.038337037178874,-0.0051677214941009,0.0041208336565177,0.0004544113762676,0.0001950552687048,-0.0003058821021113
1772650983343134500,4.237134521484375,0.0378863708019256,-0.0191829855062067,-0.0005503547586034,-0.002192048355937,-0.0010746149346232,0.0020007002167403
1772650983353106200,4.247106201171875,0.0206762928038835,-0.0082011343732476,0.0123169539279304,-4.71384264528e-05,0.0015014610253274,-0.0008563390583731
1772650983363079400,4.257079345703125,0.0266617969542741,-0.0058365971989929,0.0061532710658852,-0.0010020514018833,0.0005719112232327,0.0002765139215625
1772650983373051400,4.267051513671875,0.0414770887702703,-0.0035940059039741,-0.0021509857551194,0.0023801629431545,0.0024318629875779,-0.0004417406744323
1772650983383023400,4.2770234375,0.0289104526638984,0.0191797341031953,0.0023940098639111,-0.0009048492647707,0.0007888241671025,-0.0009440321009606
1772650983392995300,4.286995361328125,0.0339981311917305,0.0080765946781262,0.0009768456755205,0.0007598930969834,0.001356610096991,0.0001776913995854
1772650983402968300,4.29696826171875,0.0450713138699531,0.0046136678079143,-0.0147618537288624,-0.0007160860113799,0.0012083277106285,-0.0004090259899385
1772650983412940300,4.306940185546875,0.0327992767959833,0.0045224823931232,-0.0119169674254488,0.0016360180452466,-0.0004881059285253,0.0007153606275096
1772650983422912300,4.316912353515625,0.0419160647094249,0.0106427919043228,0.0031979101253207,-0.0009674364700913,-4.62806783616e-05,0.0008012419566512
1772650983432885500,4.326885498046875,0.0444569813638925,0.0033314094450324,0.0057756516588386,0.0014597685076296,0.000510586425662,0.0004387856461107
1772650983442857200,4.336857177734375,0.0429553446292877,0.0010969649238511,0.0035185021155048,0.0021121897734701,-0.0011471428442746,0.0027358392253518
1772650983452829400,4.346829345703125,0.0396609792590141,-0.001672207528539,-0.00996949575264,0.0007385313510894,0.000316796824336,0.002406139858067
1772650983462802400,4.356802490234375,0.0163157595068216,-0.0035697482455521,-0.0155256503087468,0.0002217916771769,-0.0006101303733885,-0.0002219262532889
1772650983472774100,4.366774169921875,0.0353214887499809,-0.0163022424381226,-0.0070561564560513,-0.0001843404024839,-0.0012895027175545,-0.0005929046310484
1772650983482746400,4.376746337890625,0.0480441922008991,0.0005029445534572,0.0003149842333048,0.0004154783673584,0.0026437081396579,0.0007553055183961
1772650983492719400,4.38671923828125,0.0275420869201421,-0.0014251374322921,-0.0068101092731114,-0.0007826779037714,-0.0003155968151986,0.001292198896408
1772650983502691300,4.39669140625,0.0221551331847906,0.0011108473187312,-0.010136194089055,-0.0005351435393095,0.0008063940331339,0.0010863041970878
1772650983512663300,4.406663330078125,0.0423585477799177,0.0056611675668507,0.0049698517012875,-0.000875761732459,-0.0005286487285047,0.0013254560763016
1772650983522636300,4.41663623046875,0.0345750542968511,-0.0062315513333305,-0.0056428464588709,0.0006958269514143,0.0003854818642139,0.0002336868201382
1772650983532608300,4.426608154296875,0.0034498481929302,0.0135581678943708,-0.003507487531146,0.0020990464836359,9.65287908911e-05,0.0011886963620781
1772650983542580500,4.43658056640625,0.0333732772916555,-0.0043151597853749,-0.007048429807322,-0.0009589814580976,0.0014188531786203,0.0004547581193037
1772650983552553500,4.446553466796875,0.0386100089013576,0.0071008815137669,0.0067553651448804,0.001200842205435,-0.0015050312504172,0.0015916614793241
1772650983562525200,4.456525146484375,0.0333674320727586,-0.009363675346598,-0.0064559986058156,-0.0018626956734806,0.0009236936457455,0.00140303268563
1772650983572497400,4.466497314453125,0.0275315655261278,0.0017850933184847,-0.0143878053852356,-0.0002741198986768,0.0003726854920387,-0.0001280185533687
1772650983582470400,4.476470458984375,0.0436935957759618,0.009521715452522,-0.0152868091847281,0.000617875251919,0.0001063109375536,-0.0017916394863277
1772650983592442400,4.4864423828125,0.0255909528523683,0.015749942317605,-0.0051698129864875,0.0001912368461489,-0.0036335659679025,0.0001516691409051
1772650983602414300,4.496414306640625,0.023194997626543,0.0124145873498171,-0.0073049253190401,0.0004122294485569,0.0017428444698452,-8.98255384527e-05
1772650983612387300,4.50638720703125,0.02588613640666,0.0060010670457035,-0.009182610558113,0.0004300726577639,-0.0018140736501663,0.0021847803145647
1772650983622359300,4.516359375,0.0360626625061035,0.0129069374440237,-0.0026540033738128,0.0006413804367184,0.0009458591230213,-0.0021379315294325
1772650983632331300,4.526331298828125,0.0329220263928174,0.0003848345991224,-0.0103648791452404,-0.0006137671880424,0.0011581131257116,-0.0018210153793916
1772650983642304500,4.536304443359375,0.0330728330403566,-0.0188176958577707,-0.0105599450596142,0.0005736392922699,-0.0009122365154325,0.000574060017243
1772650983652276200,4.546276123046875,0.0213993463814258,-0.0082988225940614,0.0007857618165202,0.0014088070020079,0.000615619122982,-0.0004302179731894
1772650983662248400,4.55624853515625,0.0475847579956054,-0.0165106244917958,0.0064655062196776,0.0024220892228186,-0.000412244349718,0.0011002151295542
1772650983672221400,4.566221435546875,0.0505827707678079,-0.0100450086742639,0.0110285489520523,0.0002646623179316,-0.0004527242854237,-0.0021222098730504
1772650983682193200,4.576193115234375,0.0390665204972028,-0.0029862492691725,-0.0174352376565802,0.0001373477280139,-0.0005987959448248,0.0003991515841335
1772650983692165400,4.586165283203125,0.0163151749849319,0.0022619170499965,-0.0143590907474048,-0.0002554687671363,-0.0014515400398522,0.001156554557383
1772650983702138400,4.596138427734375,0.0104845691353082,0.0040605639697983,0.0067811206406448,-0.0008913264609873,0.001241760328412,-0.0023438048083335
1772650983712110300,4.6061103515625,0.0229085819005966,0.001435183902271,-0.0098960377907846,0.0002748714759945,0.0004862216301262,-1.08757521957e-05
1772650983722082300,4.616082275390625,0.0372679466426372,0.002778488270007,-0.0150636770864948,0.003036530688405,0.0010237554088234,0.0017850170843303
1772650983732055600,4.6260556640625,0.047738487252593,0.0145723864382132,-0.0143276909621432,-0.0003464831970632,2.64015980064e-05,0.0023930168244987
1772650983742027300,4.63602734375,0.0209463419169187,0.0167406703880056,-0.0081542173584457,-0.000773902516812,0.0002992232330143,5.06010255776e-05
1772650983751999500,4.64599951171875,0.0305231485575437,-0.0064325537981465,-0.0169549067937303,-0.0006817574612796,9.01650637388e-05,0.0007592681795358
1772650983761972500,4.655972412109375,0.031568858218193,-0.0078740943759679,0.0013088267093989,0.0004215580411255,-0.000600459985435,5.11244870722e-05
1772650983771944200,4.665944091796875,0.0412988095939159,0.0067496934559196,0.0004050645363982,0.0003765504807233,-0.0003445302136242,-0.0022722173016518
1772650983781916400,4.67591650390625,0.0303770180851221,-0.0200775231931358,0.0022259963532444,-0.0013061393983662,0.0001137959770858,0.0004998574731871
1772650983791889400,4.685889404296875,0.0290291106075048,-0.0083541695104911,-0.010019554572599,0.001520006917417,-0.0011552001815289,-0.0010514338500797
1772650983801861400,4.695861328125,0.0368143576562404,-0.0185194435635581,-0.0080995188959874,0.0010996088385581,0.0011375281028449,-0.0032278853468596
1772650983811833300,4.705833251953125,0.0475941103458404,-0.0192770935304462,-0.0063921395893674,0.0011099954135715,0.001090922858566,0.0009410271886736
1772650983821806300,4.715806396484375,0.0466974537670612,-0.0091575583152472,-0.0064276127615477,-0.0017379191704094,-0.0015946687199175,-0.0018976454157382
1772650983831778300,4.7257783203125,0.0294891293346881,0.0050565892698243,-0.0249890049038454,-0.0008180635049939,0.0011366694234311,-0.0009008242050185
1772650983841750300,4.735750244140625,0.0387654917240142,-0.0041631475614383,-0.0266061395105905,-0.0013722411822527,-0.0004155552014708,-0.0011183053720742
1772650983851723500,4.7457236328125,0.0398129549503326,0.0010164470335468,0.0043933578544296,-0.0004683644510805,-0.000690393615514,-0.0005856731440871
1772650983861695200,4.7556953125,0.0333761999011039,0.0085711367294192,-0.0222144530234392,0.0013418565504252,0.0004714825190603,0.0002918296377174
1772650983871667500,4.76566748046875,0.0323334128499031,0.0056172918925061,-0.0094564773297403,0.0006036283448338,-7.34003260731e-05,0.0002276474260725
1772650983881640400,4.775640380859375,0.027393033838272,0.0174301504895091,-0.0167750932474154,-0.0023695246782153,-0.0037139414343982,0.0017847977578639
1772650983891612400,4.7856123046875,0.0315793796122074,0.0304862871458753,-0.0288569141120649,0.0005508977919816,0.0004190183244645,0.0007562849787063
1772650983901584400,4.79558447265625,0.0264911165624856,0.0161740129485726,-0.0106840646296273,0.0019613932818174,0.0004275050014257,1.58814946189e-05
1772650983911556400,4.805556396484375,0.027391280272603,0.0123144514435902,-0.0143601410601753,-0.0007230727933347,-0.0011908977758139,7.23405391909e-05
1772650983921529300,4.815529296875,0.0278378549963235,-0.0030141236567869,0.0172333218763116,-0.0021887756884098,0.0020815427415072,0.0029001028742641
1772650983931501300,4.825501220703125,0.0227478383809328,0.0073688482675701,0.0052282743086107,0.0005420297384262,-0.0003440645523369,-8.7697582785e-05
1772650983941473300,4.835473388671875,0.0428004463285207,-0.0089930519359186,0.0130024611072149,0.0003895699046552,-0.0002339365892112,-0.0001888410188257
1772650983951446300,4.8454462890625,0.0306815539896488,-0.0166586911929771,-0.0089658442685846,-0.0012139193713665,-0.0016233078204095,0.0016551315784454
1772650983961418500,4.85541845703125,0.0226046305179595,0.0039291561424732,0.0116525900013744,0.0011098100803792,0.0007001045159995,0.0022202553227543
1772650983971390200,4.86539013671875,0.024250644159317,-0.0115990331832319,-0.0002503762981854,0.0015654773451387,0.0007922500371932,0.0020143929868936
1772650983981363200,4.87536328125,0.0443020830631256,-0.0123180681727826,0.0096822580427862,-0.0001133955083787,-0.0011603632010519,-0.0005033718189224
1772650983991335400,4.88533544921875,0.0181225166678428,0.0042391719397157,-0.0015036460286006,-0.0009962334297597,-0.0008916503284126,-0.0022855591960251
1772650984001307100,4.89530712890625,0.047005496802926,0.0136997317895293,-0.0111328769762068,0.0021372819319367,7.04401172697e-05,-0.0010769545333459
1772650984011280400,4.9052802734375,0.0320423209488391,0.0106973716357722,-0.0039273203784134,-0.0006798100657761,0.0002257023006677,-0.0012335483916103
1772650984021252400,4.91525244140625,0.0230640647232532,0.0022724384440109,0.0004631057334132,0.0011103274300694,-8.49799253046e-05,-0.0010756202973425
1772650984031224300,4.925224365234375,0.029946225452423,0.0088511957798153,0.0002338726879563,-0.0012766639702022,0.0025630011223256,-0.0015941376332193
1772650984041197300,4.935197265625,0.0265057296097278,-0.0093259736847132,-0.0038872075637336,-0.0002063778229057,-0.0002195411361753,-0.0002711850102059
1772650984051169300,4.945169189453125,0.0318944369107484,-0.0162726510174572,-0.001677239896683,0.0003662020899355,0.0001991079188883,0.0013101999647915
1772650984061141200,4.955141357421875,0.0362321738541126,-0.0099730394165962,0.0001943261288572,-6.57401978969e-05,0.0004878407344222,0.0015419368864968
1772650984071114200,4.9651142578125,0.0371299994766712,-0.0032198388293385,0.0009880520561244,-0.0004047607071697,-7.5073912739e-06,0.0004537693457677
1772650984081086500,4.97508642578125,0.0320393983393907,0.0012005714287981,-0.0056347362176515,-0.0014857926871627,0.0009755501523613,0.0020228773355484
1772650984091058200,4.98505810546875,0.0443126044571399,-0.0204851906785741,-0.0051508890903089,-0.0002876366488635,0.0031468253582715,-0.0019337810808792
1772650984101031400,4.995031494140625,0.0465583375573158,0.0062448492063209,-0.0069629252146463,-0.0008378629572689,-0.0017095694784075,0.0029301897156983
1772650984111003400,5.00500341796875,0.0283037189424037,0.0070976666433736,-0.0128246203222777,-0.0031414974946528,8.35368409752e-05,-0.002237940672785
1772650984120975400,5.014975341796875,0.0298024330675601,-0.0121870622042566,0.0076789553963579,0.0001055276952683,0.0016444833017885,0.0006501446478068
1772650984130948400,5.0249482421875,0.0476069698274135,8.50114023312e-05,-0.0017443959819152,0.0001047290861606,0.0003789491020143,0.0007465510861948
1772650984140920300,5.03492041015625,0.0410205771744251,0.0038650413976982,-0.0115308633178472,-0.0011272099800407,0.0012494279071688,0.0009665896650403
1772650984150892300,5.044892333984375,0.032937808483839,-0.0027564225686714,-0.0222440627104137,0.0001367265358567,0.0029075117781758,0.000582561828196
1772650984160865300,5.054865234375,0.0268003286421298,0.008456022449769,-0.0025470267348457,-0.0016831506509333,0.0010265200398862,-0.000409496598877
1772650984170837500,5.06483740234375,0.0269499662458896,0.0061985258465632,-0.0109269334747921,0.0008609672077,0.0023320019245147,0.0001265977043658
1772650984180809200,5.074809326171875,0.0348795902013778,0.0077530252795666,-0.0129846971216611,-0.0013873397838324,0.0014857370406389,-0.0012547109508886
1772650984190782200,5.0847822265625,0.026952888855338,0.009906769247353,-0.0076808550924994,0.0015149731189012,0.0004771980457007,-0.0013396658468991
1772650984200754400,5.09475439453125,0.0242594119876623,0.0178366854637861,-0.0054300713578704,-0.0002563558518886,-0.0004801386967301,0.0003599625197239
1772650984210726100,5.10472607421875,0.0317436302632093,0.005236695077084,-0.0102591628815978,0.0016861539334058,0.0009017754346132,-0.0026182504370808
1772650984220699400,5.114699462890625,0.0209697227925062,-0.0082571388768032,-0.0080912899237591,-8.20108689367e-05,-0.0015509603545069,-0.0010049171978607
1772650984230671400,5.12467138671875,0.0351882177591323,0.0156370565276592,0.0077347772368229,0.0016357279382646,-0.001561080571264,-0.0010675014927983
1772650984240643600,5.1346435546875,0.0226198280870914,0.0031492212785407,-0.0056433761818334,-0.0024435762315988,0.0013835029676556,-0.0005977598484605
1772650984250616600,5.144616455078125,0.0287561388850212,0.0055556613657623,-0.0048116745980456,-0.0023263972252607,0.0004900125786662,-0.0002217214787378
1772650984260588500,5.154588623046875,0.0543453381717205,-0.0017240838462486,-0.0035897955197375,0.000146348029375,0.0025000092573463,-0.0014218016294762
1772650984270560500,5.164560546875,0.0353419470161199,0.0018779957663267,-0.0011476721977815,0.0018505048938095,0.0001598899252712,0.0026701453607529
1772650984280533500,5.174533447265625,0.0316056830972433,-0.0001686345651745,-0.0178325846774037,-0.001179689541459,0.0004478697665035,0.0007131090387701
1772650984290505700,5.184505615234375,0.0341489378392696,-0.0063696811623871,-0.0060042453834787,-0.0001570358872413,-0.0007979569490998,0.00214961823076
1772650984300477400,5.1944775390625,0.0311556012421846,-0.0033837241541594,0.0001105385692324,0.0003848164342343,0.001574229914695,0.0007319177966564
1772650984310450400,5.204450439453125,0.0338455709785222,-0.0046086993718519,-0.0091441691107116,0.001259930897504,0.0005172211676836,-0.0001051137805916
1772650984320422700,5.214422607421875,0.0428296724230051,0.0094765246039256,-0.0029385468030814,-0.0019345805048942,-0.0004170932807028,-0.0013945598620921
1772650984330394600,5.22439453125,0.0420814844042062,-0.001989675979875,-0.0093938695554621,0.0007568099536001,-0.0004687588661909,0.0011450306046754
1772650984340366600,5.23436669921875,0.0151478847712278,0.0006452391009777,0.0010419011352118,0.0010606311261653,-0.0022943972144275,-0.0008573331288062
1772650984350339600,5.244339599609375,0.0266758254796266,-0.0084515654703602,0.0138840114484075,0.0006244056858122,0.0002076425589621,0.0007560098310932
1772650984360311600,5.2543115234375,0.0227858323037624,0.0048417044101282,-0.0037648506925441,-0.0013818072620779,0.0008717863820493,-0.001886437064968
1772650984370283500,5.264283447265625,0.0373041869997978,-0.0009424684818834,0.0140404532522894,1.07595697045e-05,-0.0006792386993765,9.01611056178e-05
1772650984380256800,5.2742568359375,0.0278752643972635,0.0043691549949347,0.0102048297453206,-0.0006853165104985,-0.001342671457678,-0.00163416180294
1772650984390228500,5.284228515625,0.0211427412718534,0.0020871815375983,-0.0039967414859682,-0.0005729310214519,-6.8298541009e-06,-6.92883622832e-05
1772650984400200700,5.29420068359375,0.011868716970086,-0.0011591799724847,0.0051131874284241,-0.001481169136241,-0.0004170341417193,-0.000222839473281
1772650984410173700,5.304173583984375,0.0277297184467315,-0.01786784778703,-0.0027462847671471,-0.0010422803461551,0.0035494775511324,-0.0012119375169277
1772650984420145400,5.3141455078125,0.0260796131521463,0.0058490548217669,-0.0062906793757341,-0.0005291947163641,-0.000250254292041,0.0012037014821544
1772650984430117600,5.32411767578125,0.0375964479446411,-0.0115497506814077,-0.007315802906081,-0.0010319994762539,0.0021929298527538,-0.0008954021031968
1772650984440089300,5.33408935546875,0.0458259316295385,0.0052273792594671,0.0042142201615497,-0.0003798231482505,-0.0013287260662764,0.0008167049963958
1772650984450062600,5.3440625,0.0384901819139718,0.0039542905837297,-0.0162180986854713,-0.0017391005530953,0.0011536064557731,-0.0015497799031436
1772650984460034600,5.35403466796875,0.0495621955484151,0.0111087654482573,-0.0046667862346395,0.0002164500765502,-4.27025370299e-05,-1.42306089401e-05
1772650984470006500,5.364006591796875,0.0443231258511543,0.002450608022511,0.0016871037035714,9.31452959775e-05,-0.0005806609988212,0.0017756798770278
1772650984479979500,5.3739794921875,0.0440226815998554,0.0020596359435468,-0.0187526129986159,-0.0007828492671251,-0.0010746049229055,-0.0007540407823398
1772650984489951500,5.383951416015625,0.0326525618016719,0.0053069107690826,-0.0152548431438859,0.0004059858620166,-0.001986205112189,-0.0002922486746683
1772650984499923500,5.39392333984375,0.0220282919347286,-0.0029938480537384,-0.017044749634806,-0.0029575710650533,-0.0001319553703069,0.0040067555382847
1772650984509895700,5.403895751953125,0.0359445890843868,-0.0099799440814182,0.005353161063604,-5.04646450281e-05,-0.0015498222783207,-0.0015701698139309
1772650984519868700,5.41386865234375,0.0473211386233568,-0.0144112410597503,0.0078078790056519,-0.0002555339597165,0.0011034356430172,-0.0011100791161879
1772650984529840400,5.42384033203125,0.0311626155048608,0.0003805237501859,-0.0040500060431659,-0.0010456936433911,-0.0016902203205972,0.0005168459028936
1772650984539812600,5.4338125,0.0326601605862379,-0.0038126170907169,-0.0015629841335583,0.0009149960242211,-0.0015336056239902,-0.000154985464178
1772650984549785600,5.44378564453125,0.0349058936864137,-0.0093584146495908,-0.0063094297419767,-0.0007129940204322,0.0018539349548518,-0.0003469993826001
1772650984559757600,5.453757568359375,0.0229343008637428,-0.0009168591165915,-0.0136902150425128,-0.0005345856770873,0.0010168449953198,-0.0006060823798179
1772650984569729500,5.4637294921875,0.0340063144981861,0.0090425901660695,-0.0025094620702788,0.0009003253653645,-0.0004662694409489,0.00085838988889
1772650984579702500,5.47370263671875,0.0519698412120342,0.009635733753629,0.0057001935361418,0.0021013584919273,-0.0004977481439709,-0.0012428468326106
1772650984589674500,5.483674560546875,0.0259305600702762,0.0104967344971373,-0.0043898689894005,0.001315725967288,0.0020700716413557,0.000294862431474
1772650984599646500,5.493646484375,0.0109673842161893,0.0112532154202461,-0.0110562498097307,-0.0007848753593862,-0.0008448283188045,0.000423869874794
1772650984609619700,5.50361962890625,0.0241390004783868,0.010706979714334,-0.0037115587358828,0.0006076912395656,-0.0026312766131013,-0.0028033487033098
1772650984619591400,5.51359130859375,0.041046880659461,0.0009051686787977,-0.0200883642475586,-4.09591011703e-05,0.0001299204304814,0.0015183594077825
1772650984629563600,5.523563720703125,0.0340115751951932,0.0051581499481573,-0.0163701931077986,0.0025929072871804,-0.0004911285359412,-0.0010276224929839
1772650984639536600,5.53353662109375,0.0383539883136749,-0.0106496965691447,-0.0013959844030439,-0.0003822431899607,0.0015321811661124,-0.001854688860476
1772650984649508400,5.54350830078125,0.0470329693317413,-0.004695720068179,0.005561451785732,-0.0006557498127222,0.0009300406090915,-0.0030336703639477
1772650984659480600,5.55348046875,0.0263859026223421,-0.0123371381994336,-0.0099831498186569,0.0014823344536125,0.000963021069765,-0.0007572853355668
1772650984669453600,5.56345361328125,0.0374620079100131,-0.0070346478771418,-0.0111907172438222,-0.0006061168387532,0.0004812553524971,-0.0004289175849407
1772650984679425500,5.573425537109375,0.0440501541286706,-0.0100846465649083,0.0157457501996774,0.0001109666191041,-0.0002645552158355,-0.0011274856515228
1772650984689397500,5.5833974609375,0.0248988789349794,-0.0166424707105383,-0.0011248758440837,-0.0024741638917475,0.0001828558743,-0.0007282778387889
1772650984699370500,5.59337060546875,0.0314870251536369,0.0004738280568271,-0.0125581970715895,-0.0002712900750339,0.0032905898988246,-0.0007402164628729
1772650984709342500,5.603342529296875,0.0271475346446037,0.018512137039937,0.0024273732773959,0.0006363149732351,0.0001086448319256,0.0013756649568676
1772650984719314700,5.613314697265625,0.0268494284808635,-0.0054364189002662,0.0065038563355337,0.0017897984944283,-0.0002711429260671,0.0006391433998942
1772650984729287700,5.62328759765625,0.0322387203037738,0.0057471653498709,-0.0077679671203717,0.0001884396187961,0.0009360676631331,-0.0007763267494738
1772650984739259400,5.63325927734375,0.0272989258140325,0.0005729410497471,0.0074866385614965,-0.0008018594235181,-0.0015440483111888,0.0005881763645447
1772650984749231600,5.643231689453125,0.0335825361281633,0.0081096566975116,-0.0009995415645185,-0.0011925450526177,0.0013497425243258,-0.0020827078260481
1772650984759204600,5.65320458984375,0.0262485399782657,0.0051483957391232,-0.0203186202063225,-0.0012187543325126,-0.0006189071573317,-0.0002800336224026
1772650984769176600,5.663176513671875,0.038965398210287,-0.0108873777825385,0.0087961776569485,-0.0004072887822985,-0.0002652392722666,-0.0009365028236061
1772650984779148500,5.6731484375,0.0262473709344863,-0.007771876110509,0.007939962686412,0.0011810651049017,-0.0002689710818231,-0.0007639787509106
1772650984789121500,5.68312158203125,0.0278980607509613,-0.0134187594236806,-0.0049931777779478,0.0001656017266213,-0.0004026619717478,-0.0011810297146439
1772650984799094800,5.6930947265625,0.0410737686663866,-0.0077599299443885,-0.0162560560756828,0.0006289868615567,-0.0014793961308896,-0.0016084745293483
1772650984809066500,5.70306640625,0.031050387302041,-0.0015281594153493,0.0146002973584458,-0.0008818241767585,0.0004841526970267,-0.0010880928020924
1772650984819039500,5.71303955078125,0.0382329922825098,0.0114698173129931,-0.0044286483635194,0.0014330530539155,-0.0007917014881968,0.0010912790894508
1772650984829011500,5.723011474609375,0.0310486337363719,0.0097577161654829,-0.0015423797369468,0.000351277180016,-0.0023051758762449,0.0028689391911029
1772650984838983400,5.7329833984375,0.0311971022963523,-0.0009706716630607,0.005657094179932,-3.54442745447e-05,0.0014251489192247,-0.002078786958009
1772650984848956700,5.742956787109375,0.0255114578753709,0.0064412120286375,-0.0101515925875864,3.16672958433e-05,0.0003851843066513,-0.0013008774258196
1772650984858928400,5.752928466796875,0.0410778603196144,0.0098867128400132,-0.0046444191392045,-0.0002315370365977,-0.0003793491050601,-0.0016254324000328
1772650984868900600,5.762900634765625,0.0280588042706251,0.0024649288088083,0.0069621762959752,0.0007069609127938,-0.0035005738027393,0.0019834171980619
1772650984878873600,5.77287353515625,0.0133884738832712,0.0020628508139401,0.00535854049162,-0.0004459205083549,0.0007859119214117,0.001555512775667
1772650984888845600,5.782845458984375,0.0421183092832565,-0.0251505886737257,-0.0067517210162244,0.0008007050491869,-0.0030540998559445,-8.17987020127e-05
1772650984898817500,5.792817626953125,0.0288040696799755,-0.0148151822181418,-0.0098330555571708,0.0013257665559649,0.0001701866276562,-0.0021012360230088
1772650984908790500,5.80279052734375,0.0353898778110742,-0.0132249538846313,0.0001890014997683,-0.0003395080566406,0.0011227992363274,-0.0009659305214881
1772650984918762500,5.812762451171875,0.0213221894919872,-0.0045041430188342,-0.0087894465220626,-0.0003117620944976,0.0002164598554372,0.0025039687752723
1772650984928734500,5.822734375,0.0285077170819044,0.0229695548402145,-0.0139703471581451,0.0014789472334086,-0.0025164759717881,4.37407870776e-05
1772650984938706700,5.832706787109375,0.0501993244081735,0.0190974261146038,-0.0188165542134549,0.0014839260838925,0.0005350369028747,0.001754596363753
1772650984948679400,5.842679443359375,0.0564817656785249,0.0263663576716557,-0.0341694600374903,0.0022250837646424,-0.000521439127624,-0.0011205523042008
1772650984958651600,5.852651611328125,0.0352308878570795,0.0386962624127045,-0.0086193963179364,0.0022969949059188,-0.0024350574240088,0.0008612024830654
1772650984968623600,5.86262353515625,0.0337327582538127,0.0109718046629801,-0.0058059919981751,-0.0007730973884463,-0.0011753821745514,0.0012905038893222
1772650984978596400,5.872596435546875,0.0445095883339643,0.0076140186676755,0.0050240113076288,-0.0022885783109813,2.68011353909e-05,0.001216675620526
1772650984988568600,5.882568603515625,0.0247545020282268,-0.0113175493607297,0.0239762111321091,-0.002410817425698,-0.0002118181437253,0.0007825804059393
1772650984998540500,5.89254052734375,0.0349310281276702,-0.0269249779351055,0.0091511103081516,-0.0001425971277058,0.0004137367941439,-0.0006208869745023
1772650985008513500,5.902513427734375,0.0290957461029291,-0.0380436071902513,0.0032627189898397,0.001538123935461,0.0001045437529683,0.0028199171647429
1772650985018485500,5.912485595703125,0.0259516028583049,-0.0413611707730218,0.0092591463930439,0.0026584859006106,-0.002692877780646,0.0027348846197128
1772650985028457700,5.922457763671875,0.0156271927207708,-0.0200975796004757,0.0209931310675572,-0.0005008224397897,0.0012398120015859,-0.0016502764774486
1772650985038430500,5.932430419921875,0.0322393048256635,0.0033278292484581,-0.0017448343733325,-0.0013098306953907,0.0010616113431751,0.0023563234135508
1772650985048402400,5.94240234375,0.0301414557635784,0.0121058136615902,-0.004134944380261,-0.0001516221091151,0.0007675983943045,0.0015355373034253
1772650985058374700,5.952374755859375,0.0325356574237346,0.0236467965146526,-0.0251977157510817,0.0028048288077116,-0.0011122957803308,0.0008632706594653
1772650985068347400,5.962347412109375,0.0308867211729288,0.0213367294739931,-0.0087257427692413,-0.0012927111238241,0.0005615008994936,-0.0008640555897727
1772650985078319600,5.972319580078125,0.0400151995241642,0.0183494572915136,-0.0077713920533191,0.0008323364891111,0.0013593239709734,-0.0001888876431621
1772650985088291600,5.98229150390625,0.0353740957200527,0.020534728908725,-0.0138905781865119,0.0003505707718431,-0.0005040897522121,0.0003980731125921
1772650985098264600,5.9922646484375,0.0275952784121036,0.008077544526197,0.0008481412619352,0.0017195856198668,-0.0007098966743797,-0.0010644820285961
1772650985108236500,6.002236572265625,0.0356792161464691,-0.0157113273402675,0.0157422887341119,-0.0001054783351719,-0.0007660894189029,0.0002513859071768
1772650985118208800,6.012208740234375,0.0337374344289302,-0.0034921894973143,-0.00614748977907,-0.0011146352626383,-0.0026816616300493,-0.0007575787603855
1772650985128181500,6.022181396484375,0.0285012873411178,-0.0082659432377666,0.0132681080397684,0.0010963208042085,0.0012563546188175,0.0016845400677993
1772650985138153500,6.032153564453125,0.0394271705031394,-0.0043001448793336,-0.0093227405480109,0.0003582392819225,-0.0012001912109553,-0.002511984668672
1772650985148125700,6.042125732421875,0.0364396791249513,0.0013254033848643,-0.0034128771834075,-0.0003014258109033,0.002144206315279,-0.0019138387870043
1772650985158098400,6.052098388671875,0.0382376684576272,-0.0126989207165315,0.0081627933905459,4.83919866383e-05,0.000264374539256,0.0011413443135097
1772650985168070700,6.062070556640625,0.0356885684967041,-0.0048781639629974,-0.0029920670886058,0.0019671991467475,0.0014143278822302,0.0010321546578779
1772650985178042600,6.072042724609375,0.0302992766737937,0.011184899424389,0.002349933260167,-0.0013604417908936,0.0001881322823464,0.0021176515147089
1772650985188015400,6.082015380859375,0.0262532161533832,0.0055641369331628,0.0027194424259942,-0.0008123633451759,-0.0017317407764494,0.0012180357007309
1772650985197987600,6.091987548828125,0.0313461553782224,0.019560513581708,-0.0130897740644868,0.0016233096830546,-0.0014408621937036,-0.0022448648232966
1772650985207959600,6.10195947265625,0.0386789824843406,0.0093429978847503,-0.0008622154530603,-0.000666475854814,0.0007154992781579,-0.000162272772286
1772650985217932500,6.1119326171875,0.0285088861256837,-0.003489303420484,0.0031408827084582,0.0016459408216178,-0.0019087989348918,-0.0021306483540683
1772650985227904500,6.121904541015625,0.054851534128189,-0.0054622839938849,0.0042239104385022,-0.0022667755838483,0.0003719320520758,-0.0017354353331029
1772650985237877200,6.131877197265625,0.0328548063755035,-0.0123909507459029,-0.0138260524497833,0.0005957926623523,-0.0009961524046957,0.000397075433284
1772650985247850000,6.14185009765625,0.0367465531170368,-0.0171730339232832,0.0091641341865062,0.0024530813097953,-7.5870193541e-06,0.0005821650847792
1772650985257822000,6.151822021484375,0.0358493120163679,-0.0277954771593213,0.0099372831166256,-0.0005579832941293,0.0012265969999134,0.0019088480621576
1772650985267794200,6.161794189453125,0.0322574250042438,-0.0290417874259874,0.0017163937301374,-0.000523894559592,0.000635108910501,-0.0025074719451367
1772650985277767000,6.171766845703125,0.0321136326193809,-0.020830350854434,0.0080430029357783,-0.0004649530164897,0.0005213553085923,-0.001760498736985
1772650985287739100,6.1817392578125,0.0279231951922178,-0.0085686890440061,-0.0003864237680099,-0.001691871555522,0.0021301708184182,0.0021242541261017
1772650985297711000,6.191711181640625,0.0404968455612659,-0.0010876125736162,-0.0076123746998608,0.0007539908401668,0.0014220606535673,-0.0019229871686547
1772650985307683800,6.201683837890625,0.0300280585169792,0.0121356608105823,-0.0169084738361183,0.0013814317062497,-0.0012408338952809,0.0020917281508445
1772650985317656000,6.211656005859375,0.0210468796819448,0.0112006449827924,-0.0068016885046381,-0.00107844453305,0.0007546474225819,0.0006470271619036
1772650985327628000,6.2216279296875,0.029573300486803,0.0070495897179469,-0.0031827582219615,-0.0006635240279138,-0.000788920558989,-0.0009657831396907
1772650985337600000,6.23160009765625,0.0327151056438684,0.0166124774310737,-0.0132853879681322,0.0024141399189829,-5.07063232362e-05,5.37127489224e-05
1772650985347573000,6.241572998046875,0.0458820457309484,0.016362009801343,-0.0105515242911409,0.0022785849869251,0.0012686233967542,4.30601066909e-05
1772650985357545200,6.251545166015625,0.0500701450705528,0.001298259649612,-0.0095514712699688,-0.0008274801075458,0.0003848057240247,0.0002748392289504
1772650985367517000,6.261516845703125,0.0168517660796642,-0.009190729932487,0.0023424714729189,-0.0004751440137624,0.0006718942895531,-0.0001272980589419
1772650985377490000,6.271489990234375,0.0427373179644346,-0.0038888606647029,0.0047506925252731,-0.0014360435307025,0.0008500483818352,-0.0005568009801208
1772650985387462100,6.281462158203125,0.0373491951853036,-0.0170189758727326,-0.0034672377191483,-0.0008711870759725,-9.7504351288e-05,0.0006975478609092
1772650985397434000,6.29143408203125,0.0454267031788825,-0.0152596015173941,0.0107923199102282,0.0001359935849905,-0.0011563056614249,0.0007144400733523
1772650985407407000,6.301406982421875,0.036449615997076,0.0001221650749444,-0.0005656619255896,0.0019384208135306,0.0012621111236512,-0.0010922484798356
1772650985417379000,6.311379150390625,0.0077197805970907,0.0005414499329403,-0.0182478144147898,-0.0002468265593051,0.0004257853142917,0.0025682665873318
1772650985427351000,6.32135107421875,0.0328577289849519,0.0039826764279976,0.0002321647880598,-0.0012915846891701,0.0011810576543211,-0.0011764040682464
1772650985437324000,6.331323974609375,0.0394406145066022,0.0109289884345605,0.0069939231411088,0.0005462514236569,7.4566341936e-06,8.32650111988e-05
1772650985447296300,6.341296142578125,0.0352490080356597,0.0019601210918277,-0.0039918917809147,-0.0012053097598254,-0.0006585998926311,-0.0016264843288809
1772650985457268000,6.35126806640625,0.0367488912045955,-0.0087542382113635,-0.0127854116898961,0.0005848556756973,0.0011997325345873,-0.0025479025207459
1772650985467241000,6.361240966796875,0.0303150587648153,0.005267893932946,-0.023315765328845,0.0027936813421547,-0.0007779307197779,0.0005621370510198
1772650985477213200,6.371213134765625,0.021492285361886,0.0087903689706698,-0.0339847419871948,0.0006401441060006,0.0007974030449986,-0.0021893458906561
1772650985487185000,6.381184814453125,0.0265817174553871,0.0068120911676436,0.0006175291101448,0.0011410843580961,-0.0011030286550521,0.0010381389874964
1772650985497158100,6.391158203125,0.0128138888657093,-0.0040333106366917,0.0069819495755247,0.0025219935923814,0.0001094895415008,-0.001535530318506
1772650985507130000,6.401130126953125,0.0289735810279846,0.0034683702303096,-0.002179609061405,0.0001714872196316,0.0012746225111186,-0.0003522878687363
1772650985517102000,6.41110205078125,0.037350364229083,-0.0063057856133207,0.0087800576392095,0.0005667204968631,0.0017633722163736,0.0007747243507765
1772650985527075000,6.421074951171875,0.0355552975058555,0.0045968993362039,-0.003654092927603,0.0003848262131214,0.0001249955967068,0.0012253313325345
1772650985537047000,6.431047119140625,0.0415396326124668,0.0052056423516944,-0.0062463653099723,-0.000195053871721,0.0004155803471803,-2.45015835389e-05
1772650985547019000,6.44101904296875,0.040938744109869,-0.0004001782987266,0.0008124488940462,-0.0008430010639131,-0.0010033517610281,0.0006388918263837
1772650985556992000,6.450991943359375,0.0482709866940975,-0.0018296265799552,-0.0054956474073696,-0.000716418493539,0.0019278586842119,0.0018266214756295
1772650985566964200,6.460964111328125,0.036596915513277,0.0005865677163004,-0.0257957455763127,0.002417323179543,-0.0027835397049784,0.0012806734303012
1772650985576936000,6.47093603515625,0.030160744985938,0.0101595018994063,-0.0135233340430073,-0.0031801359727978,0.001428862567991,-0.0001745243207551
1772650985586909000,6.480908935546875,0.0217798701316118,0.0055316229030489,0.0007850768299307,0.0002116658724844,2.45780684053e-05,-5.70789561606e-05
1772650985596881200,6.490881103515625,0.038689503878355,0.0039237127823755,0.020340822904976,0.0008092615753412,0.000960309524089,-0.0020123471040278
1772650985606853000,6.50085302734375,0.0303115516334772,0.0042923634316772,-0.0103873284390661,-0.0012064850889146,0.0014774953015148,-0.0017180677969008
1772650985616826000,6.510826171875,0.0306131649285554,-0.0085198084009811,-0.0041461964266374,-3.0230730772e-05,-0.0006465222686529,0.0017397402552887
1772650985626798000,6.520798095703125,0.0424327820599079,-0.0086240359604358,0.0019724599835928,0.0011492832563817,-0.0013189704623073,0.0001639477559365
1772650985636770000,6.53077001953125,0.0337561391294002,-0.0017188231492415,0.0183314832434058,0.0011086231097579,-0.0013018713798373,-0.0019608875736594
1772650985646743000,6.540742919921875,0.0532107811838388,-0.0167240845793858,0.0062620743357576,0.0004239245317876,0.0013650180771946,-0.0002412843168713
1772650985656715300,6.55071533203125,0.0437841966688632,-0.0107812505269423,0.0120136509992647,0.0003085061907768,0.0013203579001128,-2.48394790105e-05
1772650985666687000,6.56068701171875,0.0380997212916612,-0.0125279115311801,-0.0049778523446526,0.0002757492475211,0.0011342028155922,-0.0010693313088268
1772650985676659200,6.5706591796875,0.0413958402276039,-0.0195706331169232,-0.0149435487050097,-0.0042942753061652,0.0019862609915435,-0.0017477152869105
1772650985686632200,6.580632080078125,0.034815877315402,-0.0008801073027774,0.0027890644629485,0.00151541037485,-0.0011277731973677,0.0011111880885437
1772650985696604000,6.59060400390625,0.0267354467123746,0.0066266881307587,-0.0113581736320629,-0.000301712192595,-0.0003138743340969,-0.0020237285643815
1772650985706576100,6.600576171875,0.0280804315805435,-0.0018229045782238,-0.0159455653544049,-0.0001318026334047,-0.0011722112540155,0.0029332132544368
1772650985716549000,6.610549072265625,0.0306190101474523,0.0101148955726996,0.0077501300695817,0.0015522092580795,0.0013553472235798,0.0016830461099743
1772650985726521000,6.62052099609375,0.0352566068202257,-0.0044851460574194,0.0076398380955215,-0.0012755352072417,-0.0034583164379,0.0007224440341815
1772650985736493000,6.6304931640625,0.0270277076572179,0.0053935661392286,-0.0018269505656789,0.0013003000058233,-0.0027638387400656,-0.0004424373037181
1772650985746466000,6.640466064453125,0.0375011708766222,0.0045479821605607,-0.0002995218026917,0.0007735267281532,3.86056490242e-05,0.0010236329399049
1772650985756438000,6.65043798828125,0.0394452906817197,-0.0088896646266803,0.0245278353991918,-0.001368437660858,-6.99036754667e-05,0.0015508369542658
1772650985766410200,6.66041015625,0.0330073665887117,-0.0037019963230937,-0.0001815671119838,0.0008353278972208,-0.0012318408116698,-0.000792212144006
1772650985776383200,6.67038330078125,0.0356985053688287,-0.0022479250572621,-0.0182249267295468,0.0007981671951711,-0.00043649924919,0.0001012808061204
1772650985786355000,6.68035498046875,0.0521568882167339,-0.0226809471571818,-0.0059254901919979,-0.0011944095604121,-0.0003640609793365,0.001357227563858
1772650985796327200,6.6903271484375,0.023879472759366,0.0002258081125095,-0.0018929650065954,-0.0007395450957119,-0.0009027943015098,-0.003026729915291
1772650985806300200,6.700300048828125,0.0098199677467346,-0.0009497019402682,-0.0006829864286351,-0.0005179699510335,-0.0007083837408572,-0.0012605214724317
1772650985816272100,6.710272216796875,0.0262836112916469,-0.0113309202989563,-0.0221316244450397,-0.0006295046769082,-0.0006193509325385,0.0013999019283801
1772650985826244000,6.720244140625,0.0357119493722915,0.00795523332078,-0.0027926172600593,0.0004658536054193,-0.002618319587782,0.0008073485805653
1772650985836217000,6.730217041015625,0.0196995567262172,0.0009376461762934,-0.0011712540027685,-0.0001840908080339,0.0006344635039567,0.0003153340658172
1772650985846189000,6.74018896484375,0.0357119493722915,0.0013470306947827,-0.0131727670396678,-0.000243479385972,0.0013487231917679,0.0022458597086369
1772650985856161000,6.7501611328125,0.0265823019772768,0.0025596213549375,-0.0151772021972574,-0.0005757557228207,0.0001721619628369,-3.96777759306e-05
1772650985866134300,6.76013427734375,0.0304682034999132,-0.0011560016347095,-0.0012231668530963,0.0011241398751735,0.0001423344947397,-7.5896794442e-05
1772650985876106000,6.77010595703125,0.0473772527247667,-0.0142453829735517,0.0011622943781781,-0.0012598410248756,0.0017978954128921,-0.0029813770670443
1772650985886078200,6.780078125,0.0398971261024475,0.0031569661935791,-0.0105954182317946,0.0004110261797904,-0.0012429018970578,0.0027987477369606
1772650985896051200,6.79005126953125,0.0211918411105871,0.0105241339607164,-0.0090856255901977,0.0005021812394261,0.0012845215387642,0.0018414916703477
1772650985906023000,6.80002294921875,0.0222328745961189,-0.0015867577347904,-0.0037660014700144,0.0011767600663006,0.001223268918693,0.0012880867579951
1772650985915995100,6.8099951171875,0.0198357503265142,-0.0105472956405952,-0.0211329231307376,0.000243745278567,0.0008002072572708,-0.0019630840979516
1772650985925968100,6.819968017578125,0.0342021293312311,0.0061895388225093,-0.0169287037733942,-0.0003163176588714,0.0034900004975497,0.000824446498882
1772650985935940000,6.829940185546875,0.0274719442933797,-0.0091787472337484,-0.0148274571778252,0.0008671330288052,-0.0012708622962236,-0.0001368703669868
1772650985945912000,6.839912109375,0.0443845006495714,-0.0020750892410054,0.0072302252481691,0.0017640856094658,0.0015941662713885,-0.0016945532988756
1772650985955885000,6.849885009765625,0.0268769010096788,0.0074373103938996,-0.0014158672804478,-0.0003614882007241,0.0001141326501965,-0.001008920953609
1772650985965857000,6.85985693359375,0.033612931266427,0.0057607920164242,-0.0004398070562165,-0.0024049319326877,-0.0014158531557768,0.0013799344887956
1772650985975829200,6.869829345703125,0.0336088396131992,0.0118890656383708,0.0018406685637775,0.0016272766515612,-0.0010562234092503,-0.0001370886457152
1772650985985801000,6.879801025390625,0.0439326652288436,0.0233234097791835,7.67458974849e-05,0.0001316457055509,-0.000443163793534,-0.0009421622380614
1772650985995774000,6.88977392578125,0.0364484469532966,-0.0170043993581086,-0.0064804023947101,-0.0008513419888913,0.0019580703228712,-0.0002825231640599
1772650986005746200,6.89974609375,0.0280699101865291,-0.0135471715763211,0.0015704459208063,-0.0007400219328701,-0.001586330588907,-7.1600836236e-05
1772650986015718000,6.9097177734375,0.0297165083497762,-0.0060808177510276,0.0051385593316983,-0.0008719759061932,0.0022418121807277,-0.0002458345843479
1772650986025691100,6.919691162109375,0.0289636441558599,-0.0052182826375588,0.0208106506401207,0.0001426883973181,-0.0015923408791422,0.0010577827924862
1772650986035663000,6.9296630859375,0.0380891998976469,-0.0109324225006625,0.0014616335177794,0.001245486550033,-0.0003309501335024,0.0009771983604878
1772650986045635000,6.939635009765625,0.0368891764581203,-0.0093599124869331,-0.0077185932870022,-0.0017556294333189,0.0001255152747035,0.0018549764063209
1772650986055608000,6.949608154296875,0.0368903455018997,-0.0100130791660398,-0.0046023335631471,0.0014366679824888,0.0001175170764327,-0.0038490591105073
1772650986065580000,6.959580078125,0.0175882636606693,0.0065659343868494,0.0106819731372408,0.0021056542173027,0.0001071309670805,0.0025260157417505
1772650986075552000,6.969552001953125,0.0213268656671047,0.0018659400023519,0.0048473578327801,-0.0015336663927882,0.0007633999921381,0.0007321925950236
1772650986085525000,6.97952490234375,0.0175841720074415,-0.0047093467347323,-0.0094536003860645,-0.0024963992182165,0.0032204324379563,0.000684788392391
1772650986095497200,6.989497314453125,0.0404781408607959,-0.0027570436231791,0.0020348211626987,-0.0025933927390724,-0.0026523398701101,-0.0012603875948116
1772650986105469000,6.999468994140625,0.0268587808310985,0.0068759136514738,-0.0002360281124245,0.0001717675477266,-0.0006786712910979,0.0005817208439111
1772650986115442000,7.00944189453125,0.0373351666599512,0.022112645749934,-0.0053945159872993,0.0002629719674587,-0.001983162946999,-0.0010289190104231
1772650986125414100,7.0194140625,0.0343465062379837,0.0129300991239026,-0.003752685330715,-0.0003247875720262,8.63797031342e-05,0.0008089284528978
1772650986135386000,7.02938623046875,0.0502051696270704,-0.0059448068138211,0.0036517913726624,0.0002392716705799,-0.0017459823284298,0.0016621365211904
1772650986145359000,7.039359130859375,0.0300046776413917,-0.0080495605407282,-0.0075455474081914,0.0033338642679154,-0.0002868361771106,-0.0009911707602441
1772650986155331000,7.0493310546875,0.0382370839357376,-0.0062229661680758,-0.0134628908263519,0.0002492344938218,0.0004100631922483,-0.000147788785398
1772650986165303000,7.059302978515625,0.041380642658472,-0.0195626324735581,-0.0032626185251399,0.0013105040416121,0.0015176716260612,-0.0008532601641491
1772650986175276000,7.069276123046875,0.042132337808609,-0.0056095835100859,-0.0089784571549855,-0.0002265013754367,0.0020665517076849,-0.0017772372812032
1772650986185248300,7.079248291015625,0.0434790762424468,0.0028545126482844,-0.0059738045794423,-0.0020275970455259,0.0010609421879053,0.000969813321717
1772650986195220000,7.089219970703125,0.0318085121929645,-0.0063844403401017,0.0050827466243878,-0.0003877710551023,0.0021070512011647,-0.0011802631197497
1772650986205193000,7.09919287109375,0.0310585706084966,-0.0093660499667748,-0.0041186599657405,-0.0011704741045832,-6.60885125398e-05,0.0013766378397122
1772650986215165200,7.109165283203125,0.0285123932570219,0.0029456615304574,-0.0234978530306369,-0.0026011751033365,0.002344929613173,0.0002942347782664
1772650986225137000,7.119136962890625,0.0318032514959573,-0.003790112997964,-0.0098217578450217,-0.0018389783799648,-0.0006601815111935,0.0006755993817932
1772650986235110100,7.129110107421875,0.043767830055952,-0.0099870314093306,-0.0068798957068473,0.0018804776482284,-0.003399470122531,0.0005174977122806
1772650986245081300,7.139081298828125,0.0326940628558397,0.0178454532921314,-0.0120280631171073,0.0005393093451857,0.0008780993521213,0.0001382635091431
1772650986255053300,7.14905322265625,0.0252075064927339,0.0189988245783373,-0.0046283539203926,-0.0007762680761516,0.0013374788686633,0.0006459105061367
1772650986265026300,7.1590263671875,0.0225116915374994,0.0015182956084609,-0.0163981040280312,0.0015878197737038,0.0002168207429349,0.0002421753015369
1772650986274998500,7.16899853515625,0.0383697704046964,-0.0058675037939101,0.0031639713231008,-0.0014633936807513,4.39323484897e-05,0.0021370865870267
1772650986284970200,7.17897021484375,0.034629414832592,-0.0048241687534376,-0.0056459425982553,-0.0012846956960856,-0.0016969759017229,-0.0002807973651215
1772650986294942500,7.1889423828125,0.0205640646010637,-0.0076768182381987,-0.0075473009738605,-0.0009070886299014,0.000413766130805,0.0006996500305831
1772650986304915500,7.19891552734375,0.0220551799416542,-0.0057516588618978,-0.015100657229172,-0.0024698316119611,-0.0012120937462896,0.001178486389108
1772650986314887200,7.20888720703125,0.0175672208726406,-0.0105784944964572,-0.0018154610572848,0.0026183617301285,-6.0352962464e-05,-0.0002704277867451
1772650986324859400,7.218859375,0.0186187757521867,-0.0115509197251871,-0.0112470779404044,0.0002335007302463,-0.002536027226597,0.0020257495343685
1772650986334832400,7.228832275390625,0.0265483997076749,0.0004525295404717,0.0083544343719724,-0.0022914721630513,9.5659866929e-05,9.02355532161e-05
1772650986344804400,7.238804443359375,0.0286415725946426,-0.0046077860563993,0.0078108016151003,0.0017157862894237,0.0006117802113294,0.000732589920517
1772650986354776300,7.2487763671875,0.0317845467954874,0.0041806101528927,-0.0039109263660386,-0.0002475343644618,0.0023655528202652,-0.0009891313966363
1772650986364749300,7.258749267578125,0.0268470903933048,0.0106711046833544,0.0085104834502097,-0.0013026790693402,0.003159174695611,-0.0013475929154083
1772650986374721300,7.26872119140625,0.0362730903863906,0.0078586045458912,0.0078956668869592,0.0010449052788317,-0.0005833804607391,-0.0016222757985815
1772650986384693500,7.278693603515625,0.0572258620440959,-0.0060312795208767,0.0011307484624441,-0.0004549869336187,0.0009284960106015,-0.0018654223531484
1772650986394666500,7.28866650390625,0.0373240607440471,0.0008331263558939,-0.0080180968233849,-0.000918916426599,0.0001336531713604,0.00121615617536
1772650986404638200,7.29863818359375,0.0437538015305995,0.0009868556128814,-0.0020375976416748,0.0008033495396375,0.0005104904994368,0.0010928518604487
1772650986414610400,7.3086103515625,0.0377647902488708,0.0008698781697079,0.0010794475334696,0.001347869168967,0.0008340869098901,-0.0008033360936678
1772650986424583400,7.31858349609375,0.0341787484556436,-0.0058737508716061,-0.008457063629385,-0.0001837145537137,-0.001231194473803,-0.0013309083878993
1772650986434555400,7.328555419921875,0.0289461084991693,0.0032869857814162,-0.0040706926381681,0.0012849071063101,-0.0008280074689537,0.0003921760362572
1772650986444527400,7.33852734375,0.0341845936745405,-0.0112631157597526,0.0088229377997107,0.0005075302906334,0.0005576349794864,-0.0014395461184903
1772650986454500400,7.348500244140625,0.0276022926747798,-0.0080552230965346,0.0026091961177065,0.0005083307623863,0.0011659571900963,0.0006335297366604
1772650986464472300,7.358472412109375,0.0313426482468843,-0.0032449002053588,-0.0219398373331408,-0.0003689145669341,-0.0023006794508546,0.0004934474127367
1772650986474444300,7.3684443359375,0.0326882176369428,-0.0036462110152468,-0.011414863122208,0.0023726536892354,-0.0004346575587987,0.0013315693940967
1772650986484417500,7.37841748046875,0.0284983647316694,-0.0023053543329238,-0.0002173416782636,0.0016381535679101,0.0019848244264721,-0.0021723518148064
1772650986494389200,7.38838916015625,0.0382242244541645,-0.0023404621789231,-0.0001980981216765,0.0007932847365736,0.0024901977740228,-0.0025069620460271
1772650986504361500,7.398361572265625,0.0259621242523193,0.0131032637337222,-0.005130485623097,-0.0005830368027091,-0.0022361143492162,-0.0024883197620511
1772650986514334500,7.40833447265625,0.0338946708172559,-0.0040442704221233,0.0042033243081998,-0.0016382688190788,0.0012272708117961,0.0001717974664643
1772650986524306200,7.41830615234375,0.0346446124017238,-0.0081130176983773,-0.0056254295331891,-0.0007295981049537,-0.0013216405641287,0.0002343817614018
1772650986534278400,7.4282783203125,0.0280611423581838,-0.0016819982701912,0.007141816312354,-0.0024627316743135,0.0012801620177924,0.0004765492049045
1772650986544251400,7.43825146484375,0.0401835418283939,-0.0036686420427635,0.0046377976021729,-0.0022773756645619,0.000363768544048,-0.0002843159600161
1772650986554223400,7.448223388671875,0.0340507381618022,-0.0130036392841488,0.0048208716846536,-0.0006745317950844,-0.0016662618145346,-0.0025369862560182
1772650986564195300,7.4581953125,0.0436275448024272,-0.0050439489839598,-0.0050073798332363,0.0008778246119618,-0.0003384095616638,0.0013770614750683
1772650986574167300,7.468167236328125,0.0464724128395318,0.0068611544737592,-0.0047377508453093,-0.0026442622765898,0.0021639401093125,-0.0018513156101107
1772650986584140300,7.478140380859375,0.0386930110096931,0.0050074528984725,0.0023122681309003,0.0010138559155166,-0.001446507172659,-0.0006827205652371
1772650986594112500,7.488112548828125,0.0416851785629987,0.0008591375799849,-0.0121784496395383,-0.0010434822179377,-0.0005347938276827,0.0015258335042744
1772650986604084200,7.498084228515625,0.0364502005189657,0.0053169207064434,-0.0065617057363037,-0.0024887800682336,-0.001670632045716,-0.0019418685697019
1772650986614057200,7.50805712890625,0.0391419238209724,0.0088350483626127,-0.0067960350819863,0.0006489171646535,-0.0022127430420368,0.0024883635342121
1772650986624029400,7.518029541015625,0.0331575887143611,-0.0002781228216364,0.0072474686439149,-0.0023695093113929,-0.0009147182572633,-0.0005705434014089
1772650986634001200,7.528001220703125,0.0348053559213876,-0.0002126563699916,-0.0053961873545777,0.000818193424493,0.0012448709458112,-0.0006008998025208
1772650986643974400,7.537974365234375,0.0186404030621051,0.0153371237330138,0.0092946560978423,0.0015175393782556,-0.0009522370528429,0.0026598745025694
1772650986653946400,7.5479462890625,0.0316594591110944,0.0198605925068259,-0.0042282304205931,-0.0007546250708401,-0.0005038729868829,0.0013519264757633
1772650986663918300,7.55791845703125,0.034357027631998,0.0057907122306525,-0.0187929267426952,-0.0018372002523392,0.000794418156147,-0.002392211696133
1772650986673891300,7.567891357421875,0.0392950685560703,0.0082981284743174,-0.0079279799876734,-0.0016680918633937,-0.0015561687760055,-0.0005347076803445
1772650986683863300,7.57786328125,0.0153548055201768,-0.0037984059022739,-0.0022165070056915,0.0013245022855699,-0.0019061081111431,0.0006778295501135
1772650986693835300,7.587835205078125,0.0428916317433118,0.0059528805224224,0.0038618904593866,0.0006284727714955,0.0024722558446228,-0.0033179332967847
1772650986703808300,7.597808349609375,0.0375064315736293,-0.0056509384337812,-0.0181993995626457,-0.0006285393610596,0.0001366636715829,-0.0005274731083773
1772650986713780500,7.607780517578125,0.0337666605234146,-0.0127154334599152,-0.0115793969010002,0.0006592734716832,-0.0005523641593754,-0.0001385024515911
1772650986723752200,7.617752197265625,0.0358668476730585,0.0025467253407463,-0.0067686812841799,0.0001833667047321,-0.0010684847366064,-0.0009997687302529
1772650986733725200,7.62772509765625,0.0309288067489862,-0.0180776911454275,0.0019821867931634,-0.0004246230237185,0.0006465842016041,-0.0007559303194284
1772650986743697400,7.637697509765625,0.0339268195211887,-0.0048223055899143,-0.0148872793399728,-0.000680286437273,0.0002825302071869,-0.0015905649634078
1772650986753669400,7.64766943359375,0.0307885214954614,0.0130380530104041,0.007618521312857,-0.0009855250827968,-0.0005134672392159,0.0019675709772855
1772650986763642400,7.657642333984375,0.0324339506149291,0.0122931894598528,-0.0004980674489401,-0.0010792682878673,0.0014556739479303,-0.0007400649483315
1772650986773614300,7.6676142578125,0.0459013349533081,0.0069118252150714,-0.0012403554499149,-0.0004583485424518,0.0006933719851076,0.0017315016593784
1772650986783586300,7.67758642578125,0.0316857625961303,0.0036386122306808,-0.0046332492912188,-0.0003763232380151,-0.0011253005359321,-0.0011388533748686
1772650986793559300,7.687559326171875,0.0403664971798658,0.0025764994245022,0.0093905907529871,0.0013144030235707,-0.0011684852652251,-0.0002450002357363
1772650986803531500,7.697531494140625,0.0246539642632007,-0.0036870179496705,0.0110362116686999,0.000364719890058,-0.0011293366551399,0.0007464946829713
1772650986813503200,7.707503173828125,0.0288449862122535,-0.0090850776009261,-0.0041947665424086,0.0004401328042149,-0.0011495726648718,-0.0020154053345322
1772650986823476200,7.717476318359375,0.0278057062923908,-0.0016293182348832,-0.0010188673194963,-0.0005945051088929,-0.0025573195889592,-9.23368497751e-05
1772650986833448400,7.727448486328125,0.0360404506742954,-0.008434541270323,0.0185953492108266,-0.0019547769334167,-0.0024864985607564,-0.0004421492340043
1772650986843420200,7.737420166015625,0.030804303586483,-0.0109809012848883,0.0058085858140606,0.0012151836417615,-0.001667310250923,0.0004611950134858
1772650986853392400,7.747392333984375,0.0382844302088022,0.0114184159193187,0.0051625977944117,-0.0011857124045491,-0.0012597297318279,0.0027680844068527
1772650986863365400,7.757365478515625,0.0306476517200469,0.0126349886348471,0.0077198445291724,0.0002521285787224,-0.0003076498396694,0.0004495365428738
1772650986873337300,7.76733740234375,0.0293050049394369,0.0007154913255944,0.0008919986699707,-0.003450199496001,0.0003727287985384,-0.0002923735883086
1772650986883309300,7.777309326171875,0.0305003522038459,0.0143804805953055,-0.0073470474277157,0.0001911409199237,-0.0015066640917211,0.0014109842013567
1772650986893282300,7.7872822265625,0.0360351899772882,0.0146218150705099,-0.0190928778036497,-3.82233411073e-05,-0.0024596198927611,-0.0003156765014864
1772650986903254300,7.797254150390625,0.0376806190967559,0.0085339099915698,-0.018293105728086,-0.0020491764880716,0.0013476349413394,-0.000372401846107
1772650986913226200,7.807226318359375,0.0376776964873075,0.0060467328183352,-0.0113081970104947,-0.0012320009991526,2.27894634e-06,-0.0003734802012331
1772650986923199500,7.817199462890625,0.0310948109656572,0.0041769568910822,-0.0006220317553263,-3.19802202284e-05,0.0007548881694674,-0.0020054653286933
1772650986933171200,7.827171142578125,0.0207774150907993,-0.002904270074144,-0.003812133033527,-0.0006071664392948,5.0663948059e-06,-0.0007441121852025
1772650986943143400,7.837143310546875,0.0382832611650228,0.0036046003632247,0.0015844744461588,-0.0002002352848649,0.0009853760711848,0.0002854659105651
1772650986953116400,7.847116455078125,0.0378290876567363,-0.0092789562052115,0.0006508011920843,0.0016009281389415,0.000499649439007,0.0005040520336478
1772650986963088400,7.85708837890625,0.0330424379020929,-0.0250149430627003,-0.0037920857593417,-0.0016201650723814,0.0013569211587309,0.0002222895855084
1772650986973060400,7.867060302734375,0.047260932868719,0.00139740917515,0.0144957501385826,0.0004537790082395,-0.0003342181444168,-0.0008527186000719
1772650986983033300,7.877033447265625,0.0418757326990366,-0.0104960038447752,-0.0030365638174582,-0.0043351170606911,0.0019752751104533,0.0010354625992476
1772650986993005300,7.88700537109375,0.0405295787870883,-0.0055687035104259,-0.0131985316685866,-0.0014275352004915,-0.0009502689354121,0.0009876484982669
