time,seconds_elapsed,acc_z,acc_y,acc_x,gyro_z,gyro_y,gyro_x
1772650884716140300,0.070140380859375,0.0232020118892192,-0.0631222266063094,0.0160752744149882,0.0005028503946959,-0.0004318072460591,-0.0028451897669583
1772650884726112300,0.0801123046875,0.0516226352095603,-0.0247346648165956,0.0156924308435525,0.0029716729186475,-0.0006587710231542,-0.0010406365618109
1772650884736085500,0.09008544921875,0.0402349797546863,0.0017930939618498,-0.0031577881774865,-0.0003037485294044,-0.0015261627268046,-0.0019849934615194
1772650884746057200,0.10005712890625,0.0426157374113798,0.0033679420631378,-0.0037087639905977,-0.0005568745546042,-0.0017209022771567,-0.0009016774129122
1772650884756030200,0.1100302734375,0.0497813912570476,0.0448665850780904,-0.0053142264258582,0.0017757881432771,0.0021497360430657,0.0004895579186268
1772650884766002400,0.12000244140625,0.0339116219520568,0.0460747918240726,-0.0236379464879166,0.0014619952999055,0.0003156792372465,0.0015574903227388
1772650884775974400,0.129974365234375,0.0511158547312021,0.0713841512560844,-0.0266766383303795,0.0009285644628107,-0.0013868794776499,0.0039716460742056
1772650884785947400,0.139947509765625,0.0406423915117979,0.045205059784837,-0.0288229387772269,-0.0007222075946629,-0.0006618415936827,0.0026749623939394
1772650884795919400,0.14991943359375,0.0231453132659196,0.0238398714013397,-0.0059236087621655,0.0006264168769121,-0.0038989137392491,0.0009542940533719
1772650884805891300,0.159891357421875,0.0635007045298814,0.0199890411920845,-0.0124751218980178,0.0005883080884814,0.0010530618019402,0.0055024060420691
1772650884815864300,0.1698642578125,0.0307376680910587,-0.0295730082258582,0.0015492752686142,0.0017933882772922,-0.001618621405214,0.0028067543171346
1772650884825836500,0.17983642578125,0.0399555782914161,-0.0420124012233689,0.029379394483054,0.0021179784089326,-0.0027157650329172,0.0033944984897971
1772650884835809300,0.189809326171875,0.0070060793697834,-0.0599042509404942,0.0114544188144616,-3.91821376979e-05,-0.0019389209337532,0.0035862461663782
1772650884845781200,0.19978125,0.0236976864516735,-0.077769925036747,0.0080931256878189,-0.0005962084978818,0.0011747372336685,-0.000212432059925
1772650884855753500,0.20975341796875,0.0182891054064035,-0.0715472693959251,0.0027039891285356,-0.0009008743800222,0.0020767501555383,-0.0006268199067562
1772650884865726200,0.219726318359375,0.0271124633312225,-0.0644702436817809,0.0114726942566689,0.0007549999281764,-0.0008173699025064,0.0005335145979188
1772650884875698400,0.229698486328125,0.0268237095177173,-0.0107541981232352,0.0180124621558003,0.0008556670509278,0.0007203393615782,0.001568152802065
1772650884885670400,0.23967041015625,0.037104280513525,0.0054500638331286,-0.009952836878784,-0.0001511177979409,0.0001269239000976,-0.0003940692113246
1772650884895643100,0.24964306640625,0.0222428114682435,0.0264377241411246,-0.0141556223308667,6.48642890155e-05,0.0001237280666828,2.24491814151e-05
1772650884905615400,0.259615478515625,0.0424988330334424,0.0586397108973935,-0.0266245793495792,0.0007021944038569,0.0001738741993904,0.0001795610296539
1772650884915588400,0.26958837890625,0.0437841966688632,0.0326965470738708,-0.0087969448419287,-3.84310260415e-05,-0.0008565029129385,3.302702680230141e-07
1772650884925560300,0.279560302734375,0.030845220118761,0.022221841745451,-0.015586732846219,0.0013273102231323,-0.0003652120940387,0.0002171066007576
1772650884935532300,0.2895322265625,0.0389285733312368,0.0257775249330326,-0.0052541485353838,-0.0001374282874166,-0.0001012929715216,0.0007409503450617
1772650884945505300,0.29950537109375,0.0407470209300518,0.0181073556313291,-0.0009509897150564,-0.0004906826652586,-0.0022443067282438,0.0004744112957268
1772650884955477200,0.309477294921875,0.0417009606540203,0.0009247501621022,0.0237980872193817,0.0007112016901373,0.0011408370919525,0.0039546303451061
1772650884965449200,0.31944921875,0.0301537307232618,-0.0105170101001858,0.0155940759024582,-0.0002622092142701,9.91020351648e-05,0.0013779883738607
1772650884975422500,0.32942236328125,0.0399251831531524,-0.0154577179053798,0.0111244836071971,0.0005838773213326,0.0012333421036601,0.0031820137519389
1772650884985394200,0.339394287109375,0.0412871191561222,-0.0221965977063402,0.010888583358936,0.0004611779004335,0.0020439457148313,-0.0004968818975612
1772650884995366400,0.349366455078125,0.0192623343527317,-0.0203741132532246,0.0059546980201732,-0.0010248655453324,-0.0005547669716179,0.0001015304005704
1772650885005339400,0.35933935546875,0.0345785614281892,-0.0145083995576016,0.0075259567917324,0.0016826018691062,-0.0018436266109347,-0.0011149726342409
1772650885015311400,0.369311279296875,0.0305541282176971,-0.005577727067098,-0.0056209451543167,-0.0001744204200804,0.0017945175059139,0.0016429970273748
1772650885025284400,0.379284423828125,0.0484761538773775,0.0142487257081083,-0.0142586260476149,-0.0012635577004402,-0.0010846729855984,-0.0002593229874037
1772650885035256300,0.38925634765625,0.0304191036611795,0.0172655893112532,-0.0043812290252186,0.000854720827192,-0.0007626968435943,0.0001963438699021
1772650885045228300,0.399228271484375,0.0400450101405382,-0.005701115984749,0.0053010564170312,0.002035881858319,-3.67974862456e-05,0.0022701621055603
1772650885055201300,0.409201171875,0.0354898310542106,-0.0166521153217181,-0.0039734428087715,0.0004361211322247,-0.0001233504153788,0.0009180750348605
1772650885065173500,0.419173583984375,0.0418073436379432,-0.0080149276187643,-0.0030389932365622,0.0002161674201488,-0.0013409319799393,0.0006408204790204
1772650885075145200,0.429145263671875,0.041574703925848,-0.0122834352508187,-0.0010978599729947,0.0002497229725122,-0.0014621058944612,0.0005097929388284
1772650885085118200,0.4391181640625,0.0361684609681367,-0.0230729056168347,0.0084258556403685,-0.0002997363917529,-0.0006047557108104,0.000871701457072
1772650885095090400,0.44909033203125,0.028730419921875,-0.0315619900859892,0.012908417015057,-0.0010853689163923,-0.0010676132515072,0.00074173923349
1772650885105063400,0.4590634765625,0.0270452433139085,-0.0191652306538075,-0.0066292545471806,-0.0015252984594553,0.0020614136010408,-0.0028671256732195
1772650885115035400,0.469035400390625,0.0365443085432052,-0.0084665438437834,-0.0042456108136568,0.0005636853165924,-0.0004438222385942,0.0021369538735598
1772650885125007400,0.47900732421875,0.0398147085160017,0.0091669837307184,0.0072675707170274,9.83448699116e-05,-3.38363461196e-05,0.0022869000677019
1772650885134980400,0.48898046875,0.0457709865719079,0.0249452022947371,0.0169383575177285,-0.0017341764178127,-0.0003568781539797,0.00073720671935
1772650885144952600,0.49895263671875,0.046203532770276,0.0161744513399899,0.0002680489521939,0.0019251778721809,-0.0008156937547028,0.0019865205977112
1772650885154924500,0.508924560546875,0.0484253004729747,0.0107050434855744,-0.0043177718675695,0.0006963950581848,-0.0003405860625207,-0.0008755784365348
1772650885164897800,0.518897705078125,0.0471884521543979,0.0083651658285409,-0.0148367181965149,0.0014075320214033,-0.0017827504780143,-0.0007871664711274
1772650885174869500,0.528869384765625,0.0320329685986042,0.0223162785632535,0.0019762959084939,-5.45433722436e-05,0.0020671151578426,0.0003625202225521
1772650885184842500,0.538842529296875,0.0293225405961275,0.0022434315452352,0.0059784533550962,-0.0013508256524801,0.0002653617411851,-0.0033731057774275
1772650885194814700,0.548814697265625,0.0314145444393157,-0.0153793919721618,-0.0045955110967159,0.0001256307587027,0.0022326386533677,0.0010253710206598
1772650885204786400,0.558786376953125,0.0395066654801368,-0.0171017222527414,0.004034616677789,-0.0006323512643575,0.0006400374695658,-0.0012958012521266
1772650885214759700,0.568759765625,0.0101946462780237,-0.0232769402889534,0.0145179985030088,-0.0005820174701511,-0.001589827472344,0.0003542933845892
1772650885224731600,0.578731689453125,0.0275654677957296,-0.0096157869441434,0.0145353240971453,-0.0026393309235572,0.0021212259307503,-0.0001985545968636
1772650885234703600,0.58870361328125,0.0341641354084014,-0.0013783026158809,0.002455813920591,-0.0016611518803983,0.0004466301761567,0.0009316909126937
1772650885244676600,0.598676513671875,0.0329857392787933,0.0040307898860424,-0.0100412001488264,8.10329802334e-05,-0.0017787998076528,-0.0006350343464873
1772650885254648600,0.608648681640625,0.0454366400510072,0.01641779510919,-0.0084684709393884,0.0005635977722704,-0.0005865027196705,1.34453875944e-05
1772650885264621600,0.61862158203125,0.0327098449468612,0.0139286086419597,-0.0132179761545732,-0.0012220051139593,-0.0008959309197962,6.48053828626e-05
1772650885274593500,0.628593505859375,0.0337245749473571,0.0027346491282805,-0.0199713594049215,0.0004467316903173,0.0006622844375669,-0.0020116614177823
1772650885284565800,0.638565673828125,0.0291974529117345,0.0187830629358068,0.0047688309701625,-3.66787426173e-05,0.0002302890643477,-6.99115917086e-05
1772650885294538500,0.64853857421875,0.0390191742241382,0.0073513856761157,-0.0226359481048304,-0.0010281736031174,0.0008918181993067,0.0017772568389773
1772650885304510700,0.6585107421875,0.0253746797531843,0.0075488079443573,-0.0036798666896764,0.0009975945577025,0.0021330071613192,0.000473610649351
1772650885314482700,0.668482666015625,0.0354021527707576,-0.0139590768454596,-0.0003609970658086,0.0013248971663415,-0.0012010040227323,0.0001953102764673
1772650885324455400,0.678455322265625,0.0385614935845136,0.0008733122358098,-0.0141969681214075,0.0015217768959701,0.0008439752273261,0.0018898746930062
1772650885334427600,0.688427734375,0.0546060349345207,-0.0141909859051927,0.0067391172629781,-0.0010990398004651,-0.0006449981592595,0.0003777318052016
1772650885344400600,0.698400634765625,0.0273977100133895,-0.0112926341151818,-0.0044706517411861,0.0005639395676553,-0.0003446345217525,0.0009684465476311
1772650885354372600,0.70837255859375,0.0389279888093471,-0.0201591005293652,-0.0020168562477454,0.0014680828899145,-0.0007763330359011,0.0028891183901578
1772650885364344600,0.718344482421875,0.0325122765481472,-0.0097361253881827,0.0001056614647153,-0.0007329448126256,-0.000322803389281,-0.0009233106393367
1772650885374317600,0.728317626953125,0.0296890358209609,-0.0026771467873826,-0.0021220336552709,0.0015171598643064,0.0007299440912902,-0.0007563304388895
1772650885384289500,0.73828955078125,0.0133802905768156,0.0009814122527837,-0.0023270181754603,-0.0011027203872799,-0.0008505950681865,0.0003675071056932
1772650885394261500,0.748261474609375,0.0334106866925954,0.0057739437589421,-0.0012530322683975,0.0007817326113581,-0.0004468597471714,-0.0013883151113986
1772650885404234800,0.75823486328125,0.0428407783389091,0.0079561831688508,0.0123042223105207,0.001674111932516,0.0009041517041623,-0.0002486437442712
1772650885414206500,0.76820654296875,0.0290536605268716,0.0079936291024088,0.005090473273117,0.0015718461945652,-5.27221709489e-05,-0.0010318794520571
1772650885424179500,0.778179443359375,0.0329325477868318,-0.0108724359417334,-0.0113572694497648,0.002727682236582,-0.0027701794169843,-0.0002286349190399
1772650885434151700,0.788151611328125,0.0418909302681684,-0.0091589100221171,-0.0090496500945184,8.7690539658e-05,-0.0002095499075949,-0.0031234910711646
1772650885444123400,0.798123291015625,0.0429337173193693,-0.0151416011609137,0.0074469093393068,-2.37780623137e-05,-0.0003837700933218,0.0005517390673048
1772650885454096600,0.8080966796875,0.0463742131620645,-0.0203195517880842,0.0040574221646413,-0.0012445712927728,5.69829717278e-05,-0.0005153896054252
1772650885464068600,0.818068603515625,0.033808746099472,0.0039173926394432,0.01595183069841,-3.04798595607e-05,0.0020895064808428,-0.0006000556750223
1772650885474040600,0.82804052734375,0.0308235928088426,-0.0100861809348687,-0.0048429191196803,-0.0011149193160235,0.0009235744364559,-0.0002490510523784
1772650885484013600,0.838013671875,0.0368108505249023,0.0090284520428627,0.0035302290859166,0.0005753636360168,-0.0001624496653676,0.0026301576290279
1772650885493985500,0.847985595703125,0.0258902280598878,0.0157302512364462,-0.013996979436744,0.0006808247417211,0.000826115719974,7.27240694686e-05
1772650885503958800,0.857958740234375,0.0402490082800388,0.0017324132831767,-0.0055769324826542,0.000397840514779,-4.0874350816e-05,0.0002123952726833
1772650885513930500,0.867930419921875,0.0312625687479972,0.0050479675719514,-0.0161835844945162,-0.0013198982924222,0.0023069684393703,0.000154870969709
1772650885523902700,0.87790283203125,0.032596447700262,0.0074414751123636,-0.0073058660339564,-0.0003447746858,0.0001289192587137,-0.002816286869347
1772650885533875500,0.88787548828125,0.0381125807732343,-0.0083418945508077,-0.001987438357016,-0.0008766083046793,-0.0002425918355584,-0.0001635122462175
1772650885543847700,0.89784765625,0.026736615756154,-0.0027120354376733,0.0188699923005886,-0.0005460758693516,0.0020781480707228,0.0001688958145678
1772650885553819600,0.907819580078125,0.032117139750719,-0.0168069405572488,-0.0025169329906813,1.02585181593e-05,-0.0005876761861145,-0.0012268668506294
1772650885563792400,0.91779248046875,0.034817630881071,-0.0137828434957191,-0.0002345668077003,-0.0001820540055632,-0.0007527854759246,0.0012123268097639
1772650885573764600,0.9277646484375,0.0318400763750076,-0.0115388639612123,-0.0107509558533783,-0.0011860656086355,-0.0010947354603558,-0.0017749408725649
1772650885583737600,0.937737548828125,0.0251128139466047,-0.0005943126313388,-0.0043149588559754,0.0004657744430005,0.0011210464872419,-0.0004342616011854
1772650885593709600,0.94770947265625,0.041281858459115,-0.0002135331528261,-0.0022338599992915,0.001041283365339,0.000803065020591,0.0002451107720844
1772650885603681500,0.957681640625,0.0361976870626211,-0.0021541092939674,-0.0043994770679622,0.0019772122614085,-0.0017278578598052,0.0008286637021228
1772650885613654500,0.967654541015625,0.0388806425362825,0.0101492727663367,-0.0022830694358795,-0.0003951312974095,-0.0003382205031812,0.0017357362667098
1772650885623626500,0.97762646484375,0.0447054031670093,0.0003028554040938,-0.0111919319533742,-0.0007113013416528,-0.0004041576758027,0.0009302388643845
1772650885633598500,0.987598388671875,0.0231435597002506,0.0235260196791961,0.0116470553097315,-0.0008372687734663,-0.0001080138608813,0.0010676579549908
1772650885643571700,0.99757177734375,0.0252238731056451,-0.0006330737391486,-0.0120264739482197,0.0009642750956118,0.0018187779933214,-0.0003848581400234
1772650885653543400,1.00754345703125,0.034797172614932,-0.005247106873244,-0.0031866124131716,-0.0006243004463613,0.0004701535217463,-0.0006724795093759
1772650885663515600,1.017515625,0.0460153167217969,0.0072048168122768,0.0094516641573049,0.0007387078367173,-0.0006491690874099,0.0004028925322927
1772650885673488600,1.027488525390625,0.0246183084279298,-0.0046225087014958,0.0047408469846937,-0.0007910118438303,-0.00062653189525,0.0009248720598407
1772650885683460400,1.03746044921875,0.031197686818242,-0.002394493921101,-0.0084382310647517,-0.0013603190891444,-0.0008167182095348,0.001641396083869
1772650885693433600,1.04743359375,0.0295563493520021,-0.0104734266867861,-0.0162470690516289,-0.0007507214322686,0.000775852240622,-2.1481711883e-05
1772650885703405600,1.057405517578125,0.0198351658046245,-0.0175995157070457,0.0090725195134524,0.000531590078026,-0.0018357445951551,-0.001569588901475
1772650885713377500,1.06737744140625,0.0354103360772132,0.0126359750155359,0.0171856011439114,0.0016525145620107,0.0011328812688589,0.0009931708918884
1772650885723350500,1.0773505859375,0.0285258372604846,0.0015989596292376,0.0034368608471937,-0.0032470568548887,0.0010299864225089,0.0002933883224613
1772650885733322500,1.087322509765625,0.0612953034400939,0.0098168259415775,-0.0056545460298191,0.0004259748384356,0.0022670249454677,0.0005352033185772
1772650885743294500,1.09729443359375,0.0470762239515781,0.0123860919076949,-0.0019618929238058,-0.0023708364460617,-0.0012695509940385,0.0008655709680169
1772650885753267500,1.107267333984375,0.0229758019179105,0.0145390686905011,0.0009033877136651,6.56894408166e-05,0.0010223654098808,0.0019478797912597
1772650885763239700,1.11723974609375,0.0352419937729835,0.0132714233748614,-0.0150506349418312,0.0007963329553604,0.0010600951500236,0.0019838465377688
1772650885773212700,1.127212646484375,0.0298480257749557,0.0138332950413227,-0.0025097908638417,-0.0003970293328166,0.000241972040385,0.0010703823063522
1772650885783184600,1.1371845703125,0.0289408478021621,-0.0026668445890769,-0.0027293153660371,0.0002382658421993,-0.0023210400249809,-0.0004426533414516
1772650885793156600,1.147156494140625,0.0394230788499116,-0.0034077991494908,0.0110586974951438,-0.0029785665683448,-0.0008629595395177,-0.0008727538515813
1772650885803129600,1.157129638671875,0.0292488908380269,-0.0036948359299451,0.0056404444392304,0.002793317195028,-0.0015259531792253,-0.0005959754926152
1772650885813101600,1.1671015625,0.0361404039174318,-0.0197248007653281,-3.20391060784e-05,-0.0001627919264137,-0.0003397813998162,-0.0008140883874148
1772650885823073500,1.177073486328125,0.0306125804066658,-0.0102278178952634,-0.001851400020346,0.0005270289257168,-0.0019265001174062,0.0007793488912284
1772650885833046800,1.187046875,0.0439350033164024,-0.0100854137498885,0.0186162093357648,-0.0005073426291346,0.0001403791829943,0.0008339437190443
1772650885843018500,1.1970185546875,0.03032499563694,0.0012865326792001,0.0154947893796022,0.0001020561903715,0.0013980092480778,0.0003537841257639
1772650885852991500,1.206991455078125,0.0420019894272089,-0.006679843090102,0.0181220143443439,0.0026096887886524,-0.0008033595513552,0.0016704511363059
1772650885862963700,1.216963623046875,0.0337684140890836,0.0036890637762844,0.0034850291041657,0.001471403054893,-0.0002697734162211,0.0008408583817072
1772650885872935400,1.226935302734375,0.0351098918259143,0.0186622495677322,0.002109265505243,-0.0004047942347824,0.002096445299685,0.0003196778125129
1772650885882908700,1.23690869140625,0.0199900641053915,0.0322847514025866,-0.0116274098943453,-0.0002310625277459,-0.0004988606087863,0.0004443187499418
1772650885892880600,1.246880615234375,0.0258177473455667,0.0208818253133445,-0.0059092788427136,0.0013801497407257,0.0002654665149748,0.0007729528006166
1772650885902852600,1.2568525390625,0.0406184261143207,0.0223017751138657,0.0032687651381362,0.0006158119067549,0.002017808612436,0.0027244773227721
1772650885912825600,1.26682568359375,0.0201087220489978,0.0024182035902515,-0.0044897583004552,-0.0002116323448717,-0.000691425288096,-0.0006050065858289
1772650885922797600,1.276797607421875,0.0337257439911365,-0.0095795100543648,0.0119009752718731,-0.0005757161416113,-0.0012760027311742,-0.0014438445214182
1772650885932770600,1.2867705078125,0.0356628495335578,-0.0058249432938173,-0.0182165790263097,0.0013819732703268,-0.0003185966052114,0.001953816274181
1772650885942742500,1.296742431640625,0.0438923332184553,-0.0116026499124243,-0.0033266145389061,0.000831498298794,-0.0007694254163652,0.0024781320244073
1772650885952714800,1.30671484375,0.0341734877586364,-0.015257482625544,0.0095992650676053,-0.000444155652076,-0.0005830042064189,-0.0011064826976507
1772650885962687500,1.3166875,0.0244651636928319,-0.0046037309357896,0.0132089891305193,-0.0001298272982239,-0.0027318159118294,0.0004144997219555
1772650885972659700,1.32665966796875,0.036294717696309,-0.0064419061483815,0.0073841097687836,0.0004917541518807,7.48895108699e-05,0.0005375377950258
1772650885982631700,1.336631591796875,0.03884790931046,-0.0087976024290546,0.0051887277495115,0.0023362110368907,-0.0006906909402459,-0.0006585028022527
1772650885992604400,1.3466044921875,0.0384042571961879,0.0061289677416905,0.020730525475461,-0.0010571889579296,0.0018068216741085,-0.0004313351528253
1772650886002576600,1.35657666015625,0.0437830276250839,0.015036350688152,0.0023936628040391,0.0027172132395207,-0.001501842867583,9.62617341428e-05
1772650886012549600,1.366549560546875,0.0322638547450304,0.0173383805528283,-0.0053394978644326,0.0003533912822604,-0.0014176871627569,-0.0009229300194419
1772650886022521600,1.376521484375,0.0398883582741022,0.0044117154950276,-0.0023186522059142,-0.0012757056392729,0.0005872375331819,0.0005119134439155
1772650886032493600,1.38649365234375,0.0265618437111377,0.0031846944507211,-0.0192086131378076,0.0021959911100566,-0.0038956613279879,-0.0012279297225177
1772650886042466600,1.396466552734375,0.0332937823146581,-0.0033735680863261,-0.0071460175634361,-0.0022819200530648,-6.14458695054e-05,-0.0022250120528042
1772650886052438500,1.4064384765625,0.0397270302325487,-0.0008294730940833,0.0160960523415356,-0.0018062794115394,0.0002109953202307,-0.0016740040155127
1772650886062410500,1.416410400390625,0.0353811099827289,-0.0103652536045759,0.0145683313176035,-0.0007566297426819,-0.000406748149544,0.0022398077417165
1772650886072383700,1.4263837890625,0.0269967279970645,-0.0090176018552854,-0.0168505605032667,-0.0007310630753636,0.0015938184224069,-0.0015605231747031
1772650886082355500,1.43635546875,0.0467523988246917,-0.0168107399495318,0.0050101745785214,0.0008472213521599,7.3262490332e-06,0.0002472054911777
1772650886092328400,1.446328369140625,0.0317985753208398,-0.0214457062738016,0.0026342483605723,-0.0006553339771926,-0.0006267721764743,-0.0009682612144388
1772650886102300700,1.45630078125,0.0328466230690479,-0.0133297659659758,-0.0045739659851882,0.00056938175112,-0.0018317904323339,0.0008741187048144
1772650886112272400,1.4662724609375,0.053051791229844,0.002203172600083,-0.0024078831256367,0.0016969642601907,-0.0004248423501849,0.0002325632376596
1772650886122245600,1.47624560546875,0.0318044205397367,-0.0022900836985558,0.000967292395886,-7.33160413801e-05,0.001093600410968,-0.001752343494445
1772650886132217600,1.486217529296875,0.0231178407371044,0.0004732070023193,0.0112068555278703,-0.0009929053485393,0.0009465939365327,0.0020905979909002
1772650886142189000,1.49618896484375,0.0364274041652679,0.0125004390023648,-0.0086411332257092,0.0009271162562072,-0.0026238767895847,0.0013782498426735
1772650886152162000,1.506162109375,0.0340291108518838,-0.0040205607529729,-0.0059903629885986,-0.0006758403033018,0.0018835235387086,0.0008147251210175
1772650886162134300,1.51613427734375,0.0320727160871028,0.0215145337263122,-0.0010017426547594,-0.0025877957232296,0.0013578776270151,0.0005609309882856
1772650886172106000,1.52610595703125,0.0277191970527172,0.0147136580724269,-0.0123184882978908,0.0007709828205406,0.0009677247144281,0.0006568048265762
1772650886182079000,1.536078857421875,0.0342968218773603,-0.0091671298611909,-0.010201350013446,0.0016694120131433,-0.0004002000205218,0.0013510806020349
1772650886192051200,1.54605126953125,0.0286111774563789,0.0011427037617191,0.010306710084062,-3.55439260601e-05,0.0005534780211746,-0.0005235184216871
1772650886202024000,1.55602392578125,0.0251648363947868,0.007228124622628,0.0052585507158655,-0.0012461673468351,-0.0003720489330589,0.0013718686532229
1772650886211996200,1.56599609375,0.0414735816389322,0.0147129274200648,-0.0002128846988547,-0.0009604101069271,-0.0012506258208304,-0.0001898090704344
1772650886221968100,1.575968017578125,0.0311520941108465,0.0052599663548171,0.0134351351697463,-0.0007947226986289,-0.0007540662772953,0.0019496714230626
1772650886231940900,1.58594091796875,0.0259112708479166,0.0046887423381209,0.0102879597178194,0.0001312582753598,-0.002603098982945,0.0003744116984307
1772650886241913000,1.5959130859375,0.0381850614875555,0.0057976168954744,0.0031616697681602,-0.0001597763039171,-0.0001533441245555,0.0006420470308512
1772650886251885000,1.605885009765625,0.0446229855805635,0.0179855924151837,0.0166716420060955,0.0006447648629546,0.0013848980888724,0.001864171703346
1772650886261858000,1.615858154296875,0.029202129086852,0.0081665379839017,0.0014682276553474,0.0024387883022427,-0.0004733297973871,0.0037057602312415
1772650886271830000,1.625830078125,0.0348842663764953,0.0013830883888527,0.0078421831340529,-0.0010214569047093,-0.000848036725074,0.0001344609772786
1772650886281803000,1.635802978515625,0.0401239205956459,0.0174947036257013,0.0119411063528619,0.0009237406775355,-0.0006993119604885,0.0010707627516239
1772650886291775000,1.64577490234375,0.0389291578531265,0.0153643405335024,0.0017042283683083,0.0010281363502144,-0.0018788259476423,-0.0004331243399064
1772650886301747200,1.655747314453125,0.0402735581994056,-0.0012825871564447,-0.003006351342285,0.00136453891173,0.0004582963883876,0.0006927549839019
1772650886311720200,1.66572021484375,0.0302478387475013,-0.0024965660560876,-0.0038120051693636,-0.0028195534832775,-0.0018043254967778,-0.0004976780619472
1772650886321692000,1.67569189453125,0.0323456878095865,0.0072915817802771,-0.0145499097449239,0.0009099477902054,-0.0034537189640104,0.0001474655000492
1772650886331664100,1.6856640625,0.0329483298778533,-0.0102257720686495,0.0079489040446933,0.0009411065839231,-0.0006467471830546,1.25792576e-06
1772650886341637000,1.69563720703125,0.0447778838813304,0.0058602703355252,0.0024550010698381,-0.0016040024347603,3.09813767671e-05,-0.003883943427354
1772650886351609000,1.705609130859375,0.0395458284467458,0.0060962345158681,0.0050480315040331,0.0013984451070427,0.0023205010220408,-0.0022490289993584
1772650886361582000,1.71558203125,0.0404494992882013,0.0061546501722186,0.0185258459048811,0.0006635240279138,-0.000219892244786,-0.0030920805875211
1772650886371554000,1.725553955078125,0.0362707522988319,0.0052433440135791,-0.0128351325831376,0.0011769812554121,0.0001225904561579,-1.95917091332e-05
1772650886381526000,1.735526123046875,0.0302840791046619,-0.0094039708243682,-0.0157172456244006,0.0029761004261672,-0.001982225337997,-0.0001954747131094
1772650886391499000,1.7454990234375,0.0443459222048521,0.0088651147073134,0.0155003423375543,-0.0012130516115576,0.0004026354290544,0.0004572660545818
1772650886401471200,1.75547119140625,0.0404641123354434,0.0138859020113945,0.0075593841372989,0.0011983206495642,-0.0003945012576878,-0.0005638735019601
1772650886411443000,1.76544287109375,0.0383650942295789,0.0117691655857488,0.0006800820854958,0.0002233376726508,0.0004257522523403,-0.000152681430336
1772650886421416000,1.775416015625,0.023996961659193,-0.0049112625150009,0.0079602839552331,0.0021760812960565,-0.001132225152105,0.0013256384991109
1772650886431388200,1.78538818359375,0.0464390950918197,-0.0045287660034373,-0.0043740503657609,0.0010618148371577,0.0009349202737212,0.0014769060071557
1772650886441361200,1.795361083984375,0.0145651164472103,0.0091960271621122,0.0095190759708639,0.0002799802459776,-0.0017016886267811,0.0004209591425023
1772650886451333000,1.8053330078125,0.0371627327024936,0.0065029521532356,0.024342678957479,0.0004839785397052,0.0001630568876862,-0.0017583055887371
1772650886461305000,1.81530517578125,0.0373123703062534,0.0100032153591513,0.0208826746967155,0.0008675721473991,-0.0012674841564148,-8.84730834513e-05
1772650886471278000,1.825278076171875,0.033124270966649,-0.0011727701064199,0.010308792443294,0.0017101964913308,0.0010249647311866,-0.0023361810017377
1772650886481250000,1.83525,0.0310363587766885,0.0045355610704049,-0.0086569975151214,-0.0009164335206151,0.000133104622364,-0.001977494219318
1772650886491222000,1.845221923828125,0.0252057529270648,-0.009855112125352,0.0117784814033657,0.0015927967615425,0.0003088731318712,0.0002427831641398
1772650886501195300,1.8551953125,0.0419616574168205,0.0063600365512073,0.0070450140075292,3.06088477373e-05,0.0002327230758965,0.00087446346879
1772650886511167000,1.8651669921875,0.0448041873663663,-0.0013766951806843,-0.0103962423978839,0.0017097317613661,0.00096589140594,-0.001107194693759
1772650886521139200,1.87513916015625,0.0281973359584808,-0.0059661783954128,0.0004886055008508,0.0016162493266165,-0.0029325031209737,-0.000105595216155
1772650886531112200,1.8851123046875,0.0240033913999795,-0.0010136705545708,0.0096497622789815,-0.0012189522385597,0.0015179053880274,-0.000881906657014
1772650886541084200,1.895084228515625,0.0316366627573967,0.000949957668595,-0.0011366210808046,0.0008448944427073,0.0011254693381488,5.9852027334e-06
1772650886551057200,1.90505712890625,0.0217617499530315,0.0029671061772853,-0.0021479809472803,-0.000390279572457,0.0002793832682073,-4.19516582041e-05
1772650886561029000,1.915029052734375,0.0289490311086177,0.0078156787196174,-0.008431746525038,0.0001974771730601,-0.0030099640134721,-0.0009072601678781
1772650886571001000,1.9250009765625,0.0311912570774555,0.0086281641462817,0.0018710363025777,0.0002225106582045,-0.0006336253136396,-0.0011456131469458
1772650886580974000,1.93497412109375,0.0246107096433639,-0.0003390226960182,0.0063058221459388,-0.0018284807447344,0.0013709040358662,-0.0020107992459088
1772650886590946300,1.9449462890625,0.0265583365797996,3.86880425736e-05,-0.0037461368589196,0.0007894067093729,0.0003794091753661,0.0009924476034939
1772650886600918000,1.95491796875,0.0311941796869039,0.0143410619003698,-0.0008904095010831,-0.0009014406241476,-0.0005465829744935,-0.000111500150524
1772650886610891000,1.96489111328125,0.0222182615488767,-0.0107120942808687,0.0130449028762988,-0.0012380643747746,-0.0015170387923717,0.0010544317774474
1772650886620863200,1.97486328125,0.027605799806118,-0.0039982027906924,-0.0055164344670716,-0.0025261188857257,-0.0006468007341027,-0.0015149163082242
1772650886630836000,1.9848359375,0.0334410818308591,0.0031513036377727,-0.0050392271430697,0.0019077779725193,0.0023500542156398,0.0007490368443541
1772650886640808200,1.99480810546875,0.0436193614959716,0.008029723329097,0.0084923267390113,-0.0012610310222953,-0.0002731140702962,-0.001110563869588
1772650886650780200,2.0047802734375,0.0298573781251907,0.0044589156376197,0.0073600713060703,0.0006039808504283,-3.0696392059e-06,0.0014085201546549
1772650886660753000,2.0147529296875,0.0461667078912258,0.0055507294623181,-0.0068606978160329,-0.000823404174298,-0.0012574235443025,0.0010275824461132
1772650886670725000,2.02472509765625,0.0415308647841215,0.0075786916259676,-0.0117599593659862,-0.0008044955320656,-0.0004283813759684,0.0004147890140302
1772650886680697000,2.034697021484375,0.0422825599342584,0.0066804276119917,0.0022203063979744,-4.71700914204e-05,0.002006028778851,-0.0016900851624086
1772650886690670000,2.044670166015625,0.0265671044081449,0.0061008010931313,-0.0019954390003811,-0.0001872521825134,-0.0010374318808317,-0.0018139221938326
1772650886700642000,2.05464208984375,0.0291091901063919,0.0038017303705215,0.0135019624614156,0.0007977122440934,0.0018726084381341,0.0030009234324097
1772650886710615000,2.064614990234375,0.0389794267356395,-0.0069219447502866,-0.0041374651309102,0.0040702042169868,-0.0011926896404474,0.0026850728318095
1772650886720587000,2.0745869140625,0.0383878905832767,-0.0111429234461858,-0.0001445321703795,0.0001654643565416,-0.0017317838501185,0.0004349423106759
1772650886730559200,2.084559326171875,0.0331529125392437,-0.0074080477667972,-0.0013524101227987,0.0009771957993507,-0.000820982735604,0.0018086008494719
1772650886740532200,2.0945322265625,0.0298655614316463,0.0027010025870054,0.0078154229912906,0.0007984330877661,4.91067767143e-05,0.001076471293345
1772650886750504000,2.10450390625,0.0285240836948156,-0.0041455388395115,0.0257171913142316,-0.001012516207993,0.0001977109350264,-0.0011286260560154
1772650886760476200,2.11447607421875,0.029123803153634,0.005526106477715,-0.0064791237530764,-0.0012526623904705,0.0002090497873723,0.0007310156943276
1772650886770449200,2.12444921875,0.0413946711838245,-0.0130475514911115,0.0063865957645699,0.000599299557507,0.0010202485136687,-0.0006096195429563
1772650886780421000,2.134421142578125,0.037652562046051,0.0057139572000131,0.0144903524442575,-0.0008355351164937,0.0023848484270274,-0.000401911442168
1772650886790393000,2.14439306640625,0.0403401936948299,0.0135354811385273,0.0113330757234245,0.0005455804057419,-0.0018620947375893,0.0015856055542826
1772650886800366000,2.154365966796875,0.0327075068593025,0.002518193366006,-0.0055196950032375,-0.0003730044700205,0.0001970804296433,0.0003415216924622
1772650886810338000,2.164338134765625,0.0383919822365045,0.00526164685525,-0.0088074845022521,-0.0017868769355118,-0.0012325043790042,0.0008248854428529
1772650886820311000,2.17431103515625,0.0346481195330619,0.0155074022660031,-0.0109767913653515,0.0036816941574215,0.0014598332345485,-0.0011962605640292
1772650886830283300,2.184283203125,0.0368862538486719,0.0082652491180226,-0.0137487037640996,-8.05528834462e-05,0.0010529020801186,0.0008628956857137
1772650886840255000,2.1942548828125,0.0364361719936132,0.0047251288257539,-0.0152188311155885,0.0010419976897537,-5.31957484781e-05,0.0003872055094689
1772650886850228000,2.20422802734375,0.0425625459194183,-0.00180080234427,-0.0044307124564424,-0.0012658978812396,-0.00033575668931,0.0019219852983951
1772650886860200200,2.2142001953125,0.037175007662177,0.0010543678911402,0.0070597731852438,0.0007549435831606,0.000662941019982,-0.0006486744387075
1772650886870172000,2.224171875,0.0290951615810394,0.000324738442339,0.0039697164817247,-0.0009428216144442,0.0005907691083848,-0.0004462742072064
1772650886880145200,2.234145263671875,0.0383750311017036,0.0013486381299793,0.0099143314993008,-0.0009996397420763,-0.002831855090335,-0.002317642327398
1772650886890117000,2.2441171875,0.0256610954791307,0.0008145677858963,0.0014163604707922,0.0005255527794361,-0.0001244856975972,0.0003641609218902
1772650886900089900,2.25408984375,0.0359919353574514,-0.0005373217470943,-0.0134867740254383,0.0017071766778826,0.0018492564558982,1.29346153698e-05
1772650886910062000,2.26406201171875,0.0346463659673929,-0.0068186305062845,-0.004407176317228,0.0008712103590369,-0.0017694467678666,0.001936802174896
1772650886920034000,2.274033935546875,0.0292640884071588,0.0055118587566539,0.0009324128787498,-0.00038384180516,-0.0003472566604614,-0.0026336633600294
1772650886930007000,2.284007080078125,0.039883097577095,-0.0115502256054431,0.0003171305246185,-3.86959873139e-05,-0.0008050538599491,0.002576544880867
1772650886939979000,2.29397900390625,0.0370388140618801,-0.0053429319305345,0.0018753380183596,-0.0003345366567373,0.0013385256752371,-0.0027454334776848
1772650886949951200,2.303951171875,0.0216290634840726,0.0109729737067595,-0.0030255583662539,-0.0002514459192752,-0.0008202325552701,-0.0022237203083932
1772650886959924000,2.313924072265625,0.0466179587900638,0.0030027985451743,-0.0137728609578218,0.0004266002215445,0.0001476113684475,-0.0004095990152563
1772650886969896200,2.323896240234375,0.0270166017413139,0.0050409533092752,0.0078926072801928,0.0002010301686823,-0.0001535918563604,-0.0005683234194293
1772650886979869200,2.333869140625,0.0285129777789115,0.00418104854431,-0.0025123390139546,0.0012872540391981,-0.0005374928005039,-0.0012390696210786
1772650886989841000,2.3438408203125,0.0267144039243459,-0.0049751215314492,0.0159528444785624,0.0007237289100885,-0.0027599006425589,-0.0001490378053858
1772650886999813000,2.353813232421875,0.0358458048850297,-0.0067216364052146,0.0200283594223205,-0.0014845724217593,-0.0008240342140197,-0.0010680666891857
1772650887009786000,2.3637861328125,0.0448275682419538,-0.007118599833548,0.0140458235471509,-0.0020694027189165,-0.0003529209643602,0.0001854831934906
1772650887019758000,2.373758056640625,0.0425841732293367,-0.0052171501263976,-0.0055759461019653,0.0002136966213583,-0.0007102331146597,-9.44200437515e-05
1772650887029730000,2.38372998046875,0.0389952088266611,0.0032391280516982,0.004300446273433,0.0009660399518907,-0.0022953466977924,0.0009793664794415
1772650887039703000,2.393703125,0.023137129959464,0.0058635582711547,0.002181517890701,-0.00167699274607,-0.0002261819317936,-0.0019762050360441
1772650887049675000,2.403675048828125,0.0354062444239854,0.0007470189750194,0.0106948326188139,-0.0004000067710876,0.0008023306727409,0.0010408901143819
1772650887059647000,2.41364697265625,0.0258311913490295,0.00660429363586,-0.0045484570845961,0.0009758910164237,-0.0016034834552556,0.0014110326301306
1772650887069620200,2.4236201171875,0.0146072020232677,0.0084627444515004,-0.0009045476242899,-0.0008190795779228,-9.5814466476e-06,-0.0001642270362935
1772650887079592000,2.433592041015625,0.0177449155271053,0.0080869699416682,0.0041960269177332,-0.00024975836277,-0.0017690567765384,-0.0010086011607199
1772650887089565000,2.44356494140625,0.0177384857863187,-0.0026477745624259,0.0129895376935601,-0.0005927733145654,5.0947535783e-05,0.0018875865498557
1772650887099537200,2.453537109375,0.0199824653208255,-0.0015609291737899,0.0113859566881321,-0.0007593748159706,0.0017296476289629,-0.002471768297255
1772650887109508900,2.4635087890625,0.0141512749493122,-0.002751782926172,0.0031513858361635,-0.0009167673997581,0.0021128761582076,-0.0006909123039804
1772650887119482000,2.473482177734375,0.0240279413193464,0.0035225481029599,0.005114557401603,0.0005797906778752,-0.0027013425715267,-0.0011704606004059
1772650887129454000,2.4834541015625,0.0404880777329206,0.0005765577789396,-0.0048133733647875,0.0001100087538361,-0.0006597633473575,-0.0014301186893135
1772650887139426000,2.493426025390625,0.03286123611629,0.001357186762616,0.0087401640202384,0.0015606326051056,-0.0002986602485179,-0.0006072669639252
1772650887149400000,2.503400146484375,0.0434890131145715,0.0104950539967045,-0.0006301693960092,0.0035928902216255,0.0006014881655573,6.59801298752e-05
1772650887159372000,2.5133720703125,0.0325654680401086,0.0100009868694469,-0.0165716430971864,-0.0025783709716051,1.26021914184e-05,0.0025691033806651
1772650887169345000,2.523344970703125,0.0276250890284776,0.0079446388615295,-0.0166541063494049,-0.0022625201381742,0.0009345887228846,-0.0003707599535118
1772650887179317000,2.53331689453125,0.0229869078338146,0.0035606150910258,-0.0134248969035223,0.000917577650398,-0.001133305253461,-0.0030079220887273
1772650887189289200,2.543289306640625,0.0345125104546546,-0.0004009454837068,0.0135972851952072,-0.002484610537067,0.000537029467523,-0.0010917775798588
1772650887199262200,2.55326220703125,0.0325642989963293,0.0005657806565985,0.0071143711830023,0.0007050200365483,0.0002490868791937,0.0021720065269619
1772650887209234000,2.56323388671875,0.0268763164877891,0.0028132307898253,-0.014677152853785,-0.0007575880736112,0.002993740607053,-0.0012264533434063
1772650887219206100,2.5732060546875,0.0467804558753967,-0.004061477285251,-0.0004987524355296,7.71968625485e-05,0.0022536749020218,-0.002206327393651
1772650887229179100,2.58317919921875,0.0205979668706655,-0.0099191903375089,0.0191486722446512,0.0008090334013104,0.0008062468841671,0.0001098237698897
1772650887239151000,2.593151123046875,0.0391547833025455,-0.0148969056848436,0.0100717048849444,-6.16866163909e-05,-0.0014120694249868,0.0027654287405312
1772650887249123000,2.603123046875,0.0300280585169792,-0.0011256430290639,-0.003149294343777,0.0004797340370714,-0.0003183092921972,0.0017496988875791
1772650887259096000,2.613095947265625,0.0259954420000314,0.0009408975793048,0.0088114117586985,-0.0003108270466327,0.0010296185500919,-0.0026126611046493
1772650887269068000,2.623068115234375,0.0270458278357982,0.0054337885517627,0.0010644143611192,-0.0003134901635348,0.0014440068043768,-0.0008728180546313
1772650887279041000,2.633041015625,0.0237561386406421,0.0062388578569516,-0.0010967091955244,0.0005006273277103,-0.0003546765074133,0.0001084412215277
1772650887289013200,2.64301318359375,0.0439548770606517,0.007974266814813,-0.0004584569577593,0.0007981024682521,-0.001638320274651,-0.0001048779813572
1772650887298985000,2.65298486328125,0.0464911175400018,0.0029179332733154,-0.002693065875722,0.0002163774333894,0.0012087170034646,0.0036219358444213
1772650887308958000,2.6629580078125,0.0316670578956604,-0.0013522183265537,0.0126821065790485,0.0003628516569733,0.0013535930775105,0.0017974040238186
1772650887318930200,2.67293017578125,0.0403448698699474,-0.0038305911388248,0.0004622106842696,-0.0004239971749484,-0.0003375746309757,-0.0008860536618158
1772650887328902000,2.68290185546875,0.0360042103171348,-0.0101407606663182,0.0064869965322781,0.0024404991418123,0.0015732431784272,-0.0011225424241274
1772650887338875100,2.692875244140625,0.0243324772238731,-0.0063971902238205,0.0010823610097635,-8.26460309326e-05,-0.0012781303375959,0.0002503870637156
1772650887348847000,2.70284716796875,0.028370354437828,-0.0060212330508977,0.0163573792919982,7.26161524653e-05,0.0013927537947893,0.0008959373808465
1772650887358820000,2.712820068359375,0.0416857630848884,-0.0064242974264547,0.0082092994133941,0.0007135565392673,-0.000211015343666,-0.0025702170096337
1772650887368792000,2.7227919921875,0.0391442619085311,-0.0179054033184424,0.0097731511966325,-0.0006547756493091,0.0021003419533371,-0.00115554605145
1772650887378764000,2.732763916015625,0.0277671278476715,0.0087265464868396,0.0027539840164128,0.0013591772876679,-0.0015360305551439,0.0043069408275187
1772650887388737300,2.7427373046875,0.0440735350042581,0.004337006291002,-0.022305702370312,-0.0005351291038095,0.0005209948867559,-6.35728938505e-05
1772650887398709000,2.752708984375,0.0472135865956544,0.0118713473185896,-0.0001837682022247,-0.0022702424321323,-0.0004895250312983,-0.0007187149021774
1772650887408681200,2.76268115234375,0.0288046542018651,0.0036173502469435,0.0056737804532516,0.0029689939692616,-0.0015665073879063,0.0002538714907132
1772650887418654000,2.772654052734375,0.0383820453643798,0.0069620940975844,-0.0073511025483254,0.0028363433666527,0.0001061088405549,-0.0022763726301491
1772650887428626200,2.782626220703125,0.0295569338738918,0.0075359484627842,0.0031386176861356,-0.0002145739272236,0.0003721583634614,0.0009045070619322
1772650887438599200,2.79259912109375,0.0437654919683933,0.0106100586785003,0.0082468184121884,-0.0021228312980383,-8.2491897046e-06,-0.0003835648240055
1772650887448571000,2.80257080078125,0.0295458279579877,0.0014174655824899,0.013114954171516,-0.0024788959417492,0.0006034788675606,-0.0009915644768625
1772650887458543000,2.812543212890625,0.0415232659995555,-0.0050661242831498,0.0087843045560643,-0.0017379985656589,-0.0028585121035575,-0.0007105242693796
1772650887468516000,2.82251611328125,0.0253653274029493,-0.0234624894563108,0.0058496941425837,-0.0008551608771085,0.0009055994451045,0.0005241172621026
1772650887478488000,2.832488037109375,0.0373386737912893,0.0032454847272485,0.0003172675219364,-0.0010480843484401,0.0005861017853021,-5.93340373598e-05
1772650887488460000,2.8424599609375,0.0309007496982812,-0.0020574074538424,-0.0083019826655276,0.002228136640042,0.0017799972556531,0.0001438651815988
1772650887498433000,2.85243310546875,0.0310544789552688,-0.0145791084399446,-0.005542902348889,-0.0004809261299669,-0.0006615263409912,-0.0004020766064058
1772650887508405000,2.862405029296875,0.018784195446968,0.0025641879322007,-0.0064060676500201,0.001464513130486,-0.0017217309214174,-0.0007376348949037
1772650887518377000,2.872376953125,0.0327004925966262,0.0095531335040926,-0.0045668603909667,0.000202402472496,-6.6690146923e-05,0.000192892330233
1772650887528350200,2.88235009765625,0.0413812271803617,0.0072030267139896,0.007132811021991,-0.0001177093945443,0.0001950985752046,0.0008533563232049
1772650887538322000,2.892322021484375,0.0207265616863965,0.0087864599805325,-0.0069090304697863,-0.0019119568169116,0.0019696075469255,-0.0017063437262549
1772650887548295000,2.902294921875,0.0305997209250926,0.0049994887877255,0.0115007239079102,-0.0013031580019742,8.43559391796e-05,-0.0011236440623179
1772650887558267100,2.91226708984375,0.0323930340826511,-0.001326353232935,0.0192378757649101,0.0006157616153359,-5.49126416444e-05,0.0005733547732234
1772650887568238800,2.92223876953125,0.0328413623720407,0.0054536257633939,0.0164334676023572,-0.0002463036216795,-0.0012751731555908,0.0005722895730286
1772650887578212000,2.932212158203125,0.0416623822093009,-0.0007331000475212,2.9463556502e-05,-0.0013348893262445,0.0002186466008424,0.0001515016774646
1772650887588184000,2.94218408203125,0.0267021289646625,0.007687997219339,0.0031684557019732,-0.0008733635768294,-0.0013113392051309,-0.0027766439598053
1772650887598156000,2.952156005859375,0.0231137490838766,0.00825951349698,0.0015061576460953,4.22410666942e-05,0.0002040406689047,-0.0017256692517548
1772650887608129000,2.96212890625,0.0343342312783002,-0.0069809449285268,0.0090393935619853,2.46642157435e-05,0.0001728818751871,0.0017343095969408
1772650887618101000,2.97210107421875,0.0310422039955854,-0.0042221842722967,0.0150091338876634,-0.0022183598484843,0.0006260876543819,-0.0014741632621735
1772650887628074200,2.98207421875,0.0464513700515031,-0.011051153509505,-0.017133103771694,0.0007068561390042,-0.0002072155475616,0.0017008573049679
1772650887638046000,2.9920458984375,0.026842998740077,-0.0062966889914125,-0.0164079404354561,-0.0004471242427825,0.0009213238954544,0.0006587637471966
1772650887648018200,3.00201806640625,0.039562195059657,0.0074099839955568,-0.0112859943118412,-0.0009592501446604,0.0004504770040512,0.0003082916955463
1772650887657991200,3.0119912109375,0.0413560927391052,0.0004721475563943,0.0137843778656795,0.0018469346687197,-0.0001056906767189,-7.90101476013e-05
1772650887667963100,3.021963134765625,0.0410603246629238,0.0012848521787673,-0.024294337170571,-0.0017478000372648,-0.0010316718835383,-0.0012289630249142
1772650887677935000,3.03193505859375,0.0498953730255365,0.0111161450371146,-0.0198259504517074,0.0004248763434588,0.0013285567983984,0.0003310555475763
1772650887687908000,3.041908203125,0.0406155035048723,-0.0025835502197965,-0.0021812256297562,-0.0001583560369908,-0.0015910668298602,0.0014594367239624
1772650887697880000,3.051880126953125,0.028642741638422,-0.0044600846813991,0.006387518213177,-0.0023099845275282,-0.0009639034979045,0.0023900978267192
1772650887707852000,3.06185205078125,0.0329758024066686,0.0111669253762811,0.0109185766384005,-0.0014034446794539,0.0022718370892107,-0.0002088809851557
1772650887717825300,3.0718251953125,0.0412023634821176,0.0121623296217992,-0.0093280469107907,3.39937396347e-05,0.0010116226039826,-0.0003987372037954
1772650887727797000,3.081796875,0.0222030639797449,-0.017859518350102,0.0036550245093647,-0.0002016960643231,-0.0024100067093968,0.0004809049423784
1772650887737770000,3.09177001953125,0.0275830034524202,-0.0070890814781188,0.004117646185588,-0.0020217471756041,0.000173311214894,0.0017453744076192
1772650887747742200,3.1017421875,0.0446446128904819,-0.0106747214125469,0.0052256348269525,-0.0005828412249684,-0.0002384134568274,-0.0006802326533943
1772650887757714000,3.1117138671875,0.0332803383111953,0.0031774609923362,-0.0045527131346054,0.0001883073709905,-0.0007552132010459,0.000501450500451
1772650887767687200,3.121687255859375,0.0364168827712535,0.0072399977235123,0.0121640009890776,0.0004583518020808,-0.000265990383923,0.0010668395552784
1772650887777659100,3.1316591796875,0.0473410123676061,0.0236529705271124,-0.0007449457489419,-0.0011722890194505,0.0011946349404752,-0.0011828523129224
1772650887787631000,3.141631103515625,0.0362672451674938,0.0038579540697857,-0.002408531579608,-0.0002803965471684,-8.26171599328e-05,-0.0003633976739365
1772650887797604000,3.15160400390625,0.0325303967267274,0.0097116120014339,-0.0142183579693082,-0.0007467605173587,0.0002608047798275,-9.26725915633e-05
1772650887807576000,3.161576171875,0.032381928166747,-0.0030046251760795,0.0074110617077909,-0.0006378372199833,-0.0007978016510605,-0.0030469172634184
1772650887817549000,3.171549072265625,0.0295335529983043,0.0060901335686445,0.0086485036814119,0.0013564084656536,0.0008266405202448,0.0016605443088337
1772650887827521000,3.18152099609375,0.0473351671487092,-0.0006943754723295,0.0031236301795579,-3.32286581397e-05,0.0043156472966074,-0.0008675944409333
1772650887837493200,3.1914931640625,0.0403051223814487,0.002018098356761,0.0043775209644809,0.0028221462853252,-0.0015371215995401,-0.0010081687942147
1772650887847466000,3.201466064453125,0.029679683470726,0.0047613691829144,-0.0109982451453339,0.0005624541081488,-0.0023911974858492,0.0008363365195691
1772650887857438200,3.211438232421875,0.032232875084877,0.0001594648780301,0.0025474194604903,0.0009761396795511,0.000900010112673,0.0004034905578009
1772650887867410200,3.22141015625,0.0489946247935295,0.0067008493455126,0.0117212895897217,0.0001297872513532,-0.0017271982505917,-0.0021835041698068
1772650887877383000,3.2313828125,0.037027708145976,-0.0031252924136817,0.0080464644013438,-0.0011367755942046,0.0014560488052666,-0.0008335601305589
1772650887887355100,3.241355224609375,0.0347831440895795,0.0090075919179245,-0.0026918146335519,-0.0001958808861672,-0.0001423805952072,-0.0016274484805762
1772650887897327000,3.2513271484375,0.0262532161533832,0.0160139635486528,-0.0048837351872585,0.0004624924622476,0.0008494262583553,0.0019336979603394
1772650887907300000,3.261300048828125,0.0319388605743646,0.0189109270991757,0.0116615496259648,0.00137276109308,-0.0008339576888829,0.0004540457157418
1772650887917272000,3.27127197265625,0.025356559574604,0.0074210168462246,0.0185443862085696,-0.0002823611721396,0.0023061241954565,-0.0012091293465346
1772650887927245000,3.2812451171875,0.0367296019822359,0.0136880048191174,-0.0176868651969358,-0.0011084740981459,0.0004733367823064,0.0003344388096593
1772650887937217000,3.291217041015625,0.0301455474168062,-0.0001869008742272,-0.0012735088008455,0.0002195881679654,-0.0021249775309115,0.0012100101448595
1772650887947189000,3.30118896484375,0.0105471129775047,-0.0130115303296595,0.0032474666217807,-0.0012885599862784,2.31279991567e-05,0.0001303645549342
1772650887957162200,3.311162353515625,0.0216185420900583,0.0126200467940419,-0.0061925162308849,-0.0011634095571935,-0.0002176514826714,-0.0009262027451768
1772650887967134000,3.321134033203125,0.0319441212713718,-0.001838577071391,-0.0035033136795274,5.25899231433e-05,0.0017837136983871,0.0008458645897917
1772650887977106200,3.331106201171875,0.022969372177124,-0.0045813729735091,-0.0050334184567909,0.0002720858901739,0.0004018400795757,-0.0022189631126821
1772650887987079200,3.3410791015625,0.0340448929429054,-4.16471846401e-05,-0.0013577712845057,8.40667635202e-05,-0.0015907371416687,-0.0003126723750028
1772650887997051000,3.35105078125,0.0362912105649709,0.0105193481877446,0.0239424001940526,-0.0002523120492696,-0.0010915454477071,-0.0007956906920298
1772650888007024000,3.361024169921875,0.0370417366713285,0.0040789033440873,-0.00495129313129,0.0012675542384386,0.000229116063565,0.0002602526801638
1772650888016996000,3.37099609375,0.0332949513584375,0.0014123510159552,0.0089701916501391,-0.0017061904072761,-0.000201522372663,0.0008773707668296
1772650888026968000,3.380968017578125,0.0274573312461376,0.007373999366723,-0.0248720822595991,0.0003961087204515,-0.0017184589523822,-0.0010193325579166
1772650888036941000,3.390941162109375,0.0413788890928029,0.0008048135768622,-0.0090945304158609,-1.17421150207e-05,-0.0007342228200286,-0.0011166337644681
1772650888046913000,3.4009130859375,0.0400350732684135,0.0078981328386813,-0.0015938450627028,0.0014905468560755,0.0002988171763718,-0.0022242425475269
1772650888056885000,3.410885009765625,0.0430289943873882,-0.0005004968680441,-0.0063487297059036,-6.36498443782e-05,-0.0002818536013364,0.0001747339847497
1772650888066858000,3.42085791015625,0.0319563962310552,0.0025948753314092,-0.0022109997135121,0.0005123917944729,-0.0016421962063759,-0.0001560306409373
1772650888076830200,3.430830322265625,0.0327063378155231,0.0102922249009832,-0.0170819033074192,-0.0006635058671236,-0.0012223075609654,-0.0010408691596239
1772650888086802000,3.440802001953125,0.0371983885377645,0.0075500135207548,-0.00474130364242,0.0014752787537872,5.01507893204e-05,0.0005812621675431
1772650888096775200,3.450775146484375,0.0410866281479597,0.003819229494594,0.0071044708434958,0.0011573880910873,-0.0003379206173121,0.000754703185521
1772650888106747100,3.4607470703125,0.0361485872238874,0.0125463970359414,0.0250220943226944,-0.0007347879000008,0.0007387953810393,-0.0002642222389113
1772650888116720000,3.47072021484375,0.0389881945639848,-0.0023244974248111,0.0034115711423102,0.0023345127701759,-0.0003335601650178,0.0007250093040056
1772650888126692000,3.480692138671875,0.0373433499664068,-0.0078666051892563,0.0011118428325746,0.0009848223999142,-0.0004009380936622,-0.0005301384371705
1772650888136664000,3.4906640625,0.0334545258343219,0.0070981781000271,-0.0099893512305803,0.0014814524911344,-0.002007253235206,-0.0002457524533383
1772650888146636500,3.500636474609375,0.0312093772560358,0.0019091946221888,0.0002464033759664,-0.0022059602197259,0.0003328663296997,0.0001880764611996
1772650888156608300,3.510608154296875,0.0386918419659137,0.0068328782273456,0.0033897337698377,0.0015927874483168,0.002256722189486,1.09667307697e-05
1772650888166580500,3.52058056640625,0.0240326174944639,0.0119066743602976,0.0057774965560529,0.0004103435203433,0.0012828041799366,-0.001831408124417
1772650888176553500,3.530553466796875,0.0443880077809095,0.006190123344399,-0.0074469184724614,0.0004011103883385,-0.0010215786751359,0.001422724686563
1772650888186525400,3.540525390625,0.038857261660695,0.0016378668675199,0.0025168781917542,0.0023872959427535,0.0005984222516417,-0.002961104735732
1772650888196498400,3.55049853515625,0.0268844997942447,0.0055796267632395,0.0061023263299372,-0.0002300292253494,-0.0012085868511348,-0.0002356646000407
1772650888206470400,3.560470458984375,0.0363099152654409,0.0100097546977922,-0.0077411887113004,0.0002096584066748,-0.0002738172188401,0.0002511612256057
1772650888216442400,3.5704423828125,0.0451420410186052,-0.0134585799774155,-0.001803213497065,-2.63471156358e-05,-1.5306286513e-06,0.0003942925832234
1772650888226415400,3.580415283203125,0.0339174671709537,-0.0161097155407071,0.0218377103992272,-0.0010431422851979,0.0010245852172374,-0.0022203989792615
1772650888236387600,3.5903876953125,0.017609306448698,-0.007340389358066,0.0021136676857247,-0.0001694718375802,0.0008843066170811,0.0006214345339685
1772650888246359300,3.600359375,0.0333241774529218,-0.0072973174013197,-0.021273774639843,0.0011013885959982,-0.0008145235478878,-0.0014739405596628
1772650888256332300,3.610332275390625,0.0366185428231954,-0.0266592762036249,-0.004336677497439,-0.0005316636525094,-0.0012920901644974,-0.0019991004373878
1772650888266304500,3.620304443359375,0.0375198755770921,-0.0147604198236018,0.0226683616702444,0.0001911185681819,0.001141239888966,0.0010592737235128
1772650888276277200,3.63027734375,0.0385632471501827,0.0012902224736288,-0.0082058288146741,0.0006883777678012,-0.0009698015637695,0.0019070348935201
1772650888286249500,3.64024951171875,0.0352735579550266,0.0094734558640047,-0.005875431372039,-0.0002445275895297,-0.001724541420117,-0.0014882290270179
1772650888296221200,3.65022119140625,0.0351227513074874,0.0143418656179681,0.000214903126005,0.0013457955792546,0.0001262808218598,0.0023962687700986
1772650888306194400,3.6601943359375,0.0505289947539567,-0.0062461278479546,0.0020009280262514,0.0001356555148959,-8.67722555994e-05,-0.0015848907642066
1772650888316166400,3.67016650390625,0.0551712676018476,-0.0043184477210044,0.0077256440822966,0.0016278540715575,0.0005940231494605,-0.0035235467366874
1772650888326138400,3.680138427734375,0.0412584775835275,0.003484444582276,-0.0121997664222028,-0.0008353036828339,0.0017319917678833,-0.000899534265045
1772650888336111400,3.690111328125,0.033624037182331,0.0019749898673966,0.0028468042658641,0.000817728228867,-0.0013363221660256,0.0003566977684386
1772650888346083300,3.700083251953125,0.0409510190695524,-0.0070364745080471,0.0022724201777018,-0.0013652651105076,4.95868735015e-05,-1.93405430763e-05
1772650888356055300,3.71005517578125,0.0481342085719108,-0.022024967466481,0.0013710965569596,-0.0017394854221493,-0.0007186906877905,0.0016273719957098
1772650888366028300,3.7200283203125,0.0361620312273502,-0.0057798620430752,0.0098614596677478,0.0005636163987219,-0.0010089753195643,0.0007935361936688
1772650888376000500,3.73000048828125,0.0443973601311445,-0.0082757705120369,-0.0103313239355105,-0.0005524950101971,-0.000304062385112,-0.0002950048365164
1772650888385973500,3.739973388671875,0.0463467406332492,0.0009209873024374,-0.0065194009645376,-0.0010419837199151,-0.0023597565013915,-0.000435353431385
1772650888395945200,3.7499453125,0.0340729499936103,0.0054797100527212,0.004495411723107,-0.0012572815176099,0.0010796394199132,-0.002152279485017
1772650888405917400,3.75991748046875,0.0221036952584981,-0.0119509518934413,-0.0016727098520379,-0.0008634002879261,-0.0024386628065258,0.0016717533580958
1772650888415890400,3.769890380859375,0.0279401463270187,0.0037865693340077,0.0147295406281482,0.0018838206306099,-0.0014562741853296,-0.0011017062934115
1772650888425862400,3.7798623046875,0.0478413631051778,0.0255097773749381,0.0019989917974919,0.001394331920892,-0.0005191075615584,0.0007020526682026
1772650888435834400,3.78983447265625,0.0310819514840841,0.01328687667232,-0.0098709581484552,-0.0009724469855427,-0.0008027576841413,-0.0011134129017591
1772650888445807400,3.799807373046875,0.0436515101999044,0.0098446272639557,-0.0124150166080798,0.0003242464736104,0.0001386697404086,0.0023697353899478
1772650888455779300,3.809779296875,0.0524742836028337,0.0118221378820016,-0.0049047414426691,0.0004330929368734,-0.0014356751926243,-5.31155383214e-05
1772650888465751300,3.819751220703125,0.0352712198674678,0.0013582827411592,-0.0144341104786843,-0.0008731875568628,0.0004655555821955,0.0003817786928266
1772650888475724500,3.829724609375,0.0191103586614131,0.0103587142659351,0.0043057983019854,0.0006070197559893,-0.0007544218096882,0.0037067134398967
1772650888485696300,3.8396962890625,0.0243377379208803,-0.0016149243833497,0.0220905435159802,0.0005292552523314,-0.0005448311567306,0.0015109369996935
1772650888495669200,3.849669189453125,0.0306231018006801,-0.0136238535417243,0.0058776781280525,0.0016385340131819,-0.0018140419851988,-0.0005504749133251
1772650888505641500,3.859641357421875,0.0506821394890546,-0.0071428940245881,0.0034542047076392,-0.000797992106527,0.0006874650716781,-0.0031917979940772
1772650888515613400,3.869613525390625,0.0306353767603635,-0.0069557374220341,0.0096667864790186,-0.0001047533005475,0.0009445664472877,-0.0017771640559658
1772650888525586400,3.87958642578125,0.0463514168083667,-0.0076525605797767,-0.0028286932204384,0.0005144318565726,0.0007592104375362,-0.001275424612686
1772650888535558400,3.889558349609375,0.0315419702112674,0.0106171825390309,-0.0100078184690326,0.0017488710582256,0.0003073289990425,0.0003401862340979
1772650888545530400,3.8995302734375,0.0331897374182939,0.0043116891866549,-0.0043679768180008,-0.000353162176907,0.0017470340244472,-0.0008758131298236
1772650888555503400,3.90950341796875,0.02211889282763,0.0091995708260685,0.0146692618082743,-0.0012179019395262,0.0006785998120903,-0.0006041128071956
1772650888565475600,3.9194755859375,0.0272042332679033,0.0067152066644281,0.0047844029986299,-0.000667693093419,-0.0004164921119809,0.0001716660335659
1772650888575447300,3.929447265625,0.03468903606534,-0.0027867446416988,-0.0008717139337677,0.0020098397508263,-0.0003828350454568,-0.0001498025958426
1772650888585420300,3.939420166015625,0.0415694432288408,-0.0010999605985358,-0.0066730388899799,-0.0002929954789578,0.0012225182726979,-0.0006129263201728
1772650888595392500,3.949392578125,0.0484504349142312,0.0107344157105311,0.0030474962034262,-0.0010849512182176,-0.0004357867874205,0.0024865926243364
1772650888605365200,3.959365234375,0.0108855511516332,-0.0006950695920735,0.0034838052614592,-0.0023560777772217,-0.0013961226213723,0.0014287850353866
1772650888615337500,3.96933740234375,0.0167231712639331,0.0019928543176501,0.002410595672531,0.0014125239104032,0.0003953021951019,0.0022418349981307
1772650888625309400,3.979309326171875,0.0390162516146898,-0.0058495297458022,0.0049646092705894,-0.0003907028585672,0.0008043637499213,0.0010948115959763
1772650888635282200,3.9892822265625,0.0445505048662424,-0.006421630545333,-0.0072569853909313,-0.0013512121513485,-0.0017535591032356,-0.0003789269539993
1772650888645254400,3.99925439453125,0.0318330621123313,-0.0088521821605041,-0.0028931915577035,-0.0003927405923604,0.0003977422602474,0.0025630672462284
1772650888655226400,4.009226318359375,0.0291378316789865,0.0010738763092085,-0.0012683759680017,-0.0010572639293968,-0.0014123308937996,0.0001256552641279
1772650888665199400,4.019199462890625,0.0467962379664182,0.0067469900421798,-0.0083936886701267,0.0016325288452208,0.0001450856216251,0.0003317839000374
1772650888675171300,4.02917138671875,0.0436550173312425,0.0017572189308702,-0.0013948427587281,0.0016881544142961,-0.0004233038052916,0.0016421659383922
1772650888685144300,4.039144287109375,0.0382663100302219,0.0073337404215708,-0.0021751703483052,0.0001360643655061,-0.0001671076752245,0.0013114013709127
1772650888695116300,4.0491162109375,0.0291413388103246,0.0072670683935284,0.0044470973356626,0.0027777105569839,-0.0014219628646969,0.0001596336951479
1772650888705088300,4.059088134765625,0.0346773456275463,0.0044563218217343,-0.0040427269190084,-0.0008037080988287,-0.000778809422627,-0.0009378549875691
1772650888715061500,4.0690615234375,0.0381160879045724,-0.0021433687042444,0.0007043488770723,0.0006169495172798,-0.0007406251970678,0.001692761783488
1772650888725033200,4.079033203125,0.04065700455904,0.004373758104816,-0.0053144456215668,-0.0005580373108386,0.0010934937745332,-0.0012047574855387
1772650888735005400,4.08900537109375,0.0375151994019746,-0.0012519362898543,-0.0026305129003711,0.0004557287320494,0.0027553965337574,-0.0021905708126723
1772650888744978400,4.098978515625,0.0328717575103044,0.0102061175201088,0.0156563183505553,0.0012416271492838,-0.0001668902114033,0.0023498523514717
1772650888754950400,4.108950439453125,0.0286854117363691,0.0075731386680155,-0.0061564128710422,-5.04083000123e-05,-0.0003512012772262,-0.0017110956832766
1772650888764923400,4.11892333984375,0.0333276845842599,0.0031948870511725,0.00192209063638,-0.0012086171191185,-0.0015301830135285,-0.0017033725744113
1772650888774895400,4.128895263671875,0.0348310748845338,-0.0062795917261391,-0.0016211805942002,0.000510309357196,-0.0008303397335112,0.0005336485337466
1772650888784867300,4.138867431640625,0.0459065956503152,-0.015075184861198,-0.0003324285584501,-0.0013515064492821,0.0012892703525722,0.0007959699723869
1772650888794840300,4.14884033203125,0.028693010520935,3.24774974957e-05,0.0007959818164352,0.0006134221330285,-0.0014245647471398,0.0010186015861108
1772650888804812500,4.1588125,0.0460509725570678,0.0008427344344556,0.018295188087318,0.0004009017720818,-0.0003201519139111,-0.0008466764120385
1772650888814784300,4.1687841796875,0.0262999779045581,0.0039920287782326,0.0056796804710756,-0.0003282325342297,-0.0008341146167367,0.000372284092009
1772650888824757200,4.17875732421875,0.0328834479480981,0.0030849969359114,-0.0120491789703723,-0.0002749692648649,-0.0010876476299017,0.0006338064558804
1772650888834729500,4.1887294921875,0.0304915843755006,0.0121499815968796,-0.0059058904423844,0.0004570656456053,0.0009886850602924,0.0004884465597569
1772650888844701200,4.198701171875,0.0462029482483863,-0.0004166910421103,0.0111372243577614,-0.0004183151759207,0.0012294347397983,0.0002551536308601
1772650888854674400,4.20867431640625,0.0415641825318336,-0.0060526145698502,0.0088741199976764,-0.0010594339109957,-0.001457065809518,0.0008192118257284
1772650888864646400,4.218646484375,0.0426069695830345,0.0117452367208898,0.0017951215221546,0.0026402291841804,0.0001895665191113,0.0024181739427149
1772650888874619400,4.228619384765625,0.033926234999299,0.0040193186439573,-0.0032866661210078,0.0008030799217522,-0.0012026382610201,0.0015756438951939
1772650888884591400,4.23859130859375,0.028536358654499,-0.0042928018230944,-0.0088628405518364,-0.0007452820427715,-0.0006180745549499,0.0002147685154341
1772650888894563300,4.248563232421875,0.0361672919243574,-0.0008673939516767,0.0110899237504694,-0.0016155943740159,-0.0007760147564113,0.0015459787100553
1772650888904536600,4.25853662109375,0.0222527483403682,-0.0139431120913475,0.0116969953986816,0.0012153456918895,-0.0003328649327158,-0.0011712445411831
1772650888914508300,4.26850830078125,0.0460492189913988,-0.0019036781968548,0.0016169884762726,-0.0009192801080644,0.0007853070273995,-0.0032672388479113
1772650888924480500,4.27848046875,0.0349789589226245,0.0070476900218054,0.0045948261101264,0.0016440125182271,0.0002705180086195,0.0002593191456981
1772650888934453500,4.28845361328125,0.0328822789043188,-0.0115908133441582,0.0094157343273982,-0.0012823357246816,-0.0001352014951407,0.0006085181375965
1772650888944425500,4.298425537109375,0.019867899030447,0.0099703725354745,0.0122215855283662,0.0014836234040558,-0.0025517540052533,-0.0011955071240663
1772650888954397400,4.3083974609375,0.0447094948202371,-0.0008602335585281,0.0060737121568061,-0.0013543472159653,0.0012519275769591,-0.0016170963644981
1772650888964370400,4.318370361328125,0.0373790058016777,0.0121484472269192,-0.0032394477121066,-0.0021189406979829,0.0009307502768933,9.31857503019e-05
1772650888974342400,4.32834228515625,0.0328852015137672,0.0200152716118842,0.0025938980838749,-0.00095603056252,0.0004866905510425,0.0012325836578384
1772650888984315400,4.3383154296875,0.0423071098536253,0.0104507399309426,-0.0029374964903108,-0.0020428667776286,0.0003434126265347,-1.53736327774e-05
1772650888994287600,4.34828759765625,0.0461982720732688,0.0051941711096093,-0.0062405840231571,0.0004935492761433,-0.0005287462845444,-0.0007521542720496
1772650889004259300,4.35825927734375,0.0408113183379173,-0.0067821344207972,0.0008079919146373,-0.0008625322952866,0.0003082854673266,0.0005107166944071
1772650889014232300,4.368232421875,0.0373673153638839,-0.0029951997606083,0.0023853333671111,0.0006663249805569,0.0006370255723595,-0.000319189945003
1772650889024204500,4.37820458984375,0.0414051925778388,0.0021112200003117,0.0071966152395121,0.0002125222235918,0.0009600669145584,-0.002620427403599
1772650889034176300,4.38817626953125,0.0364741659164428,-0.0097717812234535,0.0051064928261563,0.0015062130987644,-0.0008496169466525,-0.0019074438605457
1772650889044149500,4.3981494140625,0.0393219565629959,-0.0051028760969638,-0.0018678944974206,-0.0011074128560721,-0.0007971527520567,0.0019837007857859
1772650889054121200,4.408121337890625,0.0495002362281084,-0.0013120689792558,0.0042572464525233,0.0016113389283418,0.0002036304213106,-0.0029997741803526
1772650889064094200,4.41809423828125,0.0351379488766193,-0.0028888898419216,-0.0007981007082853,0.0013178586959838,3.47862951457e-05,7.08505394868e-05
1772650889074066400,4.42806640625,0.0282581262350082,-0.0103971831128001,0.008363658858044,-0.0002693063579499,0.0016103941015899,-0.0006036863778717
1772650889084038100,4.4380380859375,0.0165858086198568,0.001711041701585,0.0005262706301175,0.0003586672246456,0.0011723041534423,-0.0005621410673484
1772650889094011400,4.448011474609375,0.046516836503148,-0.0033021102853119,-0.0107755240390542,-0.001077901571989,0.0006157481111586,0.0005049121100455
1772650889103983400,4.4579833984375,0.0279623581588268,-0.0061631257396191,-0.0115175015127751,0.0016518384218215,-0.0006527153309434,-0.0010354602709412
1772650889113955300,4.467955322265625,0.0243710556685924,-0.0103558647217229,-0.028449895080598,0.0016554873436689,0.0008421605452895,0.0022961450740695
1772650889123928300,4.47792822265625,0.0349918184041976,-0.000778765820153,-0.0044270591946318,-0.0026372622232884,-0.0003964756615459,-0.0008658260339871
1772650889133900300,4.487900390625,0.0295996039718389,-0.0018721140148118,-4.53461122233e-05,-0.0024416770320385,0.0005226265639066,-0.00062332872767
1772650889143872500,4.49787255859375,0.0285515562236309,0.0051734571151435,-0.0042634935302194,0.0023245820775628,-0.0014646239578723,0.0002672324189916
1772650889153845500,4.507845458984375,0.0281038124561309,0.0110242289699614,-0.0029597905205097,0.0002565658651292,0.0009345402941107,-0.0006576583255082
1772650889163817500,4.5178173828125,0.0421773459941148,-0.0146598820585757,-0.0077623410971835,0.0014749621041119,0.0005553062073886,-0.000596671947278
1772650889173790500,4.52779052734375,0.03948211556077,-0.0078589333394542,-0.0002394256459083,0.0006915605627,7.94003717601e-05,-6.90835295245e-05
1772650889183762400,4.537762451171875,0.039931612893939,0.0005427285745739,0.0088020868079271,-0.0023335241712629,-0.0005903849378228,0.0006113541312515
1772650889193734400,4.547734375,0.0433726932585239,0.0001519756913185,-0.0008320577768143,0.0016298564150929,-0.0002423813566565,-0.0011277925223112
1772650889203707400,4.557707275390625,0.0340939927816391,0.0160662782577797,0.0102716844364535,-0.0008836351335048,-0.0019350864458829,0.0012048704084008
1772650889213679600,4.5676796875,0.037984570479393,-1.76452545449e-05,-0.0119985447616782,0.0007519023492932,-0.000589691568166,0.0001123964320868
1772650889223651300,4.5776513671875,0.0483119032263755,0.0060955769287422,-0.0067878883081488,0.0035066762939095,-0.0005521406419575,0.0007092108135111
1772650889233624600,4.58762451171875,0.0420318000435829,-0.0033443419918417,-7.05170860979e-05,-3.41017730534e-05,-0.0002560503780841,-0.0007288034539669
1772650889243596500,4.597596435546875,0.046222237470746,0.0011526041012257,-0.0064683466307353,-1.54599547386e-05,0.0008819182403385,0.0010262196883559
1772650889253568500,4.607568603515625,0.0299099850952625,-0.0112193862158805,-0.0049949404767714,0.0013315230607986,-0.0008636154234409,0.0004836242878809
1772650889263541500,4.61754150390625,0.016592822882533,-0.008269559966959,0.0048435310410335,0.0007426980882883,-0.0004122094251215,-0.0020940494723618
1772650889273513500,4.627513427734375,0.0396358448177576,0.0022359058259055,0.0093017890915274,0.0008755601011216,-0.0002631163224577,0.0014434806071221
1772650889283486500,4.637486572265625,0.0544493830680847,0.0065827393911778,-0.0029688140771817,0.0007695662789046,-0.0001246319152414,0.0018091325182467
1772650889293458400,4.64745849609375,0.0273690684407949,-0.0033866832962259,-0.0024285788537934,0.0005372846499085,-0.0005135773681104,0.0005615160916931
1772650889303430700,4.6574306640625,0.0293143572896718,0.0098289182381704,0.0076848371478728,-0.0001916224136948,-0.0005761617794632,0.0002461978583596
1772650889313403400,4.6674033203125,0.0291635506421327,-0.0046224721688777,-0.0091618600310292,-0.0010235281661152,0.0009186542592942,-0.0018640989437699
1772650889323375400,4.677375244140625,0.0324596695780754,-0.0133588459299877,0.0030725575794465,-0.0014589549973607,0.0006478107534348,-0.0010888527613133
1772650889333347600,4.68734765625,0.0351543154895305,-0.0042595571406185,0.007118928627111,0.0004139775410294,0.0007127993740141,-0.0022804932668805
1772650889343320300,4.6973203125,0.0224345346480608,-0.009790668587014,-0.0065219217151869,-0.0011218674480915,-0.002685128012672,0.002532904036343
1772650889353292500,4.70729248046875,0.0315600903898477,0.0030248277138918,0.0023536961198318,-0.0002997014671564,1.54534354805e-05,-0.0016791857779026
1772650889363265500,4.717265625,0.0338029008805751,0.0105291389293968,0.0171116865243297,0.0006640963256359,0.0005912291817367,0.0021230091806501
1772650889373237200,4.7272373046875,0.0359001654207706,0.0040378772139549,-0.0100851488884072,0.0013210298493504,-0.0006406609900295,-0.0008633186807855
1772650889383209500,4.73720947265625,0.0330617271244525,0.007111658636108,0.0024677052877843,0.0016456693410873,-0.000201771967113,0.000394226051867
1772650889393182500,4.747182373046875,0.0384475118160247,-0.0058651291737332,-0.011142302391678,0.0002745110541582,0.0008890605531632,0.001152572222054
1772650889403154400,4.757154541015625,0.0347065717220306,0.0017890753738582,0.0127182464715093,-0.0007936828769743,0.0007412550039589,-0.0012922096066176
1772650889413126400,4.76712646484375,0.0382984587341546,-0.0231100592894479,-0.0063703478826675,0.0009663584642112,0.0017675128765404,-2.57561332546e-05
1772650889423099400,4.777099365234375,0.0216857621073722,-0.01301306469962,-0.0056979741795919,0.0017005917616188,0.0002953172661364,-0.0004167081788182
1772650889433071400,4.7870712890625,0.0370996043384075,-0.006328399303928,0.0050664622098673,-0.0007723504677414,0.0002243844792246,-0.0016053860308602
1772650889443043600,4.797043701171875,0.0426367801994085,0.0100592929279431,0.0103360914421733,0.0011485875584185,0.0031392141245305,0.0017129126936197
1772650889453016600,4.8070166015625,0.0350017552763223,0.0084733754433691,0.0046754992640577,0.002727847546339,2.3144762963e-05,0.0007842674385756
1772650889462988300,4.81698828125,0.035296938830614,-0.0026397373864427,-0.0109193164239171,0.0016130479052662,0.0007496550679206,0.0012143679196015
1772650889472961500,4.82696142578125,0.0278162276864051,0.0082537413433194,0.011253178887628,0.0001082341186702,0.0003854925744235,0.000593552365899
1772650889482933500,4.83693359375,0.0349947410136461,0.0060918871343135,-0.0152144289351068,0.0011402089148759,-0.0012664664536714,0.0014508239692077
1772650889492905500,4.846905517578125,0.0315478154301643,0.005387830518186,-0.0091627185475546,0.0001413295976817,0.0002027838490903,0.0009927329374477
1772650889502878500,4.85687841796875,0.0480079518437385,0.0068569897552952,-0.0078819854214787,-0.0003694645129144,-0.0007836511358618,-0.0004072908777743
1772650889512850400,4.866850341796875,0.0369359382092952,0.0078601754484698,-0.0009810103939846,1.54348090291e-05,0.0005082604475319,-0.0018780147656798
1772650889522822400,4.876822509765625,0.0191314014494419,-0.0122829603267833,-0.0034342761644627,-0.0003470215015113,0.0007950831204652,-0.0003256581258028
1772650889532795400,4.88679541015625,0.0408288539946079,-0.0018109949447214,0.0039051816118415,0.0007454799488186,-0.0010189502499997,0.0004112594178877
1772650889542767600,4.896767578125,0.0346896205872297,0.0008386793138459,0.0083512834336608,0.0024813283234834,-0.0017443953547626,-0.0001232369686476
1772650889552739300,4.9067392578125,0.0460650010824203,-0.0156861563663929,-0.0023924480944871,0.0007351171225309,-1.37188471853e-05,-0.0016154977492988
1772650889562712300,4.91671240234375,0.0427782344967126,-0.0031248905548825,0.0052774289462715,-0.0001956573687493,-0.0005615311674773,-0.0019984603859484
1772650889572684500,4.9266845703125,0.0384463427722454,0.0146551693508401,-0.0023882559765595,-0.0008100676350295,-0.0007704256568104,-0.0011401397641748
1772650889582657500,4.936657470703125,0.047279637569189,0.0010689809383824,0.0091869214070495,-0.0012934312690049,0.0001110807061195,-0.0011686355574056
1772650889592629500,4.94662939453125,0.0299269362300634,-0.0055085708210244,0.0010214428690727,0.0020950767211616,0.0007616290822625,-0.000896010256838
1772650889602601500,4.9566015625,0.0243920984566211,-0.0007521700741723,-0.0007313464818522,-0.002366783330217,0.0011752182617783,0.000577516737394
1772650889612574500,4.966574462890625,0.0351677594929933,0.012540369153954,0.0016052523727063,-0.0003473139367997,-0.0014974689111113,0.0020607367623597
1772650889622546400,4.97654638671875,0.0342658422172069,-0.0008083207082003,-0.0069509607822168,-0.0009039146825671,0.0014362693764269,-0.0011166806798428
1772650889632518700,4.9865185546875,0.045341947504878,-0.0041208062570542,0.0069607058580964,-0.0006573083810508,-0.0015143076889216,-0.0012806613231077
1772650889642491400,4.996491455078125,0.0483335305362939,-0.0021321531904861,-0.0003501377450767,0.000548570882529,0.0011488534510135,-0.0006803848082199
1772650889652463400,5.00646337890625,0.0396609792590141,0.0115647290548309,-0.0051726168649271,0.0002998677082359,-0.0002112127840518,-0.0021668351255357
1772650889662436600,5.0164365234375,0.0176654205501079,-0.0025692659661173,0.0028376802444923,0.0007486105896532,-0.0006711406167596,-0.0002589464420452
1772650889672408300,5.026408203125,0.0368190338313579,-0.0218790196571499,0.0111965533295646,0.0016064727678894,-0.0001418511383235,0.0006956075085327
1772650889682380500,5.036380615234375,0.0468406616300344,0.0004008358858525,0.0140564910716377,0.002275192644447,-0.000750649953261,-0.0011158747365698
1772650889692353500,5.046353515625,0.0484878443151712,-0.0061219534790143,0.008416147097107,0.0002624369226396,0.0009041251614689,0.0001441828208044
1772650889702325200,5.0563251953125,0.0366670581400394,0.0007471285728737,-0.003276345656393,-0.0011410489678382,0.0013121212832629,-0.0009538385202176
1772650889712297500,5.06629736328125,0.0423503644734621,-0.0001056157989427,-0.0057826111225876,0.0002918737009167,0.0024848319590091,0.0016904983203858
1772650889722270500,5.0762705078125,0.0390554145812988,0.0044279359774664,0.0132964573514182,-0.0003400943242013,0.0015910752117633,0.0002595818950794
1772650889732242400,5.086242431640625,0.0389069460213184,-0.0029692981343716,-0.0018960885454434,0.0005050711333751,-0.0012855434324592,0.0007061382639221
1772650889742214400,5.09621435546875,0.0185556473881006,0.0057368631515651,0.0087344923312775,-0.0006656544283032,-0.0010786156635731,-0.0010406291112303
1772650889752187400,5.1061875,0.021247955211997,-0.0030300518782809,0.0010431797768454,0.0004045004025101,-0.0004240074194967,1.56347523443e-05
1772650889762159400,5.116159423828125,0.0475830044299364,-0.0127693190716207,0.0086935575326904,0.0009083705954253,0.0008428585715591,-0.0020768109243363
1772650889772132400,5.12613232421875,0.0342635041296482,-0.0092720880730077,-0.0107718525109346,0.002460160292685,-0.0002487245947122,-0.0010619480162858
1772650889782104600,5.1361044921875,0.0302238733500242,-0.0111433618376031,-0.0066915426610503,0.0011903652921319,-0.0011696459259837,0.0005495307850651
1772650889792076300,5.146076171875,0.0372568407267332,-0.0030753157921135,0.0001805167992133,0.0006022597663104,0.0002557043917477,0.0003107038210146
1772650889802049300,5.15604931640625,0.0199018013000488,-0.0075318568095564,-0.0064703011258039,-5.92693686485e-05,0.0023870323784649,0.0008297538734041
1772650889812021500,5.166021484375,0.0303740954756736,-0.0082520608428865,0.0048056741155218,-0.0019576323684304,0.0012840866111218,0.0014442158862948
1772650889821993500,5.175993408203125,0.035755788514018,-0.0061629065439105,-0.003036664282158,0.0026347222737967,-3.41781415045e-05,0.0018769796006381
1772650889831966500,5.185966552734375,0.0379980144828557,0.0001459843419492,-0.0127294711184222,0.001247470267117,0.0007525328546762,-0.0020272491965442
1772650889841938400,5.1959384765625,0.0352981078743934,0.010033610497415,-0.0020294782673008,-2.76514329016e-05,0.0010553342290222,0.0011496357619762
1772650889851910400,5.205910400390625,0.0317085589498281,0.0007696326656267,-0.0009893398309126,-0.0001331777311861,-0.0014012248720973,-0.0010590951424092
1772650889861883400,5.21588330078125,0.0222825589567422,0.0029173852840438,-0.0148679535849951,-0.0003419695422053,-0.0017841875087469,-2.6321329642e-05
1772650889871855600,5.225855712890625,0.0255734171956777,0.010487966668792,0.0024689473967999,0.0023199948482215,-0.0038925057742744,0.0025164992548525
1772650889881828600,5.23582861328125,0.0308124868929386,0.0100933413280174,0.0200561972773168,0.0005575148388743,0.0003072991967201,0.0007170011522248
1772650889891800300,5.24580029296875,0.0352998614400625,-0.0039796442206948,0.0115502986706793,-0.0015146394725888,-0.0005474798381328,0.0001117548090405
1772650889901772500,5.2557724609375,0.0225806651204824,-0.0002439282910898,-0.005219205086166,0.0013602427206933,-0.0014891736209392,0.0019442758057266
1772650889911745500,5.26574560546875,0.0436795672506094,-0.0054402182925492,0.0021893906699027,0.0001478441990911,2.23806127905e-05,-0.0007210906478576
1772650889921717500,5.275717529296875,0.0233364519238471,-0.0037682299597188,-0.0135834393329452,-0.0013251502532511,-0.0002042544074356,-0.0003027080383617
1772650889931689500,5.285689453125,0.0323164617151021,0.0002700856456533,0.0054118050488177,-0.0006787562742829,-0.0013399303425103,-0.000783605792094
1772650889941662500,5.295662353515625,0.0305213949918746,-0.0093398195469751,0.0087939217677805,0.0002584103494882,0.0030359094962477,-0.0010999892838299
1772650889951634400,5.305634521484375,0.0270826527148485,0.0076293258346617,-0.0043794206606224,0.0010210634209215,0.0020716786384582,-0.0008070371695794
1772650889961606400,5.3156064453125,0.0275303964823484,0.0038771336942911,0.0042174441650975,-0.0027736746706068,-0.0001075859181582,0.0013266874011605
1772650889971577300,5.325577392578125,0.0332125337719917,0.0020331132628023,0.0074329538791906,0.0004098680801689,0.0002817683853209,-0.0017077182419598
1772650889981550300,5.33555029296875,0.0363607686698436,-0.003823723006621,-0.008396574746957,0.0006575561128556,-0.000727659324184,-0.0014134533703327
1772650889991522600,5.3455224609375,0.0363625222355127,0.0100143578076735,0.0026408059655223,-0.0020396925974637,0.000463149510324,-0.0005537911783903
1772650890001494500,5.35549462890625,0.0321697467207908,0.0026531813899055,-0.0022255579618271,-0.0011254292912781,-0.0005224863998591,0.0016529040876775
1772650890011467500,5.365467529296875,0.0333645094633102,0.0079223904971033,0.0202569348806515,-0.0021365892607718,0.0014228774234652,-2.61656241491e-05
1772650890021439500,5.375439453125,0.0234872585713863,0.0011705781493335,-0.0027763328455388,0.0006453488022089,0.0009978371672332,-0.0011995544191449
1772650890031411500,5.385411376953125,0.0362105465441942,-0.0101609997367486,0.0062476165521424,8.7737571448e-05,0.0009003072045743,0.0017068709712475
1772650890041384400,5.395384521484375,0.0350111076265573,-0.0114443540781736,0.0111761224628891,-0.0001495499163866,-0.0014853526372462,-0.0001600048854015
1772650890051356700,5.405356689453125,0.032615152400732,-0.0075021192584186,0.0029207462849095,0.0004795375280082,0.0017204731702804,0.0030007469467818
1772650890061329400,5.415329345703125,0.0246808522701263,-0.0046923590673133,-0.0154365837858058,-0.0001793284900486,-0.0004476062022149,0.000560226093512
1772650890071301400,5.42530126953125,0.0409925201237201,-0.0067986471641808,0.0064581357639748,-0.001894848421216,-0.0014514536596834,0.0007259818958118
1772650890081273600,5.435273681640625,0.0493687188029289,-0.0062593891883268,0.0028080248917452,0.0002934709191322,-0.0001409123651683,0.0014322522329166
1772650890091246300,5.445246337890625,0.0342535672575235,-0.0015662994686514,-0.0132111171555239,-0.0003363820724189,-0.0007734785322099,0.0014905065763741
1772650890101218600,5.455218505859375,0.0379939228296279,0.0062367754977196,-0.0154514434282202,-0.0015774152707308,8.96519050002e-05,-0.0018275259062647
1772650890111190500,5.4651904296875,0.0303624050378799,0.0044023631447926,-0.0111623405327089,0.0021151667460799,0.0016077701002359,0.0027618345338851
1772650890121163300,5.475163330078125,0.0469675028800964,-0.0014372297288849,-0.0070071022830903,0.003393483813852,1.33351422846e-05,-0.0009993477724492
1772650890131135500,5.485135498046875,0.0212298350334167,-0.0058025122663006,0.0050640419239178,-0.0004973537288606,8.3949416875e-06,-0.0007080144132487
1772650890141107500,5.495107421875,0.037087329378724,-0.0001731646098196,-0.0029478808870073,0.0018691313453018,0.0006182584911584,0.0007290272624231
1772650890151080400,5.50508056640625,0.0243652104496955,0.0005959200665354,0.0008047679110895,0.0008556372486054,0.0016744928434491,-0.000149480998516
1772650890161052200,5.51505224609375,0.0281049814999103,-0.0062735638441517,-0.0125748924780637,0.0025067972019314,-0.0005465834401547,0.0018561456818133
1772650890171025200,5.525025146484375,0.0393225410848855,-0.0016273820061236,-0.0037667869213037,0.0011710552498698,0.0004916251637041,0.0005381791270337
1772650890180997400,5.534997314453125,0.0372246920228004,0.0096800112867727,-0.0137937302159145,-0.0005299057811498,0.0012713987380266,-0.0013526652473956
1772650890190969300,5.54496923828125,0.0297474880099296,0.0025310528475791,-0.0126997518335934,-0.0011313473805785,0.0008768760599195,0.0005690398393198
1772650890200942300,5.5549423828125,0.0388718747079372,-0.0046544382097199,0.0051924723428674,0.0001139468513429,-0.0008999847341328,0.0002262910129502
1772650890210914300,5.564914306640625,0.0373737451046705,-0.0056675242424011,0.0090516593885142,-0.0023727912921458,0.0009444649331271,-0.0008858678047545
1772650890220886300,5.57488623046875,0.0300426715642213,0.0115850046578794,-0.0039637890644371,0.0007771956734359,0.0021697855554521,-0.0010389995295554
1772650890230859300,5.584859375,0.0301923091679811,0.010369089529477,-0.0023831414100248,-0.0001917877234518,-0.0014727308880537,-0.0012965130154043
1772650890240831500,5.59483154296875,0.0357318231165409,0.0047464638747274,-0.0050621148283127,0.0018050502985715,-0.0005597993731498,-0.0021758889779448
1772650890250803200,5.60480322265625,0.0337877033114433,0.0028020883413031,0.0078882142328657,-0.0012286575511097,-0.0011029597371816,0.0008032123441807
1772650890260776200,5.614776123046875,0.0316945304244756,0.0113088180650025,0.0101988018633332,0.0002515274100005,0.0005354168824851,0.0012016212567687
1772650890270748400,5.62474853515625,0.0266045138090848,0.0190297677058726,-0.0036811179318465,0.001289143692702,-6.06724061071e-05,-0.0004095772164873
1772650890280721400,5.634721435546875,0.0307972893238067,0.004795161854662,0.0072605838538147,-0.0006136847659945,-0.0017051745671778,-0.0007131776073947
1772650890290693400,5.644693359375,0.031246202135086,-0.0118280926987528,-0.0174503347610123,-0.0012736613862216,-0.0023702110629528,-0.0019588815048336
1772650890300665300,5.654665283203125,0.040080665975809,-0.0016388532482087,0.005705956556648,-0.0005713859573006,-0.0006623258814215,0.0003127948730252
1772650890310638300,5.664638427734375,0.0273678993970155,-0.011235862426646,-0.0005292845711112,0.0007155206985771,0.0003470592200756,-0.0022403635084629
1772650890320611300,5.674611328125,0.0254267022013664,-0.0026560674667358,0.0086749989626929,0.0010811728425323,-0.0003373729996383,-0.0014834930188953
1772650890330583300,5.684583251953125,0.035755788514018,0.0055876639392226,0.0088274404448922,0.0005109901539981,-0.000167463440448,-0.0030848518945276
1772650890340556300,5.694556396484375,0.0366553677022457,0.0049438130777329,0.0099020017406903,-0.0030950789805501,0.0017410302534699,-0.0005676472210325
1772650890350528300,5.7045283203125,0.0344125572115182,0.0003862959038466,-0.0013635069055482,0.0013875537551939,0.0006416775286197,-0.0011705869110301
1772650890360501200,5.714501220703125,0.0306745397269725,0.0146462188594043,0.0046024796936195,0.0011696796864271,0.0015465044416487,-0.0020541155245155
1772650890370473500,5.724473388671875,0.0326209976196289,0.0013027531616389,-0.015441670952877,0.0003486271016299,0.0012988308444619,-6.12720032222e-05
1772650890380445200,5.734445068359375,0.0311205299288034,-0.0094963252829387,-0.014237528460659,0.0007427507080137,0.0001861518248915,-0.0005876256036572
1772650890390418200,5.744418212890625,0.039795419293642,-0.0060974400922656,-0.0060792742479126,-0.0013717992696911,0.0022298619151115,0.0001828268868848
1772650890400390400,5.754390380859375,0.0360509720683097,0.0054622474612668,-0.0070015036593656,-0.0019294852390885,0.0008379919454455,-0.0020472579635679
1772650890410362400,5.7643623046875,0.0312654913574457,-0.0037711525691673,-0.0134553011749405,0.0009235590696334,-0.0018480725120753,0.0021426933817565
1772650890420335400,5.77433544921875,0.0290226808667182,-0.0040211452748626,-0.0077108027061913,-0.001415844541043,0.0005097058601677,-0.0027358164079487
1772650890430307300,5.784307373046875,0.0418932683557271,-0.010959639301151,0.0032038375426083,0.0003977683372795,-0.0007805956993252,0.0020232521928846
1772650890440280300,5.7942802734375,0.0450327354252338,0.006664243662171,0.0109143662541639,0.0015831068158149,-0.0020550689660012,0.0036869868636131
1772650890450252300,5.804252197265625,0.0397936657279729,0.0075482964877039,0.0104635902793612,0.0013641947880387,-0.002890236210078,0.0011569836642593
1772650890460224500,5.814224609375,0.0400911873698234,0.0001277545655146,0.0088600823391694,-0.0002114214003086,0.0013501117937266,-0.002280636690557
1772650890470197500,5.824197509765625,0.027969372421503,-0.0040014907263219,0.0095109383301809,0.0008975188247859,-0.001840621465817,0.0027226442471146
1772650890480169200,5.834169189453125,0.0418856695711612,0.0026226035885512,-0.0137476169187109,-3.23392450809e-05,-0.0002390914596617,-0.0017933881608769
1772650890490141400,5.844141357421875,0.0290180046916007,0.0046656171908602,0.02167336841668,0.0016957856714725,-0.0001205806620419,-0.0015166857047006
1772650890500114400,5.854114501953125,0.0279711259871721,0.0091631112731993,-0.0013053469775244,0.0002993252128362,-0.0003221216611564,0.0012866908218711
1772650890510086400,5.86408642578125,0.0336561858862638,-0.0036010566992685,0.0055939018837641,-0.0014122885186225,-0.0023344061337411,0.0025919061154127
1772650890520058400,5.874058349609375,0.0418885921806097,0.0018505232375115,0.0109304771387483,-0.001864684280008,0.0002845111303031,-0.0012399748666211
1772650890530031400,5.88403125,0.0216898537606,-0.0115917266596108,0.0106848500809166,-0.0004694540984928,-0.0005152360536158,-0.0001206482411362
1772650890540003300,5.89400341796875,0.046526188853383,0.0003250672359019,0.014537662184704,-0.0012736520729959,0.0020210747607052,0.0029293168336153
1772650890549976300,5.903976318359375,0.0294680865466594,-0.0065762365851551,-0.0065496591054834,0.0020252056419849,-0.0017648749053478,-0.0008270718390122
1772650890559948500,5.913948486328125,0.0397995109468698,-0.0018064649000763,0.0024843458953313,-0.0002343072555959,0.0001806281507015,-0.0012044083559885
1772650890569920300,5.923920166015625,0.0351642523616552,0.0052127662122249,0.0002629343856591,-0.0002928972244262,-0.0006979485042393,-0.0027272040024399
1772650890579893200,5.933893310546875,0.0371112947762012,-0.0129905240742489,-0.0104377434520516,-0.0007264828309416,0.0012855273671448,-0.0010829726234078
1772650890589865500,5.943865478515625,0.025738836890459,0.000458520889841,0.0114898828534875,-0.0020695151761174,-0.0009952036198228,-0.0022787319030612
1772650890599837200,5.953837158203125,0.0326239202290773,0.0031822832979261,0.0127320375348441,-0.0010236860252916,0.0026154522784054,0.0002536317333579
1772650890609810400,5.963810546875,0.038308980128169,-0.000914265300706,0.0029750885543413,0.0001318594440817,-0.0035817236639559,-0.0010313434759154
1772650890619782400,5.973782470703125,0.0261912568330764,0.0021857830738648,-0.0035008020620327,-0.0006819139234721,0.0004412205889821,6.13091979175e-05
1772650890629754400,5.98375439453125,0.028584873971343,0.0039753699043765,-0.0160058715737424,0.0014076023362576,0.0009911633096635,0.001299679162912
1772650890639727400,5.993727294921875,0.0465408019006252,-0.0010840689096599,-0.0042849655765108,0.0016198311932384,-0.0032559197861701,0.0013645710423588
1772650890649699300,6.00369921875,0.0405588048815727,-0.0041404242729768,-0.004172390313819,0.0002957074902951,-9.9008437246e-05,-0.0002719413896556
1772650890659672300,6.01367236328125,0.0257400059342384,-0.0147281980544328,0.0101334998084697,-0.0017731506377458,0.000313192140311,0.0019161315867677
1772650890669644300,6.023644287109375,0.0366635510087013,-0.0071159694850444,-0.0050392545425333,-0.0021182964555919,-0.0007920197676867,0.0011251728283241
1772650890679616500,6.033616455078125,0.0378606518387794,0.0089298139739781,0.0140513491056393,-0.0002491292543709,0.0003192098811268,0.0014714426361024
1772650890689589200,6.04358935546875,0.0425000020772218,0.0007074541496112,0.0075246781500987,-0.0005881492979824,-0.0017093198839575,0.0008746282546781
1772650890699561500,6.0535615234375,0.034866146197915,-0.0044331601418554,0.002173033190146,0.0005034292116761,0.0012788171879947,-0.0008667926886118
1772650890709533200,6.063533203125,0.0179623576700687,0.003246361510083,0.0041026860784739,0.0023199710994958,0.0005576331168413,0.0001611874904483
1772650890719506200,6.073506103515625,0.0368120195686817,0.0057855611314997,-0.0026197814438026,-0.000121550168842,-0.0014479074161499,0.000751934654545
1772650890729478400,6.083478515625,0.0357668944299221,0.0016760799860581,0.005481911142962,-0.0014177106786519,0.0021199295297265,0.0011223803739994
1772650890739450000,6.0934501953125,0.0411497565120458,-0.0072542454445734,0.0135098626400809,-0.0004340889863669,0.0007109157741069,-0.0001849255640991
1772650890749423400,6.10342333984375,0.0317220029532909,-0.008078932765685,-0.0188761663130484,-0.0007744408212602,0.0026124124415218,0.0004619562532752
1772650890759395300,6.113395263671875,0.0413011476814746,0.0073737436383962,0.0018653646136168,0.0002850363962352,0.0010096924379467,-0.0019070461858063
1772650890769368300,6.123368408203125,0.037859482795,-0.0192662433428689,0.0046927426598034,-0.0006830226629972,-0.0004119030199944,-0.0002569514908827
1772650890779340300,6.13334033203125,0.0389086995869874,0.0013868877811357,0.0006226071440614,-0.0014595368411391,0.0001322198659181,-0.000859982566908
1772650890789312300,6.143312255859375,0.0273889421850442,0.0057999549830332,-0.0038489579125773,-0.0017213255632668,-0.0016901812050491,-0.0010975365294143
1772650890799285500,6.153285400390625,0.0429524220198392,0.0070911638373509,-0.0170580201083328,-0.0005681179463863,-0.0009500521700829,0.0006763624842278
1772650890809257200,6.16325732421875,0.026647183907032,-0.0110134153150022,-0.008203171066707,0.0005924878641963,0.0007796711288392,-0.0003968914679717
1772650890819229400,6.1732294921875,0.0261947639644145,0.0035588249927386,-0.0012813998463563,0.0006026104092597,-0.0005364133976399,0.000841709494125
1772650890829202400,6.183202392578125,0.0362216524600982,0.0099148064233362,-0.0061547506369184,-0.0009265765547752,-0.003570020198822,-0.0002214243286289
1772650890839174100,6.193174072265625,0.0371218161702156,0.009766410928592,0.0020895470246206,0.0004226732999086,-0.0005227490328252,0.00200598500669
1772650890849147400,6.2031474609375,0.0471428594470024,0.0165941380567848,-0.0140354117509908,-0.0008684271015226,0.0008447840809822,-0.0012550557730719
1772650890859119400,6.213119384765625,0.0460989033520221,0.0056725657436996,-0.0156216854285914,0.0005944822914898,0.0006937067955732,-0.0003520520112942
1772650890869091300,6.22309130859375,0.029789573585987,0.0087719199985265,-0.0132264517219737,-0.0023059665691107,2.04597599804e-05,0.0008186735794879
1772650890879064300,6.233064208984375,0.0230552968949079,-0.0054379898028448,-0.0065302785515785,0.0015859184786677,0.0027056238614022,0.0003648622659966
1772650890889036500,6.24303662109375,0.0378705887109041,-0.0095120708413422,0.0075480316262226,-0.0009709824807941,-0.0006984288338571,0.0007992238970473
1772650890899008300,6.25300830078125,0.0416115288048982,-0.0043082916531711,0.0107550109739881,-0.0001275273971259,0.0011449046432971,-0.000243337941356
1772650890908981200,6.262981201171875,0.0381704484403133,0.0004637815868481,-0.002999930734653,0.0007499842904508,0.0001720516011118,-0.0009703809046186
1772650890918953500,6.272953369140625,0.0399678532510995,-0.0006150631584227,-0.0204338897495996,-0.0002957605756819,-0.0020477951038628,-0.0005015877541154
1772650890928925200,6.28292529296875,0.0347328752070665,-0.0043834757812321,-0.0079324095676187,-0.001239851117134,0.0012569213286042,0.001840928569436
1772650890938898400,6.2928984375,0.0309913505911827,-0.0020331132628023,0.0134986836589407,-0.0005619511939585,0.0010597673244774,0.001511238515377
1772650890948870400,6.302870361328125,0.0278507144778966,0.0136580115396529,0.0159666994739789,-7.13965855538e-05,0.0017452649772167,-0.0012403395958244
1772650890958843100,6.312843017578125,0.0254541747301816,0.0098056469604372,-0.0143381940898485,-0.0001497524790465,0.0014994237571954,-0.0001215310185216
1772650890968815400,6.3228154296875,0.0267974060326814,0.0050919528441503,-0.0041148971060756,-0.0011740042828023,0.0007074000313878,0.001734692370519
1772650890978787300,6.332787353515625,0.0235024561405181,-0.002594436939992,-0.0054622748607303,0.0002584760077297,0.0001633325591683,-0.0009510929812677
1772650890988760300,6.34276025390625,0.0434089336156845,0.0127173331560567,-0.005197879170347,-0.0002310127019882,-0.0013618594966828,-0.0023604377638548
1772650890998732300,6.352732177734375,0.0422112482637166,-0.0021940029129385,-0.0104869985544122,0.0011977963149547,-0.0004167635925114,0.000883670116309
1772650891008704500,6.36270458984375,0.037574236112833,0.0060174336586147,-0.0054844866925384,-0.0026901522651314,-0.0002670940011739,-0.000770951854065
1772650891018677200,6.37267724609375,0.0327870018362998,-0.0028924335058778,-0.0042328517967835,-0.0019654962234199,-0.000874845078215,-0.0013105112593621
1772650891028649200,6.382649169921875,0.0330903686970472,-0.0052619025835767,-0.0185915224190801,-0.0019620340317487,-0.0006354269571602,0.0002698083990253
1772650891038621400,6.392621337890625,0.0354869084447622,-0.0060616746591404,-0.0130158777112141,-0.0015068158973008,0.0008749635890126,-0.0002749444101937
1772650891048594200,6.40259423828125,0.0351864641934633,0.0050048956152051,-0.0168368699046317,0.0004783044569194,0.0003316784277558,0.0031549409031867
1772650891058566400,6.41256640625,0.0353337637096643,0.0070270490925759,0.0121718281025066,-0.0028527725953608,0.0013520647771656,-0.0005058695096522
1772650891068539400,6.422539306640625,0.0309878434598445,-0.0140988506423309,-0.0026659952057059,-0.0008972133509814,0.0002202214673161,0.0015988266095519
1772650891078511400,6.432511474609375,0.0435574021756649,0.0010610168276354,0.0023724921518471,0.0003188755363225,6.52391463518e-05,-0.0002527416218072
1772650891088483300,6.4424833984375,0.0366758259683847,-0.00855338187702,-0.0117817054069135,-0.0008744867518544,-0.0002442202530801,-0.0001568678417243
1772650891098456300,6.452456298828125,0.0422153399169445,-0.0020386662207543,-0.0235373630571179,0.0005296077579259,0.0001600445248186,-0.0016963637899607
1772650891108428300,6.46242822265625,0.0295008197724819,0.004474953456968,-0.0121721386297605,0.0011828811839222,-0.0014961755368858,-0.0013807790819555
1772650891118400300,6.472400146484375,0.041772272324562,0.0088420626252889,-0.0106741186243481,-0.0006260108202695,-0.0025202655233442,0.0005819307407364
1772650891128373500,6.48237353515625,0.0513508325308561,-0.0089403353679925,0.0013348835992626,-0.001161572523415,-0.0002965261228382,-0.0005789410788565
1772650891138345200,6.49234521484375,0.0272580092817544,-0.0101231519443914,-0.0148659808236174,0.0011159894056618,0.0007865671068429,0.0013263971777632
1772650891148317400,6.5023173828125,0.0356371305704116,-0.0124701899945735,0.0043168402858078,-0.0022811389062553,-0.0015580798499286,0.0004755173576995
1772650891158290400,6.51229052734375,0.0221709152758121,-0.0126440121915191,-0.0072984955782536,0.0004917243495583,-0.000659889075905,0.002675890456885
1772650891168262100,6.52226220703125,0.0381815543562173,0.0053633536640554,0.0011363744856324,0.0008174288086593,0.0010296204127371,-2.24242685362e-05
1772650891178235400,6.5322353515625,0.039228433060646,0.0092225863754749,0.002080130742304,0.0010679471306502,0.0008296347223222,-0.0018663947703316
1772650891188207400,6.542207275390625,0.0320475816458463,-0.0002758212666958,0.0008552833887748,-0.0012764339335262,-0.0014399113133549,-0.0008613178506493
1772650891198179300,6.552179443359375,0.0374333663374185,0.0037645401652902,0.0051237270887475,0.0014047934673726,0.0013333996757864,-0.0016357309650629
1772650891208152300,6.56215234375,0.0315992533564567,0.0008753580624237,0.0073662179190665,-0.0003086845390498,-0.0009241618681699,-0.0023441319353878
1772650891218124300,6.572124267578125,0.0410264223933219,0.0149388816630467,0.0040785745505243,-0.0007077422924339,0.000148915220052,-0.0001159059465862
1772650891228096300,6.58209619140625,0.025610242074728,-0.0103933106552809,0.0061725420219358,-0.0013378465082496,0.0008202982135117,0.0015746688004583
1772650891238069200,6.5920693359375,0.0308475582063198,-0.0127563499921932,0.0054637726980727,-0.0009914231486618,-0.0004868165124207,-0.0011760925408452
1772650891248041500,6.60204150390625,0.0411719683438539,0.0033810938056558,-0.0037317795400042,0.0004860986955463,0.0003094687126576,-0.0020237765274941
1772650891258013200,6.61201318359375,0.0245674550235271,0.0093743428710848,0.006792473151721,0.0002881991676986,-0.0013990139123052,-0.0023343241773545
1772650891267986200,6.621986083984375,0.0280143806070089,-0.0206946321781724,-0.0014059852072503,0.0025391029193997,0.0013118176721036,-0.001290364889428
1772650891277958400,6.63195849609375,0.0340033918887376,-0.005451945262961,0.0197124984061811,-0.0013312005903571,0.000887309666723,0.0004178188391961
1772650891287931400,6.641931396484375,0.0260731834113597,0.0021472411617636,0.0053451147544663,-0.0021740910597145,-0.0006051259115338,-0.001188067253679
1772650891297903400,6.6519033203125,0.0390969156354665,-0.0133670657690614,-0.0132180948855821,0.0024863891303539,-0.0015470467042177,-0.0006924582412466
1772650891307875300,6.661875244140625,0.0420908367544412,-0.0074309537183493,-0.013696690449072,0.0002666446380317,0.0013211779296398,-0.0019172460306435
1772650891317848300,6.671848388671875,0.0368488444477319,-0.0013318696582689,0.0016111797899939,0.0009753382764756,0.0021235481835901,0.0003802131395787
1772650891327820300,6.6818203125,0.0407382531017065,-9.84188731759e-05,-0.0046751796036493,-0.0023141982965171,-0.0003555887378752,-0.0008927778108045
1772650891337792500,6.69179248046875,0.0230839384675025,-0.006942877940461,-0.0090623908450827,-0.0016341663431376,0.0013110535219311,0.001673698076047
1772650891347765500,6.701765625,0.0301110606253147,0.008783172044903,-0.0079069371996447,0.00044283317402,0.0003994535654783,0.0008393296739086
1772650891357737200,6.7117373046875,0.0356453138768672,-0.0075115812065079,-0.0172986695969477,-0.0029401564970612,-0.0001257718540728,0.0008504752186127
1772650891367709400,6.72170947265625,0.0368394920974969,-0.0067872489873319,-0.0060066839357372,-0.0003550262190401,-0.0027362024411559,-4.2216386646e-05
1772650891377682400,6.731682373046875,0.0248661457091569,0.0162128105890005,0.0033606538058258,-0.001330274157226,0.0010805688798427,0.0009819504339247
1772650891387654400,6.741654296875,0.0232189630240201,0.0189499074026942,0.0009839969355147,-0.0014165604952722,0.0004025283269584,0.0015007341280579
1772650891397627400,6.75162744140625,0.0392231723636388,-0.0082233096724376,0.0004870528645813,-0.0003983946517109,0.0022512497380375,0.0027864617295563
1772650891407599400,6.761599365234375,0.0450543627351522,-0.010623831475526,0.0018254983941093,-0.00097177317366,0.0021284776739776,0.0017454320332035
1772650891417571300,6.7715712890625,0.0227542681217193,-0.0194803610175848,0.014709182826709,0.0007302649319171,-0.0016712190117686,-0.0010157141368836
1772650891427544300,6.78154443359375,0.0401157372891902,-0.0065109527966007,-0.0079138327313121,-0.0017576601821929,0.0005400036461651,-0.0004902724176645
1772650891437516500,6.7915166015625,0.0309890125036239,-0.0080578534450382,-0.007068504480971,0.0014491393230855,0.0005962043069303,0.0014883438125252
1772650891447488300,6.80148828125,0.0242494751155376,0.0063125076150521,-0.0066426894174888,-0.0012198807671666,-0.0009002259466797,-0.0009274096228182
1772650891457461200,6.811461181640625,0.0414636447668075,0.0007767930587753,-0.0025260113462805,-0.0001144665293395,-0.000614987919107,0.0015060326550155
1772650891467433200,6.82143310546875,0.0354810632258653,0.0122190282450988,0.0078017780584283,0.0011803624220192,0.0008556097745895,-0.0014159877318888
1772650891477406200,6.83140625,0.0335357743769884,0.0017094342663884,-0.0136655372589826,-0.000991886947304,-0.0003269910812377,0.0008801631629467
1772650891487378400,6.84137841796875,0.0287450329691171,-0.0105921942282468,-0.0026510442317463,0.0020228112116456,-0.0019184958655387,0.0023313197307288
1772650891497350100,6.85135009765625,0.0303822787821292,0.0004521642142906,-0.0027978505576029,0.0016467268578708,-0.0024620806798338,0.0008070474141277
1772650891507323400,6.861323486328125,0.0405576358377933,0.0034560587380081,-0.0009650913056451,-0.0010542511008679,-0.0010913517326116,0.000927954853978
1772650891517295400,6.87129541015625,0.0374164152026176,0.0042196269890293,-0.016886170672765,-0.0010084444656968,-2.58139334619e-05,-0.0014693904668092
1772650891527267300,6.881267333984375,0.0299368731021881,-0.0059855772156268,-0.0109621417854912,-0.0023871632292866,-0.0007419378962367,-0.0002392764436081
1772650891537240300,6.891240234375,0.0360702612906694,0.0010655468722805,0.0118841611343901,-0.0024568189401179,-0.0004571080207824,0.0008003161055967
1772650891547212300,6.90121240234375,0.0374181687682867,0.0008582607971504,0.0148221325487364,0.000372789800167,-0.0005487205926328,-2.55301711149e-05
1772650891557184300,6.911184326171875,0.0378641589701175,-0.0083696228079497,-0.0133965841244906,0.0003322376869618,0.0021536876447498,0.0006240108050405
1772650891567157200,6.9211572265625,0.034718846681714,-0.0020573709212243,-0.0069722684317268,-0.0007213088683784,-0.0016359905712306,0.0012919314904138
1772650891577129500,6.93112939453125,0.0387625691145658,0.010260624186322,-0.0051600953100714,-0.0020431478042155,0.0010170335881412,-0.0011849305592477
1772650891587101200,6.94110107421875,0.0396609792590141,0.0008193535588681,-0.0006536690026056,0.0002333223819732,0.00048333639279,0.0019453489221632
1772650891597074200,6.95107421875,0.0441471847623586,-0.0017805632738396,0.0017500676708761,0.0003922516480088,-0.0001192758791148,0.0006648993003182
1772650891607046400,6.96104638671875,0.0475906032145023,0.0087192034306004,0.0014731595587916,-0.0003457106649875,0.0002833940088748,0.0015799612738192
1772650891617019400,6.971019287109375,0.0320259543359279,-4.77846644818e-05,-0.0041128147468436,-0.0011260448954999,0.00106459017843,0.0012769636232405
1772650891626991400,6.980991455078125,0.0374094009399414,-0.0014405176645144,-0.0102304756432306,-0.0001542572863399,-0.0005365023389458,0.0006226249388419
1772650891636963300,6.99096337890625,0.0366612129211425,-0.008748867916502,0.0119663503919728,0.0002930592745542,-0.0016114877071231,0.0003536643926054
1772650891646936300,7.000936279296875,0.0335188232421874,-0.0037289939278736,-0.0061191130679566,0.000508242752403,-0.0006085413042455,-0.000484698684886
1772650891656908300,7.010908203125,0.0465425554662942,-0.0063499170159921,0.0021409118856769,-0.002823973307386,0.0030382433906197,-0.002257150132209
1772650891666880300,7.02088037109375,0.0338245281904935,-0.0033081381672993,0.0105270200375467,-0.0024109170772135,9.94452275335e-05,0.0001215855008922
1772650891676853500,7.030853515625,0.0288864872664213,-0.0037515710858628,-0.0104217330321669,0.0008095246739685,0.0017659347504377,0.0017609487986192
1772650891686825200,7.0408251953125,0.0309802446752786,0.00824910170082,-0.0026753475559409,0.0029720114544034,-2.63727270066e-05,0.0016195349162444
1772650891696798200,7.050798095703125,0.0371107102543115,0.0056334758423268,-0.0058221576816868,-0.0003556073643267,1.9141472876e-05,0.0006507365615107
1772650891706770400,7.0607705078125,0.0541658899515867,-0.0055132104635238,-0.0081296491727698,0.0004105838015675,-0.0002501038834452,-0.0012377109378576
1772650891716742400,7.070742431640625,0.0296241538912057,0.0022571312770247,-0.0103124091724865,-0.0032897079363465,0.0008458895608782,-0.0034457268193364
1772650891726715400,7.08071533203125,0.0477297194242477,-0.0106509386781603,0.0076273896059021,-0.0002427855506539,-0.0007328321225941,0.0007402296178042
1772650891736687400,7.090687255859375,0.0399473949849605,-0.0031208719668909,-0.0075711385071743,-0.0008174893446266,-0.0025969096459448,-0.000346354645444
1772650891746659300,7.100659423828125,0.0309685542374849,0.004839183659479,-0.0006678162589669,-0.0009778114035725,0.0001863599754869,-0.0016654182691127
1772650891756632300,7.11063232421875,0.0288736277848482,0.0065013081854209,-0.014577345741121,-0.0010419217869639,0.0009044143371284,0.00125051534269
1772650891766604500,7.1206044921875,0.0281254397660493,0.0109230701504275,-0.0039432485999073,-0.0002618818543851,0.001803764142096,-0.0006581721827387
1772650891776576300,7.130576171875,0.0315706117838621,-0.008060922184959,0.0010859868721105,-0.001052894629538,0.0014873053878545,-0.0009830098133534
1772650891786549200,7.14054931640625,0.0369569809973239,-0.0048182504693046,0.0021456702591851,0.0001580445095896,0.0006050001829862,-0.0015145768411457
1772650891796521500,7.150521484375,0.0359060106396675,-0.0002871463783085,0.0120371962716337,-0.0003368980251252,0.0012852973304688,0.0022519272752106
1772650891806494200,7.160494140625,0.0300689750492572,-0.0033698782918974,0.002352362679271,0.0005829581059515,-0.0018138231243938,-0.0009878081036731
1772650891816466400,7.170466552734375,0.0288753813505172,-0.0128786977302283,0.0015276662250049,-0.0024714032188057,-0.0001672194339334,0.000273176759947
1772650891826438400,7.1804384765625,0.014507833302021,-0.0120584308559075,-0.0041822997864801,0.0009757922962307,-0.0008151663932949,-0.000613655836787
1772650891836411100,7.1904111328125,0.0432423448771238,-0.008096979879029,-0.0006289912190753,0.0005068331956863,0.0007673422805964,-0.0009611370041966
1772650891846383400,7.20038330078125,0.0335176541984081,-0.0133404334904626,0.0111562578517943,0.0009830063208937,-0.0003748871386051,0.0009403600124642
1772650891856355300,7.210355224609375,0.0263344646960496,0.0057011707836762,-0.006462528811302,-0.0017108984757214,0.0016359193250536,-0.0021720773074775
1772650891866328300,7.220328369140625,0.0255932909399271,0.0182208624757826,0.001815862916084,0.0030404473654925,-0.0005518677644431,-0.0022700817789882
1772650891876300300,7.23030029296875,0.0374169997245073,0.0087548592658713,0.0069706518633756,0.001910803373903,-0.0001291381195187,-0.0001827357336878
1772650891886272500,7.2402724609375,0.0472919125288724,0.0059162383064627,-0.0004176591564901,0.0011741728521883,-0.0014087869785726,0.0012596321757882
1772650891896245200,7.250245361328125,0.0496843606233596,-0.0073100307524204,-0.0072181238184217,0.0007379031740128,-0.0016416083090007,-0.0006776442751288
1772650891906217200,7.26021728515625,0.0402571915864944,-0.0029532237824052,0.0016574666171334,-0.001353743718937,0.0022814939729869,-0.001540774712339
1772650891916190500,7.2701904296875,0.0254401462048292,-0.0094583678927272,-0.0036075503721367,-0.0003615161404013,6.62202946841e-05,0.000229615252465
1772650891926162200,7.280162109375,0.0275327345699071,-0.0139021955590695,-0.0039732692788355,0.0010105445981025,-5.4189004004e-06,0.0002024510176852
1772650891936134400,7.290134521484375,0.030972061368823,-0.0007669292518869,0.002112699571345,-0.0003105495125055,-0.0012351453769952,0.0001649816404096
1772650891946107400,7.300107421875,0.0381552508711814,0.0034219372726976,0.0091741897896397,0.0005427272990345,0.0012850039638578,0.0008177224663086
1772650891956079400,7.310079345703125,0.0344137262552976,0.0106129082227125,0.0016841080288868,0.0030937320552766,-0.0021147765219211,-0.000395819399273
1772650891966051300,7.32005126953125,0.0326209976196289,-0.0026224209254607,-0.0060726892434991,0.0007315087132155,0.0024181897751986,-0.0006972892442718
1772650891976024300,7.3300244140625,0.0345633638590574,-0.0067327423211187,0.005284881600365,-0.0005974848754703,-0.0011168522760272,-0.0005361644434742
1772650891985996300,7.339996337890625,0.028428222104907,-0.005546199417673,0.0069026189953088,-0.0011674016714096,0.0002765133976936,-0.0024821362458169
1772650891995968300,7.34996826171875,0.0401011242419481,0.0134273445889353,0.0064566653260961,-0.0010290211066603,0.0003160517662763,0.00010328553617
1772650892005941500,7.35994140625,0.0309732304126024,0.0041381957832723,0.0026934951339848,0.0045835906639695,-0.0007595992647111,-0.0012317571090534
1772650892015913200,7.369913330078125,0.050575171983242,-0.0121510775754228,0.0039149084214121,-0.0006741061806678,-0.0001669265329837,-0.0013153415638953
1772650892025886200,7.37988623046875,0.040401568493247,0.0024557225890457,-0.0086556732077151,0.0009120726026594,-0.0024356734938919,0.0019528896082192
1772650892035858400,7.3898583984375,0.0299228445768356,-0.0010346037447452,-0.013517863283446,-0.0008171931840479,0.0025327154435217,-0.0011421712115406
1772650892045830100,7.399830078125,0.0465372947692871,-0.0030728315740823,-0.0102455910139717,0.0003356891684234,-0.0025952011346817,-0.0001019404735416
1772650892055803400,7.409803466796875,0.0318774857759475,0.010127864652127,-0.0076516381311696,0.0015931488014757,0.001962661743164,-0.0015116441063582
1772650892065775400,7.419775390625,0.0291875160396099,-0.0064178676856681,0.0152963715975172,0.0001294752582907,-0.0014919908717274,-0.001922303577885
1772650892075747300,7.429747314453125,0.0285901346683502,0.0036016046885401,0.0077403667273931,0.0025291014462709,0.0009516696445643,0.0009909404907375
1772650892085720300,7.43972021484375,0.0270884979337453,0.0080548943029716,0.0061481108335778,-0.0023777729365974,0.0008467412553727,0.002629849826917
1772650892095692300,7.4496923828125,0.034571547165513,0.0021594065235927,0.0059379295484628,-0.0007926188409328,0.0023329788818955,-0.0041976887732744
1772650892105664300,7.459664306640625,0.0344289238244295,-0.0086732819296419,-0.0033110881762113,-0.0018911729566752,-0.001704373396933,-0.0009174734586849
1772650892115637200,7.46963720703125,0.0447521649181842,-0.0054900122510269,0.0096557536283507,-0.0008227718062698,-0.0007018817123025,-1.51978456415e-05
1772650892125609500,7.479609375,0.0531324552506208,-0.0130611050924286,-0.0054036674081347,-0.0009466088376939,-0.0015591534320265,-0.0008759315242059
1772650892135582500,7.48958251953125,0.0347264454662799,-0.0106507560150697,0.0067024202480912,0.0001268754713237,0.0014221351593732,0.0016586433630436
1772650892145554400,7.499554443359375,0.0414566305041313,0.0106707758897915,0.0027105741329491,-0.0002848492003977,0.0030543869361281,0.0005052284686826
1772650892155527000,7.50952685546875,0.0405517906188964,0.0092784812811762,-0.0208794415600132,-0.0011766171082854,0.0020178584381937,0.0006982408231124
1772650892165500000,7.5195,0.035912440380454,-0.0123943117467686,-0.0099210809004958,0.0020173122175037,-0.0028008653316646,0.0004026299575343
1772650892175472000,7.52947216796875,0.0442944842785596,-0.0092454192617908,0.0067160286483354,-5.634501576423646e-08,0.0004492765292525,-0.0019256400410085
1772650892185443800,7.53944384765625,0.0496831915795803,-0.0097333489092066,0.0101782705319579,0.0005600065924227,0.0007584695704281,0.0002927732421085
1772650892195416800,7.549416748046875,0.0333732772916555,-0.0036032851889729,-0.0008676040142308,-0.0004711933434009,-0.0019947015680372,-0.0013712450163438
1772650892205389000,7.55938916015625,0.0336766441524028,-7.31017688289e-05,0.0015397493884433,-0.0005159345455467,-0.0024924464523792,-0.0006255598855204
1772650892215360800,7.56936083984375,0.0392114819258451,0.0065414210001006,0.0099885292466729,-0.0007608323357999,0.001949327532202,0.0006758887902833
1772650892225334000,7.579333984375,0.0264952082157135,-0.0010479016177356,-0.0024469730270095,-0.0002180798910558,0.0002781939692795,-0.0010322626912966
1772650892235306000,7.589305908203125,0.0410147319555282,-0.0194148215007036,-0.0085261376770678,-9.58698801696e-05,-0.0014856804627925,-0.001124307163991
1772650892245279000,7.599279052734375,0.0486462497472763,-0.0110131230540573,0.0003503204081673,-0.0025198787916451,-0.0002377233467996,-0.0004007262759841
1772650892255251000,7.6092509765625,0.0299421337991952,-0.0093550536487251,-0.0188757918537128,-0.0009625582024455,-0.0020468644797801,-0.002582455985248
1772650892265223000,7.619222900390625,0.0353285030126571,0.0093308690555393,-0.0216358494178857,0.0003008455969393,0.000617095734924,-0.0009898856515064
1772650892275196200,7.629196044921875,0.0371212316483259,-0.0033112799724563,0.0003324376916047,-0.0017823036760091,-0.0002922532148659,0.0006381181301549
1772650892285167900,7.63916796875,0.0390682740628719,0.0042637949243187,-0.0026652645533438,-0.0005995938554406,0.0011218851432204,0.0009310657624155
1772650892295140000,7.64914013671875,0.038463878428936,0.0138519997417926,0.0020820030389819,0.000853665638715,0.0003294618800282,0.0013381285825744
1772650892305113000,7.659113037109375,0.0236491711348295,-0.0014770868152379,0.0092313724701292,-0.0004006833769381,0.0008245431818068,0.0004997655050829
1772650892315085000,7.6690849609375,0.036811435046792,0.0090627927038818,0.0154398169225081,-0.0012644035741686,-0.0007466448005288,0.0022796047851443
1772650892325057000,7.67905712890625,0.0219955587089061,0.0022017112953588,-0.0021516068096272,-0.0003932835534214,0.0013948027044534,-0.0004701088764704
1772650892335029800,7.68902978515625,0.0423445192545652,-0.0112279713811352,0.0015797982710413,-0.001125103328377,-0.0002246852964162,0.0010005596559494
1772650892345002000,7.699001953125,0.0297726224511861,-0.003966529010795,0.0120726968432776,0.0015915874391794,0.0011724093928933,0.0012863168958574
1772650892354975000,7.70897509765625,0.0306640183329582,0.0119157709822058,0.0082604085461236,-0.0018601350020617,0.0013816161081194,3.67264146916e-05
1772650892364947000,7.718947021484375,0.0357499432951211,0.0053442471047863,0.0039507195203099,-0.001441485946998,0.0029249181970953,-0.0011071013286709
1772650892374919000,7.7289189453125,0.0236328045219182,-0.0089099767623469,0.0202423218334093,-0.0001432951539754,0.001312896143645,0.0001103663817048
1772650892384892000,7.738891845703125,0.0369441215157508,-0.0001186214109882,0.0121180520886555,-0.0010503674857318,0.0017443280667066,0.002184968907386
1772650892394863900,7.74886376953125,0.0444271707475185,0.0068030310783535,0.0032649109469261,-0.0016788395587354,0.0021617566235363,-0.0001222829450853
1772650892404835800,7.7588359375,0.0480190577596425,0.0021956468807533,-0.0021491591242142,0.0033494746312499,-0.0014510878827422,0.0014228830114006
1772650892414809000,7.76880908203125,0.0225765734672546,-0.0011272869968786,0.0036782409881707,-0.001023871358484,0.0012908801436424,0.0020623155869543
1772650892424780800,7.77878076171875,0.0388835651457309,0.0013981398275122,-0.001250109658949,0.0003287480212748,0.002523923292756,-2.93311313726e-05
1772650892434753000,7.7887529296875,0.0508522353589534,0.0104137689214199,0.0117243309301789,0.0007557831704616,-0.0006896916311234,0.000475124339573
1772650892444726000,7.79872607421875,0.0288595992594957,-0.0023825477549806,0.0115381424420047,-0.001714564859867,-0.0003884881734848,-0.0005629758234135
1772650892454697700,7.80869775390625,0.012396540236473,-0.0015686375562101,0.0083287793409079,0.0001827627420425,-0.0030398664530366,-0.0028736169915646
1772650892464671000,7.8186708984375,0.0586345597982406,0.0078910820433869,0.0106417233252432,-1.53766013681e-05,0.0007269084453582,0.0003767712041735
1772650892474643000,7.828642822265625,0.0150906016260385,0.0020771350676193,-0.005147455024207,-0.0013702935539186,-0.0001992303878068,0.0004628234310075
1772650892484615000,7.838614990234375,0.0336450799703598,0.0055591684971004,0.0045071660929825,-0.0004770690575242,-0.0016679638065397,0.0003312632907181
1772650892494588000,7.848587890625,0.0427694666683673,-0.0081240140164271,-0.0111418183344881,-0.0012376471422612,0.0004147756844758,0.0002654068521223
1772650892504559900,7.858559814453125,0.0408241778194904,0.0025190701488405,0.0044858584434725,-0.0006701275706291,-0.0016659521497786,-0.0011210348457098
1772650892514531800,7.86853173828125,0.0394756858199834,0.0022779548693448,0.0043268593563232,0.0002300222404301,0.0014455043710768,0.0001209086040034
1772650892524504800,7.8785048828125,0.0219692552238702,0.000720532826893,0.0065079662550706,9.6864067018e-05,0.0015419106930494,0.0003057320136576
1772650892534477000,7.88847705078125,0.0420171869963407,0.0087209204636514,0.0030017847650218,0.000534682534635,-0.003027010243386,0.0006107551162131
1772650892544450000,7.898449951171875,0.0393178649097681,-0.0078694912660866,0.013742602816876,-0.0009074192494153,-0.0014517502859234,0.0011340663768351
1772650892554422000,7.908422119140625,0.0409621249854564,0.0088018036801368,-0.0106493769087363,-0.0010797972790896,-0.0005110178608447,-0.000437696406152
