time,seconds_elapsed,acc_z,acc_y,acc_x,gyro_z,gyro_y,gyro_x
1772650355538538200,0.065538330078125,0.979614847972989,-0.0033896424382925,-0.1834757220841944,-0.3389770090579986,-0.175709381699562,-0.2526546716690063
1772650355548510200,0.07551025390625,0.797274998050928,-0.084760642440617,-0.1651074139617383,-0.3893136978149414,-0.1976450383663177,-0.2577154636383056
1772650355558483200,0.085483154296875,0.5770856022059917,-0.0405105818256735,-0.0730821873456239,-0.4107170104980469,-0.2183225005865097,-0.2408802658319473
1772650355568455200,0.095455078125,0.485296960824728,0.0924064810186624,0.1424224116839468,-0.398978590965271,-0.2381380200386047,-0.2257881313562393
1772650355578428200,0.10542822265625,0.5199269601792097,0.1784776215359568,0.3433984268844127,-0.3691860437393188,-0.2612853348255157,-0.2216253131628036
1772650355588400000,0.115400146484375,0.4745435116201639,0.1906666565015912,0.4360973149783909,-0.337045669555664,-0.2352963387966156,-0.2376913726329803
1772650355598373000,0.125373046875,0.2394686813324689,0.1838107992574572,0.3344441360563039,-0.3021000921726227,-0.1589215695858001,-0.2404688000679016
1772650355608346000,0.13534619140625,-0.0025865093618631,0.1455669933199882,0.2000776050560176,-0.2597230672836303,-0.0711499229073524,-0.2348021268844604
1772650355618318300,0.145318359375,0.0401987393975257,0.1223120821997523,0.1131225213110446,-0.2332088649272918,-0.0292205028235912,-0.2311293482780456
1772650355628291000,0.155291015625,0.1608925727456808,0.06281330678761,0.0642351562842726,-0.2009470611810684,-0.0158780664205551,-0.2168920785188675
1772650355638263300,0.16526318359375,0.186069684100151,-0.0080202248483896,0.1256117082670331,-0.1640574038028717,-0.0008975495584309,-0.1899655014276504
1772650355648237000,0.175237060546875,0.3269593332588672,-0.0510272996649146,0.2733018312208354,-0.122649498283863,-0.03218649700284,-0.1659235507249832
1772650355658208800,0.185208740234375,0.594759790584445,-0.1591559582114219,0.3475741051338613,-0.0820799693465232,-0.0861293524503707,-0.1590517908334732
1772650355668182000,0.19518212890625,0.9127893829345702,-0.251717922052741,0.4452779619082808,-0.0499705001711845,-0.1464584767818451,-0.1768430322408676
1772650355678155000,0.205155029296875,1.2079542325258257,-0.3642819326981902,0.4591301077805459,-0.0336262620985507,-0.2065301686525344,-0.2239111959934234
1772650355688127000,0.215126953125,1.352690620240569,-0.4808461188957095,0.4303919429436326,-0.0187040381133556,-0.246647223830223,-0.2784652411937713
1772650355698100000,0.225099853515625,1.347252228578925,-0.5542337189286947,0.3349953401982784,0.0004651295021176,-0.2593877911567688,-0.327802449464798
1772650355708072000,0.235072021484375,1.186425706806779,-0.6084624449834227,0.1748071163296699,0.0146206300705671,-0.2514049708843231,-0.3611239194869995
1772650355718045000,0.245044921875,0.9531921204715966,-0.6947150795474648,0.0026898236058652,0.0228821393102407,-0.2327100783586502,-0.3811828196048736
1772650355728017000,0.255016845703125,0.7849035922557115,-0.7681383354157209,-0.1372295192159712,0.0221116859465837,-0.2062827348709106,-0.3933129906654358
1772650355737990000,0.264989990234375,0.7220867783367634,-0.858046277616918,-0.2279354799270629,0.0135528948158025,-0.1657614558935165,-0.4130222499370575
1772650355747963000,0.274962890625,0.7062550029546022,-0.9780801857516168,-0.2045797387808561,0.0115110501646995,-0.1356618702411651,-0.4299692511558532
1772650355757935000,0.28493505859375,0.7103121693909168,-1.097897236265242,-0.1288482059702277,0.0040966570377349,-0.1441652476787567,-0.4402594566345215
1772650355767907800,0.294907958984375,0.686753014627099,-1.2535311578303574,-0.1119800732776522,-0.0157359037548303,-0.1680844277143478,-0.421467661857605
1772650355777880000,0.304880126953125,0.6716390321254729,-1.2988885951653122,-0.162380473215878,-0.0332210734486579,-0.208089217543602,-0.3773025274276733
1772650355787853000,0.31485302734375,0.6399281350880861,-1.3204188744500278,-0.1062218020118773,-0.0430247038602829,-0.2614099681377411,-0.2993478178977966
1772650355797824800,0.32482470703125,0.5670809255421161,-1.341146605180204,-0.0140982295878231,-0.0498347841203212,-0.3400950133800506,-0.2160707712173462
1772650355807798000,0.334798095703125,0.693530545938015,-1.357692666311562,0.1414057819873094,-0.0489287786185741,-0.4339346885681152,-0.1397237926721573
1772650355817771000,0.34477099609375,0.7697983775824307,-1.3079410856708884,0.3075163816422224,-0.0487124547362327,-0.5130305886268616,-0.0757491141557693
1772650355827743000,0.354742919921875,0.8888000200599432,-1.3085355444326996,0.4294461865261197,-0.0754330158233642,-0.5420409440994263,-0.0623102635145187
1772650355837716000,0.364716064453125,0.6302747560799121,-1.380546303154528,0.3052721098467707,-0.1126325726509094,-0.4867487847805023,-0.0634694471955299
1772650355847688000,0.37468798828125,0.1630325073838233,-1.3183224866926668,0.2650669407084584,-0.1340862065553665,-0.4027548134326935,-0.0504047721624374
1772650355857661000,0.384660888671875,-0.1716243946403265,-1.1016580501034856,0.2752810223393142,-0.1296408623456955,-0.3180575668811798,-0.0064137605950236
1772650355867634200,0.39463427734375,-0.6065531042307615,-0.9478001983001828,0.2650365455701947,-0.0828099772334098,-0.2336265444755554,0.0895947962999343
1772650355877606000,0.40460595703125,-0.9245721751868724,-0.8415306116238236,0.3677881872534752,-0.0265461299568414,-0.1469826698303222,0.1921571493148803
1772650355887579000,0.414578857421875,-1.0129828645676373,-0.663511255249381,0.5796916930511593,0.0394565872848033,-0.0796888396143913,0.2706045508384704
1772650355897551000,0.424551025390625,-0.8393231647074222,-0.6187713652908802,0.763453392469883,0.0992728918790817,-0.0359622314572334,0.283808171749115
1772650355907523800,0.43452392578125,-0.4637830481529235,-0.6424713898301124,0.86655180176422,0.1379672884941101,-0.000545650254935,0.2073911726474762
1772650355917496000,0.44449609375,0.0197743755280971,-0.6903428558126091,0.93430724112913,0.1723494231700897,0.0209790617227554,0.0848386660218238
1772650355927469000,0.454468994140625,0.2706570158004761,-0.6913713220775127,0.9409906644158064,0.2260565906763076,0.0065796156413853,-0.0314237661659717
1772650355937442000,0.464442138671875,0.2757891179919243,-0.6538847642481327,0.825058930902928,0.3078248500823974,-0.0360606908798217,-0.1212880760431289
1772650355947414000,0.4744140625,0.1200426759630441,-0.7022156644359231,0.7497233386073261,0.3861465752124786,-0.0495048575103282,-0.1820361167192459
1772650355957387000,0.484386962890625,-0.1005669911205768,-0.8971712503030895,0.5256445341084152,0.4326487481594085,-0.0247425958514213,-0.2235388457775116
1772650355967359000,0.49435888671875,-0.3064315090149641,-1.1509539959311486,0.1685590157203376,0.4479313194751739,0.0392542332410812,-0.2363742142915725
1772650355977332000,0.50433203125,-0.426496981331706,-1.3394015150785443,-0.1532336554903537,0.4529130160808563,0.115760788321495,-0.2256092280149459
1772650355987304000,0.514303955078125,-0.4824503392219543,-1.48570091432631,-0.3306266966599971,0.4562451541423797,0.1731215566396713,-0.1772219985723495
1772650355997277000,0.52427685546875,-0.4721890574485063,-1.6638772148281336,-0.5321861377716064,0.439622700214386,0.2142827361822128,-0.1196654736995697
1772650356007250200,0.534250244140625,-0.3355710942596197,-1.808576193141937,-0.6964871307212859,0.4051712453365326,0.2407159358263015,-0.0706867426633834
1772650356017222000,0.544221923828125,-0.3041635640829801,-1.965114662331343,-0.7672449667725711,0.3650456666946411,0.2563548386096954,-0.0250915680080652
1772650356027195000,0.55419482421875,-0.3172825733751058,-2.0680656259790062,-0.7681020950585603,0.3194957375526428,0.2809563279151916,0.0178673509508371
1772650356037167000,0.5641669921875,-0.3530763558119535,-2.043041367098689,-0.774416538902372,0.2851344048976898,0.306513100862503,0.0653358325362205
1772650356047139800,0.574139892578125,-0.3056634472519159,-1.9283371295541525,-0.7087101410217582,0.2663173079490661,0.3115496635437011,0.0933813154697418
1772650356057112000,0.584112060546875,-0.2230798565894365,-1.8154717978745696,-0.6060683894537389,0.2696253061294555,0.297976016998291,0.0882816389203071
1772650356067085000,0.5940849609375,-0.215417359137535,-1.705596295660734,-0.4125649020910263,0.2955445349216461,0.2943930029869079,0.0723074674606323
1772650356077057800,0.604057861328125,-0.3039320934146642,-1.540966874474287,-0.259679694712162,0.3358733355998993,0.3336433470249176,0.0613823607563972
1772650356087030000,0.614030029296875,-0.526000727134943,-1.3786752485856413,-0.2398758008286357,0.3734635710716247,0.4118039309978485,0.0720887929201126
1772650356097003000,0.6240029296875,-0.8625707693040371,-1.2637249273255466,-0.2245474449239671,0.417943000793457,0.5190778970718384,0.1429805606603622
1772650356106974700,0.633974609375,-1.1652139919519424,-1.126098079355061,-0.0122441261537373,0.4758265316486358,0.6175251007080078,0.2702013552188873
1772650356116948000,0.643947998046875,-1.0346920075505972,-0.925813407419622,0.3751889650292694,0.5626389384269714,0.6206960082054138,0.4209972620010376
1772650356126921000,0.6539208984375,-0.6009890403628348,-0.7852449530392884,0.8524126556441187,0.6751739978790283,0.5469426512718201,0.5704919099807739
1772650356136893000,0.663892822265625,-0.1173462764859199,-0.7073340303629636,1.2595629853405057,0.7943121790885925,0.4181028604507446,0.6702223420143127
1772650356146866000,0.673865966796875,0.4827887773960828,-0.6716776105701923,1.4317477903425693,0.8870186805725098,0.2023665904998779,0.6918615698814392
1772650356156838000,0.683837890625,1.173138355210423,-0.7795821049720049,1.3814828533522785,0.9153673648834229,-0.0899488553404808,0.5952135324478149
1772650356166811000,0.693810791015625,1.7202432451725005,-1.00726185657233,1.0519758814372122,0.8530957698822021,-0.3690694570541382,0.3282244801521301
1772650356176782800,0.703782958984375,1.9859844318807125,-1.2727765410482883,0.6351131360217929,0.7126668095588684,-0.5480297803878784,-0.0755774155259132
1772650356186755800,0.713755859375,1.7575760737448929,-1.3542787662148474,0.3973172102071344,0.5856167078018188,-0.5650564432144165,-0.5303987264633179
1772650356196728800,0.723728759765625,1.1388298428952692,-1.0414981804341077,0.2730068668622523,0.5137149095535278,-0.447780579328537,-0.9176262617111206
1772650356206701000,0.733701171875,0.2814613184094429,-0.5701297917187214,0.1221888942115008,0.4794075489044189,-0.2737461924552917,-1.1491676568984983
1772650356216673800,0.743673828125,-0.7890496060192584,-0.0176966924712061,-0.0937336379691958,0.4942968785762787,-0.0776877850294113,-1.193618893623352
1772650356226646000,0.75364599609375,-1.76968561373353,0.4914671738922596,-0.3026657267406583,0.5560079216957092,0.098688043653965,-1.04297935962677
1772650356236619000,0.763618896484375,-2.5055413897037506,0.7905147101357579,-0.5561537272058427,0.6518944501876831,0.2657774984836578,-0.7567124366760254
1772650356246591000,0.773591064453125,-2.7990760077446697,0.8672820157349109,-0.7491492650464177,0.7369358539581299,0.3227145373821258,-0.3911252021789551
1772650356256564000,0.78356396484375,-2.604713127073645,0.7491948577538132,-0.8550766872216016,0.7665693759918213,0.1956479251384735,-0.020061632618308
1772650356266537000,0.793536865234375,-2.2666151446849105,0.4312295628115534,-0.765922047605738,0.7231361269950867,-0.0336672849953174,0.3306199610233307
1772650356276509000,0.803509033203125,-2.102694748550653,0.0045429041266441,-0.6530060817174613,0.6380080580711365,-0.1647504121065139,0.6558603048324585
1772650356286482000,0.81348193359375,-1.8472563446700567,-0.2201318204388022,-0.6216192290026694,0.5264037847518921,-0.1640420109033584,0.9181784987449646
1772650356296454000,0.823453857421875,-1.258647477930784,-0.1452531050652265,-0.5898954724837094,0.4299116432666778,-0.1018824353814125,1.055761694908142
1772650356306427000,0.833427001953125,-0.4447656284719705,-0.0359767377883195,-0.4767546117983758,0.3648053407669067,0.0043497290462255,1.0600491762161257
1772650356316398800,0.84339892578125,0.3500157991975545,-0.0368739788889884,-0.2164315776813775,0.3333985209465027,0.1131408736109733,0.9560918807983398
1772650356326371800,0.853371826171875,1.0773200199216604,-0.0326671748489141,0.1556567179188132,0.3128620982170105,0.1482080519199371,0.7872887253761292
1772650356336344800,0.8633447265625,1.5801614052653312,0.0299438873648643,0.4626587933633476,0.3006248772144317,0.1089934632182121,0.6157566905021667
1772650356346317000,0.873317138671875,1.6978057879149913,0.0266518600821495,0.7348872231990099,0.2800056040287018,0.0567070916295051,0.4770859181880951
1772650356356289800,0.883289794921875,1.6296289082676172,0.0070195233732461,0.9081303050823508,0.2364069819450378,0.0008742553181946,0.372166097164154
1772650356366262000,0.893261962890625,1.5199328542739152,0.0587573093950748,0.9569145750608294,0.1733265370130539,-0.0760024189949035,0.2871188521385193
1772650356376235000,0.903235107421875,1.4265455455243587,0.1160363629311323,0.9282860811434686,0.0963345170021057,-0.1737016290426254,0.1955649256706237
1772650356386208000,0.9132080078125,1.3878005120664834,0.0886246243923902,0.8496405605822801,0.0038274880498647,-0.2541983127593994,0.0676868557929992
1772650356396180000,0.923179931640625,1.246573593777418,0.0324698987111449,0.6646681701995432,-0.0930279865860939,-0.3194461762905121,-0.0760495141148567
1772650356406153000,0.933153076171875,0.8310399050086736,0.0630208120584487,0.3928679026480764,-0.2009765654802322,-0.3277754783630371,-0.218874305486679
1772650356416125200,0.943125244140625,0.2186824984133243,0.2111395356878638,0.1506279299713671,-0.3019435703754425,-0.252056211233139,-0.3329788446426391
1772650356426098000,0.953097900390625,-0.2928542345613241,0.42315117803514,0.006794555510953,-0.3881143927574157,-0.1414332836866378,-0.4249103665351867
1772650356436070000,0.96306982421875,-0.6733014123797416,0.6171817580118775,0.0084380849342793,-0.4462544023990631,-0.0442986190319061,-0.4803596436977386
1772650356446043100,0.973043212890625,-1.075506248497963,0.7886506698295473,0.130108435164392,-0.4677256047725677,0.0698852092027664,-0.4690673053264618
1772650356456014800,0.983014892578125,-1.3521803326308726,0.9779355165839194,0.3553828791886568,-0.4435222744941711,0.1780335903167724,-0.3921166658401489
1772650356465987800,0.99298779296875,-1.4115806161046027,1.1929632918819784,0.615382526570186,-0.3842296600341797,0.2364883720874786,-0.2518522143363952
1772650356475961000,1.002961181640625,-1.3177829729884862,1.3591644924297928,0.7403890354856848,-0.3142027258872986,0.2778233587741852,-0.0881842076778411
1772650356485933000,1.01293310546875,-0.988669676566124,1.3706380726024507,0.7535542220070958,-0.2601309716701507,0.3064784407615661,0.06455659866333
1772650356495905800,1.02290576171875,-0.4534814343690871,1.2553031359389424,0.6933935486201197,-0.2209803313016891,0.3031968772411346,0.1836447268724441
1772650356505878000,1.0328779296875,0.2754384048581123,1.107276474507153,0.6165927060775458,-0.1906892657279968,0.2501815855503082,0.247072160243988
1772650356515851000,1.04285107421875,0.9616402153432368,0.9551453003659844,0.4885355043545365,-0.1915907859802246,0.1920786052942276,0.2682380974292755
1772650356525824000,1.052823974609375,1.378515381848812,0.7236962593600154,0.225095361130312,-0.2119099050760269,0.1676646173000335,0.2572528123855591
1772650356535796000,1.0627958984375,1.656798654744029,0.5370481908500194,-0.0083830668114125,-0.2415860891342163,0.1123134717345237,0.2465566843748092
1772650356545769000,1.07276904296875,1.7941782499551773,0.3624734219714999,-0.1209505845881998,-0.2837500274181366,0.0340423732995986,0.2533224523067474
1772650356555741200,1.0827412109375,1.7185627447396516,0.1693608336225152,-0.0450987863987684,-0.3163623809814453,-0.0517814755439758,0.2901340425014496
1772650356565714000,1.0927138671875,1.6052245348513126,0.0892626300349831,0.0612196078553795,-0.3473253548145294,-0.1241052076220512,0.3443661332130432
1772650356575686000,1.102685791015625,1.4489654671251773,0.0360623702451586,0.0341314752478152,-0.3776695430278778,-0.1502268463373184,0.3896054327487945
1772650356585659100,1.1126591796875,1.4471598790079354,-0.0181257315382361,0.081772493475303,-0.3898921310901642,-0.1623780578374862,0.4152178764343261
1772650356595631900,1.1226318359375,1.65784085727334,-0.1187166880562901,0.2279540384970605,-0.398432195186615,-0.1895523965358734,0.387812465429306
1772650356605603800,1.132603759765625,2.005818428641557,-0.2714744696632027,0.4117331274420022,-0.4036408066749573,-0.2487637847661972,0.2985587418079376
1772650356615577000,1.1425771484375,2.2604490232706067,-0.4477268163651228,0.5491754126258194,-0.4107173979282379,-0.3236359655857086,0.1688220351934433
1772650356625548800,1.152548828125,2.106255655902624,-0.5957242517024278,0.4438201643154025,-0.4296213090419769,-0.325731873512268,0.0431285537779331
1772650356635521800,1.162521728515625,1.7474737819254398,-0.7247492755442857,0.175596293945983,-0.4608863890171051,-0.2427976131439209,-0.0662797316908836
1772650356645493000,1.172492919921875,1.5107278035551308,-0.8147334978520869,-0.0194286308303475,-0.4951423704624176,-0.1590688824653625,-0.1694071888923645
1772650356655466000,1.182466064453125,1.4109429027229548,-0.8387915420487523,-0.0454386128123849,-0.5335004925727844,-0.1246418058872222,-0.2754864394664764
1772650356665439200,1.192439208984375,1.2618079877883197,-0.9111237878099084,0.0100406247600913,-0.545642077922821,-0.1122607737779617,-0.3529998958110809
1772650356675411000,1.202410888671875,0.9382178387016056,-0.9640823477983474,0.1148090861584991,-0.5379971265792847,-0.0886609554290771,-0.3726984858512878
1772650356685384000,1.212384033203125,0.6806354085296392,-0.9330161784052848,0.2143652197360992,-0.5218479633331299,-0.104968287050724,-0.3357335329055786
1772650356695356200,1.222356201171875,0.5680255129158497,-0.85438717058748,0.3622911972723901,-0.5029419660568237,-0.1731136590242386,-0.2706442475318908
1772650356705329200,1.2323291015625,0.4828004678338766,-0.8063593449994921,0.515593899410963,-0.4875049591064453,-0.2555187940597534,-0.1807037144899368
1772650356715302000,1.242302001953125,0.2479658760428428,-0.7894052875891328,0.466999379850924,-0.4723009169101715,-0.3025417327880859,-0.0597590021789073
1772650356725274000,1.252274169921875,0.0288362183839082,-0.7764031826749443,0.2532533149264753,-0.4716966450214386,-0.277056872844696,0.0615578405559062
1772650356735247000,1.2622470703125,0.0545972671061754,-0.8006573339655995,0.0662687079384923,-0.4779402613639831,-0.2574394941329956,0.1588991433382034
1772650356745219000,1.272218994140625,0.2609334941655397,-0.8474053488761186,0.1402798466973006,-0.4791173934936523,-0.2666809260845184,0.2257506102323532
1772650356755192000,1.282192138671875,0.4576566742271185,-0.8674597103893756,0.1932461516007781,-0.4700186848640442,-0.2575088441371918,0.2599615454673767
1772650356765164000,1.2921640625,0.4810013094574212,-0.9720034961864352,0.205232649731636,-0.4573454856872558,-0.211461991071701,0.2841566503047943
1772650356775137300,1.30213720703125,0.3749707922339439,-1.1005994809612631,0.168582031269744,-0.4576782286167145,-0.2029596120119094,0.3022205531597137
1772650356785110000,1.312110107421875,0.4409457779228687,-1.0815005204766988,0.2632894827071577,-0.4740987420082092,-0.281720221042633,0.3195137977600097
1772650356795082000,1.32208203125,0.2790297073483467,-1.059028284166753,0.5255835246361792,-0.4921112060546875,-0.421072781085968,0.3741993010044098
1772650356805055200,1.33205517578125,-0.2103074687778949,-1.0404840349555016,0.6910018311779945,-0.5054196119308472,-0.5266167521476746,0.4915150105953216
1772650356815027000,1.34202685546875,-0.7853899144679307,-0.8877373592644929,0.7122202680345624,-0.5194741487503052,-0.5777090787887573,0.657669186592102
1772650356825000000,1.352,-1.244781449663639,-0.6990759051054716,0.651568377064541,-0.5267041325569153,-0.5981738567352295,0.8388882875442505
1772650356834972200,1.36197216796875,-1.5715560740053651,-0.6414326944321393,0.6653081486035138,-0.5240644216537476,-0.5632816553115845,0.9932934641838074
1772650356844945200,1.371945068359375,-1.4772949050307274,-0.6300590675026178,0.8332432602718473,-0.5049570202827454,-0.5289199352264404,1.0783652067184448
1772650356854918000,1.38191796875,-0.9380454047441482,-0.5800935518503189,1.1010050660874693,-0.4903336465358734,-0.5328203439712524,1.0611791610717771
1772650356864890000,1.39189013671875,-0.1656137560486793,-0.6497519022271037,1.4617640122912825,-0.4869639575481415,-0.6005306839942932,0.9020158648490906
1772650356874863000,1.401863037109375,0.5082815305709839,-0.8090592516079544,1.7554506060235202,-0.5291349291801453,-0.6916244626045227,0.5940628051757812
1772650356884835000,1.4118349609375,0.915865137118101,-1.0673547984853389,1.910024058750272,-0.5896994471549988,-0.7407209277153015,0.2360330522060394
1772650356894808000,1.42180810546875,0.9269371507525443,-1.096213520962,1.6616019633725283,-0.6204259395599365,-0.8565347194671631,-0.080604575574398
1772650356904780000,1.431780029296875,0.6236024387091398,-0.8169380221590399,0.9587154870029538,-0.6407032608985901,-0.9338412284851074,-0.3520882725715637
1772650356914753000,1.4417529296875,0.1450187117874622,-0.3998465825542807,0.3089014062598347,-0.6743401885032654,-0.9572992324829102,-0.5808926820755005
1772650356924726000,1.45172607421875,-0.3667991762161254,-0.0557034747824072,-0.364485638576746,-0.7279788851737976,-1.028361678123474,-0.7370258569717407
1772650356934698000,1.461697998046875,-0.8806786729246378,0.1348065298527479,-0.9579917027730496,-0.8193718194961548,-1.084691286087036,-0.8593791723251343
1772650356944671200,1.471671142578125,-1.2899170609414576,0.247018073798716,-1.2402125343129038,-0.9197226762771606,-1.0557036399841309,-0.999715268611908
1772650356954643000,1.481642822265625,-1.6926988201647997,0.265090029323101,-1.247331572537869,-1.010533571243286,-0.9360218048095704,-1.1695724725723269
1772650356964616000,1.491615966796875,-2.1005758567005395,0.3287935629487037,-1.1120638549141586,-1.047665238380432,-0.7291002869606018,-1.3228858709335327
1772650356974588200,1.501588134765625,-2.448871407976746,0.5636310773491859,-0.7881034842755645,-1.032121658325195,-0.4684641361236572,-1.4163968563079834
1772650356984561000,1.511560791015625,-2.7193641731262206,0.8859694728091358,-0.3421437506482005,-0.9478485584259032,-0.1707767993211746,-1.4041852951049805
1772650356994534000,1.521533935546875,-2.8130022417664526,1.2093328274026511,0.1084046624762937,-0.8135950565338135,0.1038776338100433,-1.2721155881881714
1772650357004506000,1.531506103515625,-2.8466449836492536,1.4292296700417997,0.5538394589141011,-0.6439306139945984,0.3582217693328857,-1.0080171823501587
1772650357014479000,1.54147900390625,-3.0853742447912693,1.4216782317489385,0.8769616982281208,-0.4721146523952484,0.6277487874031067,-0.6238030791282654
1772650357024451000,1.551451171875,-2.98650938141346,1.4921309473738074,1.1083126126218588,-0.319903552532196,0.7758564949035645,-0.1858853697776794
1772650357034424000,1.561424072265625,-2.352479656714201,1.6143068359732626,1.3120979130893944,-0.1958750784397125,0.757567286491394,0.2237843722105026
1772650357044396300,1.571396240234375,-1.399918235361576,1.6200643765866756,1.4559686238855123,-0.0811277329921722,0.6145427227020264,0.5619917511940002
1772650357054369000,1.581369140625,-0.5217062448114156,1.4774346057623624,1.6351275056838988,0.0389604046940803,0.3627313375473022,0.811426043510437
1772650357064342000,1.591342041015625,0.0922755481153726,1.3343532917782663,1.7952514321446418,0.1554484069347381,0.0628841444849968,0.9747518301010132
1772650357074314200,1.601314208984375,0.4772399110972881,1.2205001181051134,1.6516691829010843,0.2585192322731018,-0.2203404605388641,1.068257451057434
1772650357084287200,1.611287353515625,0.6650427026003599,1.0570695513144135,1.2378224243059754,0.3211815655231476,-0.4084632396697998,1.0789146423339844
1772650357094259000,1.621259033203125,0.7934428725421429,0.8374246376097202,0.5836921608641743,0.3303460478782654,-0.4952909648418426,0.9807218909263612
1772650357104232200,1.631232177734375,0.962037105706334,0.5768979706794023,-0.2436614568471908,0.284801185131073,-0.513235330581665,0.7587093114852905
1772650357114204200,1.6412041015625,1.0828063423782586,0.2719590383097529,-1.04475535559915,0.1898058801889419,-0.4641976952552795,0.4464680552482605
1772650357124177000,1.651177001953125,1.0207833091855048,0.0409258846282959,-1.6851088034272192,0.0679377689957618,-0.3454508185386657,0.1078172847628593
1772650357134150100,1.661150146484375,0.7401292155057192,-0.1348082834184169,-2.111141966639459,-0.0586208589375019,-0.1744491308927536,-0.1902588903903961
1772650357144122000,1.6711220703125,0.2790834833621978,-0.1498386792898178,-2.223606024041772,-0.1650101542472839,0.0123433768749237,-0.3869368135929107
1772650357154095000,1.68109521484375,-0.1445616156697273,0.0100438396304845,-2.022119282840192,-0.2309525310993194,0.1579625904560089,-0.4634166955947876
1772650357164067000,1.691067138671875,-0.4334130443304776,0.2010062642082571,-1.529260070067644,-0.2503730952739715,0.2240079194307327,-0.4346721470355987
1772650357174040000,1.7010400390625,-0.4795616320431232,0.3052206719204783,-0.9760611740794032,-0.2303511500358581,0.2214913815259933,-0.3238503038883209
1772650357184012300,1.71101220703125,-0.3470785767018794,0.3316089126303791,-0.4692229011192917,-0.1892567127943039,0.2006745189428329,-0.1846473962068557
1772650357193985000,1.720985107421875,-0.0371299994766712,0.3664902563974261,-0.1415297736931592,-0.1380024403333664,0.158215120434761,-0.0558822229504585
1772650357203958000,1.7309580078125,0.3618640579015016,0.3926838513180613,0.0570231790788471,-0.0774029940366745,0.086465835571289,0.0294590406119823
1772650357213930200,1.74093017578125,0.7590887675195932,0.4222162352725863,0.1667490436889231,-0.020107677206397,0.0135301258414983,0.0775144100189209
1772650357223903200,1.7509033203125,0.9975053094506264,0.3809747088238596,0.156130765171349,0.0413964316248893,0.0005789068527519,0.1047609448432922
1772650357233875000,1.760875,1.088279220831394,0.3405927218139171,0.1058968078412115,0.0928174406290054,0.0311459004878997,0.112953208386898
1772650357243848200,1.77084814453125,1.063924531775713,0.2858537081494927,0.0047569122035056,0.1263021677732467,0.0816591382026672,0.1149002462625503
1772650357253821200,1.7808212890625,1.031118825238943,0.255787363448739,-0.0091113080207258,0.1787595450878143,0.1444723308086395,0.1273241341114044
1772650357263793000,1.79079296875,0.99992289198637,0.2741045259058475,0.1356582513112574,0.2493117302656173,0.2109981030225753,0.1603265553712844
1772650357273766100,1.80076611328125,1.0228536857187749,0.2713984818175435,0.2510935796093195,0.3347476124763489,0.2543418109416961,0.2044761925935745
1772650357283738000,1.810738037109375,1.1201385864287614,0.2032891144484281,0.3506839077174663,0.4067621529102325,0.3038806021213531,0.240193709731102
1772650357293711000,1.820711181640625,1.312253395912051,0.1109405010968446,0.3521691047739237,0.4604071378707886,0.3348910510540008,0.2595117092132568
1772650357303683000,1.83068310546875,1.5053800127863883,0.033441374091804,0.2562549809604883,0.4944175481796264,0.3237308263778686,0.2645618617534637
1772650357313656000,1.840656005859375,1.6542320191264153,-0.0427101376965642,0.1341167940229177,0.5026648640632629,0.2760325074195862,0.2442419677972793
1772650357323629000,1.850629150390625,1.7439380090147256,-0.1653188647553324,0.0798166101671755,0.4913001358509063,0.2146484851837158,0.2129684686660766
1772650357333601000,1.86060107421875,1.7171709981203078,-0.34462504606992,0.0669719608370214,0.4687966108322143,0.1643084734678268,0.1840688437223434
1772650357343574000,1.870573974609375,1.6443483384937048,-0.46075902415663,0.055311772051081,0.4418898820877075,0.1343327313661575,0.1530382186174392
1772650357353546200,1.880546142578125,1.5805021815270184,-0.4976663207933306,-0.055075406011939,0.4047301709651947,0.1121149510145187,0.1133531481027603
1772650357363519200,1.890519287109375,1.4881360325187445,-0.5125897491589189,-0.1558019716084003,0.3642756640911102,0.1109018847346305,0.0659645944833755
1772650357373491000,1.900490966796875,1.342642104434967,-0.5929609244689344,-0.2592473677095026,0.3119568824768066,0.1480908095836639,0.0040741399861872
1772650357383464200,1.910464111328125,1.2650807258486747,-0.6747469350129366,-0.3269447932768612,0.2555335462093353,0.2142322808504104,-0.0503752529621124
1772650357393437200,1.920437255859375,1.2236352012604474,-0.720254009951651,-0.3567701688285917,0.200494185090065,0.2785870730876922,-0.098035991191864
1772650357403409000,1.930408935546875,1.2607061640262602,-0.7489452669069171,-0.3106082832429558,0.1484741270542144,0.3302116394042969,-0.1475231200456619
1772650357413382100,1.940382080078125,1.2943746248722077,-0.7909355658963322,-0.1908455932650715,0.1075239479541778,0.3534546494483948,-0.191744863986969
1772650357423354000,1.95035400390625,1.212669570609927,-0.8544435769498347,-0.0806018422607332,0.0727787464857101,0.3536208271980285,-0.221406877040863
1772650357433327000,1.9603271484375,1.1301111143887042,-0.9135837481826544,0.0802314015131443,0.0427730605006217,0.3439123034477234,-0.2285642176866531
1772650357443299000,1.970299072265625,1.0631757592350244,-0.974267933987081,0.2537836224108934,0.0295262336730957,0.3185217380523681,-0.2298222929239273
1772650357453272000,1.98027197265625,1.0320406162589788,-0.9485591999739408,0.3994485962126404,0.0248638689517974,0.2774871587753296,-0.2351566851139068
1772650357463245000,1.9902451171875,1.080243213891983,-0.9355924586340784,0.4963818339407443,0.0338602922856807,0.2328366041183471,-0.2495302855968475
1772650357473217000,2.000217041015625,0.9898457346081732,-0.9712494629487396,0.5387447656348348,0.053095206618309,0.1818672120571136,-0.2677315771579742
1772650357483190000,2.01018994140625,0.8134826210081577,-1.0391171305164697,0.5047904735848308,0.0546140074729919,0.1842528730630874,-0.2870296537876129
1772650357493162200,2.020162353515625,0.6219803904652595,-1.1488131845101714,0.3348713484924286,0.0351137407124042,0.2189678698778152,-0.3093197047710418
1772650357503135000,2.030135009765625,0.3217904061883688,-1.201917874971032,0.1382148769915104,0.0176969319581985,0.2717051208019256,-0.3087069094181061
1772650357513107000,2.04010693359375,-0.0665904872387647,-1.2723904643401502,0.0718141401711851,0.0032330336980521,0.3500661253929138,-0.2720626890659332
1772650357523080200,2.050080078125,-0.3707394382745027,-1.2813362796008587,0.0679348145198076,0.0092198196798563,0.4078916013240814,-0.199937105178833
1772650357533053200,2.06005322265625,-0.5455108987689018,-1.2599486236572266,0.1695877011809498,0.0175841655582189,0.4613056778907776,-0.099679410457611
1772650357543025000,2.07002490234375,-0.4891624040812253,-1.281654551769793,0.2864434907361864,0.0387930497527122,0.4683063328266144,0.002443227218464
1772650357552998100,2.079998046875,-0.3091916213780641,-1.3309291625484825,0.3992376568756997,0.0606281124055385,0.4422253966331482,0.0751009285449981
1772650357562970000,2.08997021484375,-0.0634556963443756,-1.3658198586657642,0.4886638069093227,0.0843547508120536,0.3849543929100036,0.1048391163349151
1772650357572942800,2.09994287109375,0.1429103413313627,-1.4232409510210156,0.5956190377622842,0.10562514513731,0.3084331154823303,0.0862818360328674
1772650357582915000,2.1099150390625,0.2686889305979013,-1.4774077177554368,0.6731802702181041,0.1302085071802139,0.2106980383396148,0.0322191417217254
1772650357592888000,2.11988818359375,0.1839975540012121,-1.471513983541727,0.7101712996155023,0.1686001121997833,0.1395252496004104,-0.0277112536132335
1772650357602861000,2.129861083984375,-0.1109451772719621,-1.4079071882888674,0.690884853734821,0.2168251723051071,0.1243638768792152,-0.0639840438961982
1772650357612833000,2.1398330078125,-0.4945335757255554,-1.3305188281819225,0.6634767684578895,0.2700626254081726,0.1620555371046066,-0.0769160762429237
1772650357622806000,2.149805908203125,-0.7983698075503111,-1.2933654478296637,0.6744567198947071,0.3338157832622528,0.2282342910766601,-0.0519510731101036
1772650357632778200,2.1597783203125,-1.0381605604439974,-1.2976312885805965,0.6684072105973958,0.3901122212409973,0.3330448269844055,-0.0016269516199827
1772650357642752000,2.169751953125,-1.2627999214351175,-1.3877411830946802,0.626751111998409,0.4488325119018554,0.4981970489025116,0.0772628039121627
1772650357652723700,2.1797236328125,-1.2716489983230828,-1.5119298728212711,0.6962501801602542,0.5208688378334045,0.6275714635848999,0.1916162818670272
1772650357662697000,2.189697021484375,-0.8512924194425344,-1.6182520664677025,0.98682112608999,0.6092828512191772,0.6154767274856567,0.3142583072185516
1772650357672670000,2.199669921875,-0.2694751125395297,-1.7290759554475543,1.339961048657447,0.6971250176429749,0.4822239577770233,0.4309865534305572
1772650357682641700,2.2096416015625,0.4051508264422416,-1.82004042096436,1.6234204090163111,0.7731335163116455,0.2700880169868469,0.4714722037315368
1772650357692615000,2.219614990234375,1.0901754098415375,-1.8552397446393964,1.7838883266091343,0.7912653684616089,-0.0202082004398107,0.3891583681106567
1772650357702587000,2.2295869140625,1.5974287664085625,-1.892865418678522,1.6907869951941072,0.7688732743263245,-0.3155727386474609,0.2182121872901916
1772650357712559900,2.239559814453125,1.710063211941719,-1.5691162796378135,1.3980802062794566,0.7556976675987244,-0.5228487849235535,0.0503854565322399
1772650357722532900,2.249532958984375,1.317864221531153,-0.9520093404278158,0.847649094504118,0.7526265382766724,-0.6520131826400757,-0.0455434657633304
1772650357732504800,2.2595048828125,0.5437310296148061,-0.3853817116111516,0.0711810298994183,0.7164738178253174,-0.7235659956932068,-0.068077951669693
1772650357742477800,2.269477783203125,-0.178449272224307,-0.0199915254101157,-0.7040248327497393,0.645133376121521,-0.7426270246505737,-0.0574562028050422
1772650357752449800,2.27944970703125,-0.841488818308711,0.1137999821811914,-1.3170005904391406,0.5257636904716492,-0.6557955741882324,-0.0724313706159591
1772650357762422800,2.2894228515625,-1.4014397458404302,0.1514171806529164,-1.8387240786463024,0.3636538386344909,-0.4926460385322571,-0.145329013466835
1772650357772395000,2.29939501953125,-1.8270073373675344,0.1905257867261767,-2.050421978869289,0.2055491507053375,-0.2629839777946472,-0.2752762734889984
1772650357782368000,2.309367919921875,-2.166160381767153,0.2978679710701107,-1.9425667304366825,0.1035714000463485,0.0305885262787342,-0.4095001220703125
1772650357792340700,2.3193408203125,-2.541615158125758,0.4750403552263975,-1.4932704727977513,0.0535832121968269,0.356803148984909,-0.498360812664032
1772650357802313000,2.32931298828125,-2.9538293470829724,0.6762745829716325,-0.7836176440984011,0.0677080899477005,0.6721107959747314,-0.4801501035690307
1772650357812286000,2.339285888671875,-3.2065362801730632,0.9958040584906936,0.0088367288630455,0.1457108557224273,0.9511834979057312,-0.3501583337783813
1772650357822257700,2.349257568359375,-3.210456083965301,1.3343711196959018,0.7664812889236956,0.293788731098175,1.1316044330596924,-0.122442603111267
1772650357832231000,2.35923095703125,-2.839604417487979,1.6098255989059804,1.353559804290533,0.4723156690597534,1.2008118629455566,0.1391368359327316
1772650357842203000,2.369202880859375,-2.0589596517205235,1.7578905465215444,1.7059173443086444,0.6553808450698853,1.094292402267456,0.3552491664886474
1772650357852175600,2.379175537109375,-1.1100678587913513,1.7003621943995355,1.8614397683233024,0.8112572431564331,0.8161958456039429,0.4855336248874664
1772650357862148900,2.38914892578125,-0.3388110990941524,1.512465294872224,1.8067086457043888,0.9099289774894714,0.4402589499950409,0.5318915843963623
1772650357872120800,2.399120849609375,-0.0100917704254388,1.2178557410761712,1.4428046064078808,0.9412185549736024,0.0707568377256393,0.5348753929138184
1772650357882093800,2.40909375,-0.1484393338859081,0.9778343942970036,0.798248811519146,0.8885015249252319,-0.1963310539722442,0.5384714603424072
1772650357892065800,2.419065673828125,-0.6100222416460513,0.8382742401763796,0.0431399804811924,0.7684726119041443,-0.3214543461799621,0.5466617345809937
1772650357902038800,2.429038818359375,-1.1387000790357589,0.7309621587097644,-0.6438576565567403,0.5951860547065735,-0.2989519536495209,0.5195786952972412
1772650357912011000,2.439010986328125,-1.4463082306146622,0.658231561280787,-1.1452266312602908,0.4128051996231079,-0.1782073527574539,0.4336345195770263
1772650357921983700,2.448983642578125,-1.4293231935441493,0.6927475788667797,-1.43100500915125,0.2404030561447143,-0.0193125046789646,0.2930579483509063
1772650357931956700,2.458956787109375,-1.2196908475488424,0.8082645940989256,-1.5291434579506515,0.0995557308197021,0.1443548649549484,0.1339389383792877
1772650357941929000,2.468928955078125,-0.981858242985606,0.9169763132303952,-1.4891671291321515,-0.0186137855052948,0.2825897336006164,-0.0116531504318118
1772650357951902000,2.47890185546875,-0.7748217587023973,1.045604154448211,-1.3431985692739483,-0.1193637251853942,0.3683410584926605,-0.1206673607230186
1772650357961873700,2.488873779296875,-0.5096604177087545,1.2145248430877924,-1.1816584924049676,-0.1900621354579925,0.396548718214035,-0.1845227777957916
1772650357971847000,2.498846923828125,-0.3325245661705732,1.3516995633766054,-1.0000964219223707,-0.2315423786640167,0.3979128897190094,-0.1837056130170822
1772650357981819000,2.50881884765625,-0.2299859827160835,1.3862503600150349,-0.8095490809515118,-0.2548913657665252,0.3761817514896393,-0.1330107450485229
1772650357991791600,2.51879150390625,0.0090659345090389,1.3994535404592752,-0.719574357124418,-0.2837345898151397,0.3331023752689361,-0.0678860545158386
1772650358001764900,2.528764892578125,0.3318482743442058,1.3970762899339195,-0.7083363392733038,-0.3027615249156952,0.3045958876609802,0.0100068775936961
1772650358011736800,2.53873681640625,0.629722967416048,1.3603452266469598,-0.6346404039435088,-0.3267373740673065,0.2852642834186554,0.0798053592443466
1772650358021709800,2.548709716796875,0.9518301844686268,1.335118430931866,-0.4916533441141247,-0.3412726521492004,0.2719000279903412,0.1264391839504242
1772650358031681800,2.558681884765625,1.2114029116749765,1.334436586147547,-0.4140573326058686,-0.3385190069675445,0.2636597156524658,0.1598075032234192
1772650358041654800,2.56865478515625,1.3866723848193885,1.3692404807642102,-0.2872691279053688,-0.3145036697387695,0.2542281448841095,0.187819167971611
1772650358051627000,2.578626953125,1.5242758519142865,1.437242588366568,-0.1307617845065891,-0.2746298313140869,0.2386954426765442,0.2194593548774719
1772650358061599700,2.588599853515625,1.6305582980722189,1.4371078560709951,-0.0222385736845433,-0.221929058432579,0.206986516714096,0.2445290237665176
1772650358071572700,2.59857275390625,1.5924895564407109,1.357905140018463,0.0131045423753559,-0.1600015759468078,0.1483815610408783,0.2922430038452148
1772650358081545000,2.608544921875,1.469455297446251,1.233045126901567,-0.0220595638558268,-0.1116146147251129,0.0785729214549064,0.3738134801387787
1772650358091518000,2.61851806640625,1.3607739734530448,1.0307929542854428,-0.0468690109416842,-0.079647421836853,0.0019797859713435,0.485088437795639
1772650358101489700,2.62848974609375,1.367494806140661,0.8496449444964528,-0.0132094640545547,-0.0706161111593246,-0.087392970919609,0.59003084897995
1772650358111463000,2.638462890625,1.5624802026242015,0.6778589295536279,0.0471750081509351,-0.0690138489007949,-0.1917793899774551,0.6368094682693481
1772650358121435000,2.648434814453125,1.852787090790272,0.4849707976102829,0.1338750942215323,-0.0653173774480819,-0.282400906085968,0.630016565322876
1772650358131407600,2.65840771484375,2.1051894879758355,0.2412695932745933,0.2518045774228871,-0.0690014064311981,-0.3531024754047394,0.5568475127220154
1772650358141380900,2.668380859375,2.313766771960258,0.0302124751731753,0.248987620306015,-0.0748973786830902,-0.4039568603038788,0.4310235381126404
1772650358151352800,2.678352783203125,2.3745827674508093,-0.1389472829192876,0.1296753044441342,-0.0934171080589294,-0.4090324640274048,0.2681481540203094
1772650358161325800,2.688325927734375,2.223396765205264,-0.3149009389355778,-0.1264814768388867,-0.1340199410915374,-0.3680815696716308,0.0963785201311111
1772650358171297800,2.6982978515625,1.8469442099809643,-0.5267775567263364,-0.3933303325280547,-0.1979217231273651,-0.290043830871582,-0.0434089712798595
1772650358181270800,2.708270751953125,1.4321592937529086,-0.6687786742582916,-0.4878603815719485,-0.2601233124732971,-0.229271575808525,-0.1331868022680282
1772650358191243000,2.718242919921875,1.0319085143119096,-0.6940794119924306,-0.4475238411389291,-0.3125336766242981,-0.1972441524267196,-0.1703688949346542
1772650358201215700,2.7282158203125,0.6964139924198388,-0.7178261982828378,-0.3928096696548163,-0.3647534847259521,-0.1842846870422363,-0.1756600588560104
1772650358211188700,2.738188720703125,0.4043915325075388,-0.8073436798617243,-0.298625657569617,-0.400164932012558,-0.1821525543928146,-0.1529637277126312
1772650358221161000,2.748160888671875,0.1658779599428176,-0.8569090902805327,-0.1501861775532365,-0.4199082851409912,-0.1790161430835724,-0.0996304675936698
1772650358231134000,2.758134033203125,-0.0370429057151079,-0.8650564486399293,0.0426373647212982,-0.4397851228713989,-0.1627730131149292,-0.0336849614977836
1772650358241106000,2.76810595703125,-0.1234878479808569,-0.8711912981331348,0.1798680529810488,-0.4477274715900421,-0.1656726747751236,0.034679714590311
1772650358251079000,2.778078857421875,-0.2029179430484771,-0.8378814414665102,0.3962279536657035,-0.4347729682922363,-0.1817020177841186,0.1108463928103447
1772650358261052000,2.788052001953125,-0.2041980459868907,-0.7689876457214355,0.6363556834287941,-0.4063887298107147,-0.1923780888319015,0.176560953259468
1772650358271023900,2.79802392578125,-0.1531172625690698,-0.6927440717354416,0.8147947265200316,-0.3696229457855224,-0.1960133612155914,0.2266243994235992
1772650358280996900,2.807996826171875,-0.0694067137032747,-0.7029515774950384,0.8797969216540455,-0.3314055204391479,-0.2044867426156997,0.2725556790828705
1772650358290968800,2.81796875,0.039405543193221,-0.7320785955190658,0.8513565707199275,-0.3023604452610016,-0.2380128502845764,0.2948949933052063
1772650358300941800,2.82794189453125,0.1489531286269426,-0.7457102305084466,0.7090529631100595,-0.2971678078174591,-0.2791541516780853,0.28549325466156
1772650358310913800,2.837913818359375,0.1219990707278251,-0.8390303192406893,0.4750204814821481,-0.332715779542923,-0.2997125685214996,0.258099228143692
1772650358320886800,2.84788671875,-0.1010334395885467,-0.9698822662487624,0.1355706460930407,-0.3926539719104767,-0.2438804805278778,0.2237923890352249
1772650358330859000,2.85785888671875,-0.3426379639059305,-1.1082184315323829,-0.1129657233141362,-0.4647958278656006,-0.1401484310626983,0.1899115294218063
1772650358340831700,2.867831787109375,-0.3976233535468578,-1.1364353489741683,-0.0759312931664288,-0.5258317589759827,-0.0500768609344959,0.1604218035936355
1772650358350804700,2.8778046875,-0.3128191642254591,-1.0621186513975265,0.1403206170991063,-0.5737714767456055,-0.0020205522887408,0.1177897304296493
1772650358360777000,2.88777685546875,-0.0980465327322483,-0.9388806865245104,0.3813426653534174,-0.6018470525741577,-0.0124750575050711,0.0724036023020744
1772650358370749700,2.897749755859375,0.1717114884018898,-0.8558458449631929,0.6394989498905838,-0.6153340935707092,-0.0672846511006355,-0.0119104534387588
1772650358380722000,2.907721923828125,0.5575917971849441,-0.8350126080319284,0.8278533839270472,-0.6443055868148804,-0.202046200633049,-0.1662286520004272
1772650358390695000,2.91769482421875,0.982184990721941,-0.8184104327991605,0.89598613217175,-0.7092618942260742,-0.4215421378612518,-0.4098888039588928
1772650358400668000,2.92766796875,1.2060796708256003,-0.7774272650256753,0.7542334364429116,-0.7847942113876343,-0.6332929730415344,-0.6964672803878784
1772650358410640000,2.937639892578125,0.9190706551611424,-0.6409127622112631,0.5025235515661537,-0.8229478001594543,-0.7463411092758179,-0.9282154440879822
1772650358420612900,2.94761279296875,0.083541037517786,-0.3067792995393276,0.1644863594539463,-0.8340228199958801,-0.7717164754867554,-1.0357294082641602
1772650358430584800,2.957584716796875,-0.8559399529874324,0.1420411572813987,-0.2906028023727238,-0.8573285937309265,-0.7737817764282227,-1.0393974781036377
1772650358440557800,2.967557861328125,-1.6885048756062984,0.4895198392167687,-0.7262550039321184,-0.8844132423400879,-0.7041811347007751,-0.9702995419502258
1772650358450529800,2.97752978515625,-2.3890906007528305,0.5884519226118922,-0.8521770933225751,-0.9069662094116212,-0.5581709146499634,-0.8852776288986206
1772650358460502800,2.987502685546875,-2.86563726888895,0.6628580520376562,-0.8414213060304522,-0.9125497937202454,-0.3109554946422577,-0.7852436900138855
1772650358470476000,2.99747607421875,-3.162294402864575,0.7819719227179884,-0.7324035896897315,-0.8747780919075012,-0.0179122891277074,-0.6528337597846985
1772650358480447700,3.00744775390625,-3.178644649162888,0.9218485954418778,-0.3671503277413547,-0.7881497144699097,0.2332727909088134,-0.4650569558143616
1772650358490420700,3.017420654296875,-3.0003344931483267,1.0863684187740086,0.1510598916478455,-0.6376926898956299,0.3940443992614746,-0.2003517746925354
1772650358500393000,3.02739306640625,-2.7063275814205405,1.2751926622793075,0.6238327403336763,-0.4487600326538086,0.4601161181926727,0.1315294802188873
1772650358510365700,3.03736572265625,-2.2341887928545474,1.451542331875861,0.9495610704928636,-0.2652702331542969,0.4069753587245941,0.4963994324207306
1772650358520338000,3.047337890625,-1.684013409405947,1.4927055323913692,0.9879279182881116,-0.1364315748214721,0.295768678188324,0.8424713611602783
1772650358530311000,3.057310791015625,-1.082331710603833,1.3981643774315713,0.8940516569778323,-0.0502401553094387,0.1427481770515442,1.114265203475952
1772650358540284000,3.067283935546875,-0.4576771324932575,1.2743421829298138,0.8240883323051035,0.0203495919704437,-0.0086674354970455,1.291877031326294
1772650358550255900,3.077255859375,0.1848521250039339,1.1093775384396314,0.7610606521144508,0.0747812166810035,-0.1267274767160415,1.3560270071029663
1772650358560228900,3.087228759765625,0.8407190029799938,0.9687789811819792,0.5508753484115004,0.1101924702525138,-0.2076417654752731,1.2998883724212646
1772650358570200800,3.097200927734375,1.4962468582600357,0.8333876371785998,0.1710090392209589,0.111094981431961,-0.3031628131866455,1.1236544847488403
1772650358580173800,3.107173828125,1.9713930119484664,0.5854004260867833,-0.3437729592852294,0.0559249334037303,-0.4139191806316376,0.8690033555030823
1772650358590145800,3.117145751953125,2.1515093406021597,0.2271393611133098,-0.8598784614801407,-0.0739006623625755,-0.4774056673049927,0.5565908551216125
1772650358600118800,3.127118896484375,2.1279005014777184,-0.0688435268625617,-1.4925981264941393,-0.2739234864711761,-0.5849958062171936,0.1926371306180954
1772650358610092000,3.137092041015625,2.0260113218426703,-0.2030503372564911,-2.311533459950238,-0.5391318798065186,-0.6205360889434814,-0.2276576310396194
1772650358620063700,3.147063720703125,1.6172013883709906,-0.230339326198399,-2.6296985152482986,-0.8027872443199158,-0.4922401905059814,-0.6481505036354065
1772650358630036700,3.15703662109375,1.063325396838784,-0.0329082901284098,-2.5467770709335804,-0.9839302897453308,-0.2760620415210724,-0.9805154204368592
1772650358640009000,3.167009033203125,0.474116226118803,0.3713037941589951,-1.963643566865474,-1.0803366899490356,-0.0700825154781341,-1.1808383464813232
1772650358649982200,3.176982177734375,-0.0265460616201162,0.8085083397269248,-1.07034550473392,-1.0854504108428955,0.0862224474549293,-1.237661600112915
1772650358659954400,3.186954345703125,-0.3783785548508167,1.209312953658402,-0.2160723159149289,-1.008185625076294,0.2456749528646469,-1.1523033380508425
1772650358669927400,3.196927490234375,-0.7081096909105777,1.5024121028915047,0.5049513632349669,-0.8547982573509216,0.3963187336921692,-0.9420828819274902
1772650358679900200,3.206900146484375,-0.7767407440662384,1.692728046259284,1.062188940154761,-0.6474552154541016,0.4821057915687561,-0.6586945652961731
1772650358689872400,3.216872314453125,-0.5213572852432727,1.788949409390986,1.4515392631359398,-0.4293296635150909,0.4823126196861267,-0.372761070728302
1772650358699845400,3.226845458984375,-0.1109556986659765,1.7489403473466634,1.5982593720138072,-0.2539431750774383,0.4622819125652313,-0.1278560012578964
1772650358709817000,3.236817138671875,0.3845715642720461,1.44691817920655,1.4521996267408133,-0.129273921251297,0.4639036059379577,0.0292441733181476
1772650358719790300,3.246790283203125,0.8904612312704324,1.1009154150426388,1.146772764723748,-0.0346810966730117,0.4555796384811401,0.1127079054713249
1772650358729762300,3.25676220703125,1.3034966734826563,0.8489443950116634,0.9838817116372288,0.0534815564751625,0.4552948176860809,0.1390042155981063
1772650358739735000,3.266735107421875,1.635932976847887,0.6527414394319057,0.8574917124740778,0.1281424760818481,0.4824534654617309,0.1400803923606872
1772650358749708300,3.276708251953125,1.847564972227812,0.4742223168417811,0.7338688399367034,0.2160273194313049,0.5355165004730225,0.1338999420404434
1772650358759680300,3.28668017578125,2.1077058547109364,0.3939832434788346,0.7729645865283906,0.3045244216918945,0.5430644154548645,0.1108060777187347
1772650358769653200,3.2966533203125,2.413285715332627,0.2904600329011678,0.8209959192477166,0.38836270570755,0.4723072946071625,0.0695292651653289
1772650358779625200,3.306625244140625,2.676012522655725,0.1007952469184994,0.8859257797978818,0.4635173678398132,0.3681231141090393,0.0028154815081506
1772650358789598200,3.31659814453125,2.820215826407075,-0.1231584698960185,0.8444741177298128,0.5214675664901733,0.2510846555233001,-0.0876169130206108
1772650358799571200,3.3265712890625,2.887092729371786,-0.3459574637174606,0.7490380597569049,0.5426445007324219,0.137110948562622,-0.2075350731611251
1772650358809543200,3.336543212890625,2.7757617676526305,-0.5992369359984994,0.5311018496662377,0.529649555683136,0.0527276769280433,-0.3432726562023163
1772650358819516200,3.34651611328125,2.4843220760643483,-0.8579384333282709,0.2587839149162173,0.4859084486961365,0.0138724204152822,-0.4761060774326324
1772650358829488400,3.35648828125,2.117390797901153,-1.056568616054952,0.0839944803737103,0.4247398972511291,-0.0017532887868583,-0.6127249002456665
1772650358839461400,3.36646142578125,1.7319249151378868,-1.163598081187904,-0.0047905952773988,0.3703304529190063,-0.0201922170817852,-0.7459420561790466
1772650358849433000,3.37643310546875,1.2127969963818788,-1.2000520810991524,-0.0150217741735279,0.346508651971817,-0.0354345738887786,-0.8450784087181091
1772650358859406300,3.38640625,0.5758206968367099,-1.1709230172485112,0.0717496235676109,0.3549455404281616,-0.0124957039952278,-0.8807157874107361
1772650358869379300,3.39637939453125,-0.0088227734029293,-1.1034446412593126,0.1988601920902729,0.3837256729602813,0.0231553483754396,-0.855798602104187
1772650358879351000,3.40635107421875,-0.4769394668459892,-1.0450050195112823,0.328652254781872,0.425223559141159,0.0581098645925521,-0.7767642736434937
1772650358889324300,3.41632421875,-0.8600982417106627,-1.0628212467089295,0.4040129084534943,0.4783417284488678,0.0901710167527198,-0.6589347720146179
1772650358899296300,3.426296142578125,-1.1175035617500544,-1.123515369385481,0.4312245943754911,0.5317455530166626,0.1200876384973526,-0.5141687989234924
1772650358909269200,3.436269287109375,-1.2579144874811172,-1.2044050156116486,0.3810528886266052,0.5790786147117615,0.1363346129655838,-0.3525308966636657
1772650358919241200,3.4462412109375,-1.2649836952149869,-1.2981301780134438,0.2900182804830372,0.6009995937347412,0.1548627614974975,-0.2004332393407821
1772650358929214200,3.456214111328125,-1.1688485490620135,-1.394417884379625,0.0689914109006524,0.5970542430877686,0.1647005826234817,-0.0764364004135131
1772650358939187200,3.466187255859375,-1.0035884287565946,-1.5200754776149987,-0.2533294489026069,0.5548133254051208,0.1732210963964462,0.0153907230123877
1772650358949159200,3.4761591796875,-0.8591349496364593,-1.7068194077149033,-0.4745701073661446,0.4941114485263824,0.2194199562072754,0.0888814628124237
1772650358959132200,3.486132080078125,-0.6225830325335264,-1.8448939994528888,-0.5208021355785429,0.4162318408489227,0.2397577166557312,0.1284453868865966
1772650358969104400,3.4961044921875,-0.3123755121111869,-1.882253423771262,-0.4625146356523036,0.3480487167835235,0.2083056420087814,0.1379338949918747
1772650358979077400,3.506077392578125,-0.0936766470849514,-1.8861612448647616,-0.2453162383168935,0.292722076177597,0.1588968187570572,0.1215288266539573
1772650358989049000,3.516049072265625,0.0045259529918432,-1.8125775377377864,-0.0146216689400374,0.2632643580436706,0.1277488321065902,0.0928503423929214
1772650358999022300,3.526022216796875,-0.0349193376898765,-1.6595505838006734,0.1169238132901489,0.2515869140625,0.1147150471806526,0.0569480024278163
1772650359008995300,3.535995361328125,-0.2269172427952289,-1.536544966378808,0.1008770799830555,0.2355542778968811,0.1382104158401489,0.0187054779380559
1772650359018967000,3.545967041015625,-0.496361960196495,-1.439184370084107,-0.0115244335770606,0.2223210334777832,0.1832284927368164,-0.0102521385997533
1772650359028940300,3.555940185546875,-0.8085778978317976,-1.3516785205885766,-0.048089931038767,0.1992585062980651,0.2484689950942993,-0.0323675200343132
1772650359038912300,3.565912353515625,-1.1152245109021663,-1.3079177047953008,-0.0390983769401907,0.1728495359420776,0.3231592178344726,-0.0401210449635982
1772650359048885200,3.57588525390625,-1.3685714954614638,-1.2225637726366518,0.0606608049288392,0.1654449254274368,0.388355016708374,-0.0240535866469144
1772650359058857200,3.585857177734375,-1.604182916843891,-1.0789689561724662,0.2500499888405204,0.1930200904607772,0.439944177865982,0.0230854302644729
1772650359068830200,3.595830322265625,-1.73604053376317,-0.9393453814268112,0.4900277887389063,0.2401511073112487,0.4915608763694763,0.0872789621353149
1772650359078803200,3.60580322265625,-1.802591858035326,-0.8649477275684475,0.7513830154478549,0.3363285362720489,0.5178595781326294,0.2024409770965576
1772650359088775200,3.615775146484375,-1.7175234648197888,-0.8627066706433891,1.1688910730294884,0.4565416574478149,0.5110714435577393,0.3481350839138031
1772650359098748200,3.625748046875,-1.423721135753393,-0.9396607309862972,1.5631937577210366,0.5844473838806152,0.4357737600803375,0.5139570832252502
1772650359108720400,3.635720458984375,-0.9471727140516042,-1.13578857550323,1.8564551117785275,0.6979483962059021,0.2977705597877502,0.6556627750396729
1772650359118693400,3.645693359375,-0.4103466415196657,-1.3635396387740968,1.945077982605249,0.7800778746604919,0.1098507121205329,0.7416355013847351
1772650359128665000,3.6556650390625,0.2263514256060123,-1.604336061578989,1.8087118022203443,0.7968226075172424,-0.1197027564048767,0.7146251797676086
1772650359138638300,3.665638427734375,0.7920248224377632,-1.8621783117309207,1.2029958794660869,0.7100597620010376,-0.3155423104763031,0.5370447635650635
1772650359148611300,3.675611328125,1.0740542961239814,-2.050840934933722,0.1948383892282843,0.4921538233757019,-0.4085372388362884,0.189688965678215
1772650359158583000,3.6855830078125,0.9693746089875698,-2.055431185333431,-0.8236025946147739,0.2125778049230575,-0.3895358443260193,-0.2669518291950226
1772650359168556300,3.695556396484375,0.3789110542923212,-1.6673311546742915,-1.351664492063224,-0.0214268825948238,-0.2606903314590454,-0.6838720440864563
1772650359178528300,3.7055283203125,-0.5848679266452789,-0.9559472643986344,-1.23824269554466,-0.1584246903657913,-0.0802758485078811,-0.972022831439972
1772650359188501200,3.715501220703125,-1.793233078059554,-0.1579912983462214,-0.6889652838490903,-0.1757590472698211,0.1252680271863937,-1.042898416519165
1772650359198473200,3.72547314453125,-3.06715235940218,0.7764704026922583,0.0724595254026353,-0.0406110845506191,0.3815182149410248,-0.865214467048645
1772650359208446200,3.7354462890625,-3.97667718758285,1.7057821736216543,0.864676509411633,0.2413400709629058,0.6254327893257141,-0.4723545014858246
1772650359218419200,3.745419189453125,-4.1562405585289,2.373687864437699,1.6514581704989075,0.6026418209075928,0.7868698835372925,0.0450159199535846
1772650359228391200,3.75539111328125,-3.571101998248696,2.7059388743638992,2.1206141438618302,0.9472423791885376,0.8031237125396729,0.5762454271316528
1772650359238364200,3.7653642578125,-2.46046539965868,2.762504811194539,2.179936393663287,1.1973888874053955,0.6489370465278625,1.0070269107818604
1772650359248336400,3.77533642578125,-1.150069029790163,2.476092884640396,2.0180721994064745,1.3675861358642578,0.3890895545482635,1.2937417030334473
1772650359258309400,3.785309326171875,-0.0554448238462209,2.038963157874345,1.7882820315234362,1.4598205089569092,0.1541579961776733,1.4277738332748413
1772650359268281300,3.79528125,0.7043278342843056,1.4992881256520747,1.4012057909540832,1.4793376922607422,0.0023895511403679,1.4282464981079102
1772650359278254300,3.80525439453125,1.179424303612113,1.0806704993933438,0.8292451305463909,1.4283229112625122,-0.0812930911779403,1.3066699504852295
1772650359288227300,3.815227294921875,1.533805312281847,0.8121613092765212,0.1587690047204494,1.315929889678955,-0.1210726872086525,1.0920017957687378
1772650359298199300,3.82519921875,1.7103326765328644,0.611410481134057,-0.3926183848664164,1.1720510721206665,-0.1586181968450546,0.8371473550796509
1772650359308172300,3.83517236328125,1.7080220615029331,0.4347875475540756,-0.7440636323451996,0.9969538450241088,-0.1924834251403808,0.5573654770851135
1772650359318144300,3.845144287109375,1.54939100394845,0.2417161679983138,-1.0650168570570646,0.7759434580802917,-0.2279447466135025,0.2436546832323074
1772650359328117200,3.8551171875,1.235909576421976,0.1214165946647524,-1.3424436592534184,0.5294924974441528,-0.2547351121902466,-0.0796363353729248
1772650359338089200,3.865089111328125,0.6523959869951009,0.2031122965767979,-1.5336407693699,0.3007885217666626,-0.2331781536340713,-0.3661485314369201
1772650359348062200,3.875062255859375,-0.15160627348423,0.4647624145790934,-1.5147481451123952,0.1201167479157447,-0.1522783786058426,-0.5399489998817444
1772650359358035200,3.88503515625,-1.1018991653829813,0.9133823803916572,-1.3155479074127971,0.0019189934246242,-0.0450991913676261,-0.5598254799842834
1772650359368007200,3.895007080078125,-1.7623457723647356,1.5236740866288545,-1.0286609106928108,-0.0479302406311035,0.0490381084382534,-0.4285885989665985
1772650359377980200,3.904980224609375,-2.08475927888751,2.154794938144088,-0.6845214561827481,-0.0166133325546979,0.1139193698763847,-0.1835814863443374
1772650359387952400,3.914952392578125,-2.0408546707093715,2.5549399191230533,-0.3606998364277183,0.0616148859262466,0.1537920832633972,0.0980255901813507
1772650359397925000,3.924925048828125,-1.5836983472198247,2.752881535063684,-0.1812092384569346,0.1462424099445343,0.1549694687128067,0.3390613794326782
1772650359407898000,3.934898193359375,-0.8514496558308601,2.798219390915334,-0.185811471555382,0.2048321962356567,0.1241993606090545,0.5031433701515198
1772650359417870300,3.944870361328125,0.077447981339693,2.7150466021880506,-0.3071640610732138,0.2300970703363418,0.0861142948269844,0.5637936592102051
1772650359427843300,3.95484326171875,0.9908733240902424,2.54689894374758,-0.4808243454553186,0.2176524251699447,0.0658748820424079,0.5170634388923645
1772650359437815300,3.964815185546875,1.6928595636844634,2.3010712487772107,-0.6847336376287043,0.1853442788124084,0.0928074270486831,0.3974326252937317
1772650359447788300,3.974788330078125,2.1582699207782743,2.06904762275368,-0.8772378848209976,0.1366136521100998,0.1556369662284851,0.2400126159191131
1772650359457760300,3.98476025390625,2.483434771835804,1.8460633354932068,-1.0637867307402191,0.0443228706717491,0.2383558005094528,0.0655148476362228
1772650359467733200,3.994733154296875,2.480903792053461,1.5665370767995714,-1.373649529378116,-0.0808223038911819,0.2756748795509338,-0.0826253816485405
1772650359477705200,4.004705322265625,2.317019636276364,1.3753551642522217,-1.480007086598873,-0.1804796606302261,0.2821474075317383,-0.1552079617977142
1772650359487678200,4.01467822265625,2.203748646405339,1.3534279946044088,-1.1902575400546191,-0.2431575357913971,0.254149854183197,-0.1629226505756378
1772650359497651500,4.0246513671875,2.2047832501500846,1.332454180158675,-0.8162313351944088,-0.2752140164375305,0.1504061371088028,-0.1713544875383377
1772650359507623200,4.034623046875,2.259543598863482,1.166242458216846,-0.5113441330119968,-0.2898529469966888,0.0223047565668821,-0.2084007114171981
1772650359517596200,4.04459619140625,2.121458485731482,0.9009145284846424,-0.3289731572993099,-0.2711426317691803,-0.0707271844148635,-0.2409634441137313
1772650359527568400,4.054568359375,1.8320915087640284,0.6783759391650557,-0.3012033991031349,-0.2387999892234802,-0.1308956146240234,-0.2567269206047058
1772650359537541000,4.064541015625,1.473656840789318,0.4876832714393734,-0.4311956605419516,-0.243524432182312,-0.1511414945125579,-0.2706107795238495
1772650359547514000,4.07451416015625,1.2233294963121413,0.2823746338620782,-0.6511681987658142,-0.2705177366733551,-0.1600344628095626,-0.280971497297287
1772650359557486300,4.084486328125,0.9305524186402558,0.0723243547156453,-0.7527899596363306,-0.3022511601448059,-0.1681134402751922,-0.2702727913856506
1772650359567459300,4.094459228515625,0.6429425144731998,-0.0903752674520015,-0.7291168231040239,-0.3146945834159851,-0.160633772611618,-0.2354041934013366
1772650359577431300,4.104431396484375,0.4640408223062753,-0.2091439779564738,-0.6712276748456061,-0.312979519367218,-0.1510314792394638,-0.1876915246248245
1772650359587404300,4.114404296875,0.4373153124660253,-0.2976867692843079,-0.5920394257098436,-0.3091900944709778,-0.184249073266983,-0.1430195122957229
1772650359597376300,4.124376220703125,0.4586848482310772,-0.4937403795212507,-0.5099642229609191,-0.2968471348285675,-0.2469654530286789,-0.0979721471667289
1772650359607349200,4.134349365234375,0.3898597338080406,-0.7495096227914094,-0.4482992094255983,-0.2962522208690643,-0.3049876689910888,-0.0339605994522571
1772650359617322200,4.144322265625,0.3712076403081417,-0.9527040446937084,-0.4216163696832954,-0.3071407973766327,-0.374158501625061,0.0280636232346296
1772650359627294200,4.154294189453125,0.40976036606431,-1.169345684929192,-0.3445189553469419,-0.3345775008201599,-0.4506131410598755,0.0738252997398376
1772650359637267500,4.164267333984375,0.4079617922097444,-1.3705214604854583,-0.3054275926694274,-0.3698678314685821,-0.5018134713172913,0.087710753083229
1772650359647238100,4.174238037109375,0.3863847511738538,-1.5360565983399748,-0.2597911922626197,-0.4065240919589996,-0.5319213271141052,0.0672070086002349
1772650359657211100,4.184211181640625,0.3514320957362651,-1.610455128981173,-0.2397643032781779,-0.4383888244628906,-0.5318374633789062,0.0247021578252315
1772650359667182800,4.194182861328125,0.2316582998424768,-1.6552493794754146,-0.2328305584922432,-0.4719156324863434,-0.512249231338501,-0.0349049568176269
1772650359677156000,4.204156005859375,0.0294324307113885,-1.6869994394794106,-0.3201506761573255,-0.519929826259613,-0.4760443866252899,-0.1038248986005783
1772650359687129000,4.214129150390625,-0.2541185534536838,-1.7069307591348886,-0.4145528610378503,-0.5807188749313354,-0.431284636259079,-0.1634304374456405
1772650359697100800,4.224100830078125,-0.6289578282624483,-1.7100825011640786,-0.3994099447026848,-0.6345346570014954,-0.3852969110012054,-0.1866044700145721
1772650359707074000,4.234073974609375,-0.9122755881935356,-1.5985186074718831,-0.2066298031784594,-0.6815177202224731,-0.3663996756076813,-0.171202003955841
1772650359717046000,4.2440458984375,-1.1115198111653328,-1.382939335770905,0.0619958529248833,-0.7017295360565186,-0.3912808001041412,-0.1230832040309906
1772650359727019000,4.25401904296875,-1.3169979600906372,-1.154829668320715,0.3698237847343087,-0.691066563129425,-0.4209217131137848,-0.0439086109399795
1772650359736991000,4.263990966796875,-1.4998983665049077,-0.924452055938542,0.6830224497966468,-0.6496837139129639,-0.4366362392902374,0.0671718344092369
1772650359746964000,4.2739638671875,-1.596070337536931,-0.7055348719865083,0.8868127917654812,-0.596799910068512,-0.4368980228900909,0.19777812063694
1772650359756937000,4.28393701171875,-1.5825830794543028,-0.5866951420724391,1.116144840617478,-0.5453183650970459,-0.4438310265541076,0.3445241749286651
1772650359766909000,4.293908935546875,-1.324077104696631,-0.4748933479711413,1.3992122790493071,-0.5103758573532104,-0.4737492501735687,0.480693906545639
1772650359776882000,4.3038818359375,-0.859185803040862,-0.3947705944642424,1.6258974666543304,-0.4843727648258209,-0.5290513634681702,0.567703127861023
1772650359786854100,4.313854248046875,-0.3324468247592449,-0.3099161362603306,1.756119445195794,-0.4435355067253113,-0.6477363705635071,0.5841675400733948
1772650359796827100,4.3238271484375,0.1527192031621932,-0.2224532491236925,1.861939826799929,-0.3847973346710205,-0.7994412183761597,0.5372128486633301
1772650359806798800,4.333798828125,0.559533578902483,-0.1584179993256926,1.7336529079742728,-0.3510257005691528,-0.9862693548202516,0.3792302310466766
1772650359816772000,4.343772216796875,0.7680109096437692,-0.1965399324491619,1.2689786100700498,-0.3597009479999542,-1.129983901977539,0.1397571712732315
1772650359826745000,4.3537451171875,0.5276794740021229,-0.3426078610286116,0.6442600268125533,-0.4115521311759949,-1.1565362215042114,-0.1000477075576782
1772650359836716800,4.363716796875,-0.0540372951358556,-0.2722489611670374,-0.1041938763808459,-0.4936640560626983,-1.0706427097320557,-0.2544498145580292
1772650359846690000,4.37368994140625,-0.6900427038222551,0.0389183441981673,-0.8800860407937318,-0.6157327890396118,-0.9337477684020996,-0.3215801417827606
1772650359856662000,4.383662109375,-1.1816115845233202,0.3080348525583744,-1.4188655124157663,-0.7325166463851929,-0.8025087714195251,-0.3172655701637268
1772650359866635000,4.393635009765625,-1.4427847326636314,0.5160930811047554,-1.6056865994051095,-0.8443503975868225,-0.6549332141876221,-0.3092384934425354
1772650359876607000,4.40360693359375,-1.313980658096075,0.6795733322560786,-1.574418769960105,-0.9189550876617432,-0.5515490174293518,-0.3877759277820587
1772650359886580000,4.413580078125,-1.0855787297010422,0.7238733694925904,-1.3642150538176296,-0.9369487762451172,-0.4666992127895355,-0.5322596430778503
1772650359896553000,4.423552978515625,-1.100120465272665,0.6885691241383552,-0.9768805276382714,-0.892812192440033,-0.2943034768104553,-0.6551083326339722
1772650359906525000,4.43352490234375,-1.4115490519225595,0.7983855896413325,-0.6593008710127324,-0.7944713234901428,-0.0794901102781295,-0.6527820229530334
1772650359916498000,4.443497802734375,-1.8674328712582584,1.0909393799513578,-0.3617878508601337,-0.6757188439369202,0.1123893111944198,-0.5031381845474243
1772650359926470100,4.45347021484375,-2.144527226629853,1.289289868953824,-0.1078219306848943,-0.5525403618812561,0.2527898848056793,-0.2204018235206604
1772650359936443100,4.463443115234375,-2.0969892303854225,1.2825512083485722,0.0581350858435034,-0.4572218954563141,0.3584404289722442,0.112038180232048
1772650359946414800,4.473414794921875,-1.766567189452052,1.090515601581335,0.0637190234556794,-0.3925608992576599,0.3973551988601684,0.4223683774471283
1772650359956388000,4.48338818359375,-1.1198591849654913,0.958792132435739,0.0665009092591703,-0.3404745161533355,0.3429108560085296,0.6706532835960388
1772650359966361000,4.493361083984375,-0.3080763536125421,0.8703007790341972,0.1536534152723848,-0.2857155799865722,0.1958356946706771,0.8269746899604797
1772650359976332800,4.503332763671875,0.491108277451992,0.7693719688639045,0.2504806353427469,-0.2229089438915252,-0.0218060910701751,0.9115785360336304
1772650359986306000,4.51330615234375,1.0140274051845073,0.628132191093266,0.3507568268232047,-0.1590524762868881,-0.2189241498708725,0.950629711151123
1772650359996278000,4.523278076171875,1.3035428507119415,0.3916971783682704,0.2327520864285528,-0.1336608231067657,-0.3623758554458618,0.9357487559318542
1772650360006251000,4.5332509765625,1.5656775373607874,0.1453618261367082,-0.0926623554758727,-0.1637662649154663,-0.4693084359169006,0.8535417914390564
1772650360016223000,4.543222900390625,1.841463732743263,-0.184641112601757,-0.5479072923861443,-0.242445096373558,-0.5630088448524475,0.6916136145591736
1772650360026196000,4.553196044921875,2.1912878087610004,-0.5645704040259123,-0.9713006086140872,-0.3905708193778991,-0.6786588430404663,0.4270833432674408
1772650360036169000,4.5631689453125,2.4236399360865355,-0.9216092337280511,-1.4218418978780507,-0.5936597585678101,-0.766782283782959,0.0849201455712318
1772650360046141000,4.573140869140625,2.2975953893601893,-1.1503455086439849,-1.8320260423123835,-0.8179290890693665,-0.7726605534553528,-0.2972396612167358
1772650360056114000,4.583114013671875,1.9115771334111689,-1.0802405835434794,-2.1487246783196925,-1.017925262451172,-0.6727473139762878,-0.6636519432067871
1772650360066086100,4.593086181640625,1.3471446765512227,-0.7351645788356661,-2.1043907388135787,-1.1600557565689087,-0.5029558539390564,-0.9595462083816528
1772650360076059100,4.60305908203125,0.7668991490095853,-0.3649439037382602,-1.7269632010772824,-1.2407766580581665,-0.3404369652271271,-1.1435542106628418
1772650360086030800,4.61303076171875,0.2473281626611947,-0.0087450319916009,-1.1342222760345786,-1.2399801015853882,-0.2199203372001648,-1.207173228263855
1772650360096004000,4.623004150390625,-0.2228057158231735,0.2812929761052131,-0.490426578798145,-1.1638174057006836,-0.1406633257865905,-1.1544355154037476
1772650360105977000,4.63297705078125,-0.5730459714263677,0.4541638636752962,0.0981219360560178,-1.0520927906036377,-0.0942396372556686,-1.0178678035736084
1772650360115948800,4.64294873046875,-0.8348591710358858,0.5107122648492455,0.4605705158472061,-0.9327999353408812,-0.0598550327122211,-0.849868893623352
1772650360125922000,4.652922119140625,-0.9949363357454538,0.4653136187210678,0.6163055596992373,-0.7957394123077393,-0.0153980646282434,-0.6556493639945984
1772650360135894000,4.66289404296875,-1.05456750536561,0.4328326140940189,0.726985802424699,-0.63062584400177,0.0325540117919445,-0.4273142516613006
1772650360145867000,4.672866943359375,-0.9506991346120832,0.46592502861768,0.8345999355778098,-0.4623010754585266,0.0608158111572265,-0.2007999867200851
1772650360155839000,4.6828388671875,-0.6799813285350799,0.4684565929219126,0.898242678926885,-0.3111536204814911,0.0198518671095371,0.0094115706160664
1772650360165812000,4.69281201171875,-0.4186544511377811,0.3499839427545666,0.8091732333764433,-0.1956702023744583,-0.0139926662668585,0.1769887059926986
1772650360175785000,4.702784912109375,-0.0934042598843574,0.1454457050278782,0.6393732776843011,-0.1193136423826217,-0.0269462838768959,0.2838360667228699
1772650360185757000,4.7127568359375,0.2829880895853042,-0.0749257693856954,0.5435787616625428,-0.0584271326661109,-0.0263522565364837,0.3266119360923767
1772650360195730000,4.72272998046875,0.6244172622233629,-0.1987736828505992,0.5364198298186064,0.0081737302243709,-0.0279173962771892,0.3296364843845367
1772650360205702100,4.7327021484375,0.8749690631061792,-0.2514309218049049,0.5237444726407527,0.071081593632698,-0.0258111730217933,0.3093892931938171
1772650360215675000,4.7426748046875,0.9590659809410572,-0.2559524908825755,0.3710470429189503,0.108459860086441,-0.0009926420170813,0.2784889042377472
1772650360225646800,4.752646728515625,0.9643342767328024,-0.2854389898687601,0.2225124319650232,0.1258578300476074,0.0242847725749015,0.2605253159999847
1772650360235620000,4.7626201171875,0.9995102195322512,-0.3153615421846509,0.1741292170681059,0.1322651207447052,0.0348154455423355,0.2527049481868744
1772650360245593000,4.772593017578125,1.0979466283649206,-0.3521662552297115,0.2374268002413213,0.1266601234674453,0.0019934861920773,0.2314603924751281
1772650360255565000,4.78256494140625,1.189195171520114,-0.4270458473861217,0.2172685399621725,0.1187097951769828,-0.0446525812149047,0.1821242719888687
1772650360265538000,4.7925380859375,1.2834230227470398,-0.4957429515153169,0.2677509190954268,0.113066554069519,-0.0949903130531311,0.1226657330989837
1772650360275510000,4.802510009765625,1.2477379613816737,-0.5628256061851978,0.3223419025912881,0.1035068705677986,-0.15840844810009,0.0467134416103363
1772650360285483000,4.81248291015625,1.0484230112612247,-0.6130602941676974,0.3422702996373176,0.0988533422350883,-0.1908961832523346,-0.0231164488941431
1772650360295455000,4.822455078125,0.745232091602683,-0.5979968728095293,0.35520445388183,0.1023673862218856,-0.1792214214801788,-0.0809733495116233
1772650360305428000,4.832427978515625,0.4261474372416734,-0.5659022371515632,0.2386490355126559,0.1013835370540618,-0.1485265791416168,-0.1233620941638946
1772650360315401000,4.84240087890625,0.0782061062306165,-0.5662570419386029,0.1581299761645495,0.0926614180207252,-0.108901672065258,-0.1474485248327255
1772650360325373000,4.852373046875,-0.2771773574799299,-0.5917147238001227,0.0337482480838894,0.0833095386624336,-0.0302444621920585,-0.1354674845933914
1772650360335346000,4.862345947265625,-0.5313303977251053,-0.6535954259127378,-0.064749243286252,0.077814370393753,0.0865916088223457,-0.1010818183422088
1772650360345318100,4.872318115234375,-0.5284668249875307,-0.6625035395115614,-0.0842322346523404,0.0657039880752563,0.1674957275390625,-0.0576706901192665
1772650360355291000,4.882290771484375,-0.43529228220582,-0.6607017507866024,0.008840016798675,0.0678393095731735,0.2054910510778427,-8.11628415249e-05
1772650360365263000,4.89226318359375,-0.443048887681961,-0.6736074095889926,0.1151497893549501,0.0900119468569755,0.2325074225664138,0.0869447886943817
1772650360375236000,4.902236083984375,-0.3976508260756731,-0.6568447830975055,0.1993789552673697,0.1171618103981018,0.2248851805925369,0.1994026154279709
1772650360385209000,4.912208984375,-0.2556926709026098,-0.6292620719060301,0.2234516125112771,0.141996368765831,0.1763116717338562,0.3201540410518646
1772650360395181000,4.92218115234375,0.0014227262794971,-0.7323007138371467,0.2774816011235118,0.1619093567132949,0.0916242077946662,0.4194311201572418
1772650360405154000,4.932154052734375,0.2392366261422634,-0.90201021476686,0.4087453438028693,0.1743362694978714,-0.0140838949009776,0.4897982180118561
1772650360415126000,4.9421259765625,0.4915419926941394,-1.0239175155580045,0.5450827364847064,0.1786396652460098,-0.1209600120782852,0.5063404440879822
1772650360425099000,4.95209912109375,0.6831617121368646,-1.0467442643940448,0.6197217978835106,0.18093241751194,-0.2298201024532318,0.4586283266544342
1772650360435071000,4.962071044921875,0.7467536020815372,-1.086535592034459,0.7579008729092777,0.1821287125349044,-0.3131240606307983,0.3585976064205169
1772650360445044000,4.9720439453125,0.6179372525542974,-1.1647437440916897,0.936392522970587,0.188423678278923,-0.3664858341217041,0.2374494224786758
1772650360455017200,4.982017333984375,0.2663718858271837,-1.204675941507518,1.017665250230208,0.2083273380994796,-0.3640953302383423,0.1281932443380355
1772650360464989000,4.991989013671875,-0.2557598909199238,-1.0142997923851012,0.8641623493444174,0.2454403638839721,-0.298223078250885,0.0502494014799594
1772650360474962000,5.0019619140625,-0.7796458178579807,-0.85263418944031,0.6741767339095472,0.279975950717926,-0.1532256603240966,0.0050507616251707
1772650360484934100,5.01193408203125,-1.3032149339318275,-0.8986001140624285,0.4483155029732734,0.2824804782867431,0.0642941668629646,-0.0220381543040275
1772650360494907000,5.021906982421875,-1.7972879064083098,-0.9312146819412708,0.2111710268046706,0.2465365678071975,0.3192774653434753,-0.0169440601021051
1772650360504879000,5.031879150390625,-2.2529361634224654,-0.9032532005652784,0.1888191289387643,0.2227094918489456,0.6197802424430847,0.0509550683200359
1772650360514852000,5.04185205078125,-2.3193396036565304,-0.7864332860410213,0.5674449365489185,0.2462888658046722,0.8802341818809509,0.1497714072465896
1772650360524825000,5.0518251953125,-1.88179106695652,-0.6718897920161485,1.240668022995442,0.3099656105041504,0.9813498854637146,0.2189585417509079
1772650360534797000,5.061797119140625,-1.1230348923921585,-0.5962786707147956,1.853611997307092,0.3997391760349273,0.9191405773162842,0.2429823726415634
1772650360544770000,5.07177001953125,-0.356083720934391,-0.6050546823665499,2.339646917017549,0.5044935941696167,0.7445165514945984,0.2483467906713485
1772650360554742000,5.081741943359375,0.173469730246067,-0.6753013540253042,2.625021755608916,0.5861138701438904,0.4855012595653534,0.2275227308273315
1772650360564715000,5.091715087890625,0.5285287843078375,-0.7744143469452858,2.587496911595762,0.6172915101051331,0.1896335184574127,0.161426767706871
1772650360574688000,5.10168798828125,0.6775128925949335,-0.7315788293033838,2.0913588232830165,0.5874382853507996,-0.0560838282108306,0.0234132446348667
1772650360584660000,5.111659912109375,0.4427864373534917,-0.4951601831912994,1.218121114014089,0.5269054174423218,-0.178162932395935,-0.1751358360052108
1772650360594633200,5.12163330078125,-0.2114034473210573,-0.1841252720341086,0.2932750903218984,0.4552711546421051,-0.1671976298093795,-0.3886419832706451
1772650360604605000,5.13160498046875,-1.0288999801456928,0.0818269270762801,-0.437367188783735,0.3981262743473053,-0.0132060423493385,-0.5263367295265198
1772650360614578000,5.141577880859375,-1.8845447495788332,0.4259530837133526,-0.830571118453145,0.3743964433670044,0.2487520575523376,-0.5476904511451721
1772650360624550100,5.151550048828125,-2.5953485018789766,0.9285442936882377,-0.9343507880099116,0.394041895866394,0.537242591381073,-0.4256442487239837
1772650360634523000,5.16152294921875,-2.988058948943019,1.344999481216073,-0.6801838653698563,0.4608667194843292,0.7936115264892578,-0.19842629134655
1772650360644495600,5.17149560546875,-2.85593946621716,1.6637164713084698,-0.1801058072596788,0.5735979080200195,0.9667861461639404,0.0904985964298248
1772650360654468900,5.18146875,-2.3302982200443743,1.8250342837288973,0.350353506719321,0.6926270723342896,1.0063008069992063,0.3738181591033935
1772650360664441600,5.191441650390625,-1.4648533566087485,1.837010260465741,0.7081446160934866,0.7832595109939575,0.907675802707672,0.5896039605140686
1772650360674413600,5.20141357421875,-0.4784510404527187,1.784407966569066,0.8933360560543835,0.8577070832252502,0.7139068841934204,0.7186039686203003
1772650360684386800,5.21138671875,0.3742728730976581,1.6333885530620813,1.0101184150472282,0.919052004814148,0.4722297191619873,0.7611183524131775
1772650360694358500,5.221358642578125,0.9346697908312082,1.395078686375916,1.1204608041204511,0.977272927761078,0.2379724532365799,0.7497671842575073
1772650360704331500,5.23133154296875,1.1489397334992886,1.1508370915532111,1.118382390411198,1.0151656866073608,0.0771938934922218,0.7133772969245911
1772650360714303700,5.2413037109375,1.0752063887685537,1.0372656574308872,0.7740722555093467,1.012090802192688,0.0060587315820157,0.6796160936355591
1772650360724276700,5.25127685546875,0.8616016320109366,1.004371103566885,0.1653564202867448,0.958448886871338,0.0208900682628154,0.6395291686058044
1772650360734249500,5.26124951171875,0.6641355246275663,0.9112403999269008,-0.4923404495954513,0.8492704629898071,0.0739215910434722,0.5862550139427185
1772650360744221700,5.2712216796875,0.7112345449328422,0.7945493724793196,-1.0481970935508609,0.6856089234352112,0.0772383734583854,0.4745325744152069
1772650360754194700,5.281194580078125,0.8493091366708279,0.6209399415016174,-1.4269213930994271,0.4825210869312286,0.0061442237347364,0.2962847948074341
1772650360764166700,5.291166748046875,0.8645376854628324,0.4611082759857177,-1.5927277491107583,0.2697465419769287,-0.0844556987285614,0.0752306506037712
1772650360774139600,5.3011396484375,0.6239180805295705,0.5001309573411942,-1.5634879183620214,0.0940003022551536,-0.1138932108879089,-0.1119107380509376
1772650360784112600,5.311112548828125,0.1179419042915105,0.7649456768542527,-1.369075061069429,-0.0303981993347406,-0.057481825351715,-0.2044849693775177
1772650360794084900,5.3210849609375,-0.3826584241271019,1.2050614336937666,-1.1668274184979497,-0.1088029891252517,0.0256386287510395,-0.196201205253601
1772650360804055800,5.331055908203125,-0.6466144809842109,1.6561889984130858,-0.9601854864902792,-0.1391007453203201,0.0862656086683273,-0.1033503338694572
1772650360814027800,5.34102783203125,-0.6524561927497387,1.96422502001524,-0.6817512608170508,-0.1245244741439819,0.1205364912748336,0.0262875538319349
1772650360824000500,5.35100048828125,-0.3694061438441276,2.1048072106599807,-0.4519235374026,-0.0774711295962333,0.1363357156515121,0.1241176649928093
1772650360833973800,5.360973876953125,0.1887298432201146,2.153295639497041,-0.3392527053818106,-0.03201150521636,0.145420029759407,0.138046532869339
1772650360843945700,5.37094580078125,0.7920283295691013,2.010100051483512,-0.3285221986614167,0.0034860339947044,0.1458908766508102,0.0822077691555023
1772650360853918700,5.380918701171875,1.21106038184762,1.7777175290197134,-0.3497625550888478,0.033574853092432,0.1511603146791458,0.0206778906285762
1772650360863890700,5.390890625,1.3671476001381873,1.5590303544312714,-0.3526781502746045,0.0364293716847896,0.1477863937616348,-0.0309731364250183
1772650360873863700,5.40086376953125,1.3834814798235893,1.3879513187140229,-0.4205559008449315,0.0150119643658399,0.1384663879871368,-0.0604873523116111
1772650360883836700,5.410836669921875,1.256974576282501,1.276902096545696,-0.4544831587575376,-0.0004672356881201,0.1441723108291626,-0.0478535182774066
1772650360893808600,5.42080859375,1.232334640544653,1.2134265264570712,-0.409446039418131,-0.0133835673332214,0.1465619653463363,-0.0155043685808777
1772650360903781600,5.43078173828125,1.320670511123538,1.0987111829966305,-0.363652841014415,-0.032410442829132,0.1192490831017494,0.0106713157147169
1772650360913753900,5.44075390625,1.4571394212305544,0.9244938492536544,-0.3052431760132312,-0.0537634044885635,0.0737364590167999,0.0176693052053451
1772650360923726800,5.450726806640625,1.5877853242725133,0.7205500702887773,-0.223630037818104,-0.0768797174096107,0.0235459692776203,0.0081285703927278
1772650360933698600,5.460698486328125,1.743959636324644,0.5713602102965116,-0.0989075334757566,-0.1092485785484314,-0.0424966998398304,-0.0379654206335544
1772650360943671800,5.470671875,1.817127163866162,0.4430214151531457,-0.06409077937752,-0.1456997543573379,-0.1185045018792152,-0.1174900904297828
1772650360953643800,5.480643798828125,1.6693004089206456,0.3639613224416971,-0.0250895792014896,-0.1580464392900467,-0.1654400527477264,-0.1963633447885513
1772650360963616500,5.490616455078125,1.346205934396386,0.3230500508606433,0.0484656324833631,-0.1485626250505447,-0.164440631866455,-0.2539569139480591
1772650360973589800,5.50058984375,0.9576479308366777,0.3299099997580051,0.086329206931591,-0.1423324197530746,-0.1630970686674118,-0.2904190719127655
1772650360983561700,5.510561767578125,0.5923907233655452,0.3044073097109794,0.0743723732866346,-0.1359355747699737,-0.1550449430942535,-0.3146247863769531
1772650360993534700,5.52053466796875,0.173714060395956,0.1873772595673799,-0.0069929276272654,-0.1207390502095222,-0.1205133348703384,-0.2859396338462829
1772650361003506700,5.530506591796875,-0.2714250775635242,0.0793751500099897,-0.0935519977919757,-0.1080046892166137,-0.0623847991228103,-0.2076003104448318
1772650361013479700,5.540479736328125,-0.5471791242420673,-0.0144186937138438,-0.2332949611335992,-0.112171471118927,-0.0173944234848022,-0.1025937348604202
1772650361023452000,5.550451904296875,-0.5612053115069866,-0.1656727927595377,-0.4159750027954578,-0.145479530096054,-0.0105499327182769,0.0001064783427864
1772650361033424600,5.560424560546875,-0.4240595250517129,-0.3300768807575106,-0.5203199050195515,-0.1882536262273788,-0.0381930135190486,0.0869202017784118
1772650361043397600,5.570397705078125,-0.2216495315253734,-0.4614049208447336,-0.5655671599783003,-0.2284784913063049,-0.0820472761988639,0.1529341787099838
1772650361053369900,5.580369873046875,-0.0217792856097221,-0.5571396695032715,-0.4505276991300284,-0.2545055747032165,-0.1118214204907417,0.2053417265415191
1772650361063342800,5.5903427734375,0.2172363912582397,-0.6078717856138944,-0.2946576307214796,-0.2693572044372558,-0.1391310691833496,0.2226677238941192
1772650361073314600,5.600314453125,0.4650771796166896,-0.7193886252939701,-0.16236732147336,-0.2822660803794861,-0.1795282959938049,0.2121224105358123
1772650361083287800,5.610287841796875,0.6159253282099962,-0.8865016799896955,-0.0804402950234711,-0.2942280173301697,-0.2110130041837692,0.1815661340951919
1772650361093259800,5.620259765625,0.6975918040275574,-1.0692290679246186,0.0134026485390961,-0.3097957968711853,-0.2205838710069656,0.1324310898780822
1772650361103232500,5.630232421875,0.7510603593647479,-1.179606674441695,0.1374492994464933,-0.3384381532669067,-0.2475683093070984,0.0624051205813884
1772650361113205800,5.640205810546875,0.7342021635442971,-1.2491145104318857,0.1386893626354634,-0.3824865818023681,-0.2904044389724731,-0.0252839867025613
1772650361123177700,5.650177734375,0.6074719726413488,-1.316091951161623,0.1309466395542025,-0.4312528967857361,-0.3076330125331878,-0.1178728118538856
1772650361133150700,5.660150634765625,0.4061912754058838,-1.3123381515860555,0.1233699206896126,-0.4682306349277496,-0.3242716193199157,-0.1937710344791412
1772650361143124700,5.670124755859375,0.0511240380376577,-1.2049231942668557,0.1870281538687646,-0.4829436838626861,-0.3437688052654266,-0.2402983456850052
1772650361153097700,5.68009765625,-0.3758586809843778,-0.9818258020207286,0.2256505838602781,-0.477276474237442,-0.3504632115364074,-0.2471213638782501
1772650361163069700,5.690069580078125,-0.8397229776799678,-0.8011278740867972,0.2740770533770322,-0.4584579765796661,-0.3309084475040436,-0.2054080069065094
1772650361173042700,5.700042724609375,-1.2950140918195248,-0.6515072214618325,0.3678706048399209,-0.4306660294532776,-0.306408166885376,-0.1144658327102661
1772650361183014700,5.7100146484375,-1.6684242106080054,-0.577012244708836,0.5718994317397474,-0.3971908092498779,-0.275741845369339,0.0331653915345668
1772650361192987600,5.719987548828125,-1.8984908573448656,-0.5384796849578619,0.8052579596288502,-0.3632887601852417,-0.2780382931232452,0.2166348248720169
1772650361202960600,5.729960693359375,-1.8029004855930804,-0.5013169522553682,0.9687802963562308,-0.3479228317737579,-0.3409518003463745,0.3849435150623321
1772650361212932600,5.7399326171875,-1.4317776009589434,-0.4455792829424143,1.0957532099738716,-0.3364973366260528,-0.4551390707492828,0.498671144247055
1772650361222905600,5.749905517578125,-0.9982949985235928,-0.4447410785526037,1.1410269145481289,-0.328269898891449,-0.5837408900260925,0.5312756299972534
1772650361232877800,5.7598779296875,-0.6264601662278175,-0.5120926132917404,1.0937247728861867,-0.325683444738388,-0.6955329179763794,0.4712197780609131
1772650361242850800,5.769850830078125,-0.2623965524554252,-0.5488689770251513,0.9106947487428784,-0.3255887031555176,-0.7549055814743042,0.3270430862903595
1772650361252822500,5.779822509765625,0.0244154793322086,-0.5729676454931497,0.607413812713325,-0.3390917181968689,-0.7893692851066589,0.0967968329787254
1772650361262795800,5.789795654296875,0.1561146908193826,-0.5329641364067793,0.180165501557663,-0.3647966682910919,-0.7998830676078796,-0.1780714243650436
1772650361272768800,5.799768798828125,-0.0145686235785484,-0.4926514152407646,-0.3766340492710471,-0.4083540141582489,-0.7515373826026917,-0.4234310984611511
1772650361282740500,5.809740478515625,-0.4744973343908786,-0.3955436246633529,-0.9958622184187174,-0.4736482501029968,-0.6406894326210022,-0.5682042837142944
1772650361292713700,5.819713623046875,-0.987703461882472,-0.2231587670445442,-1.5375012441903353,-0.5619331002235413,-0.5151094198226929,-0.6098470687866211
1772650361302685700,5.829685791015625,-1.3019143727272748,-0.0451855878993868,-1.9440566767334937,-0.6609464287757874,-0.3767326772212982,-0.5656087398529053
1772650361312658700,5.83965869140625,-1.485236803945899,0.1167673075541853,-2.193417952657491,-0.7500078678131104,-0.2572872340679168,-0.4600077271461487
1772650361322630700,5.849630615234375,-1.4145184231221677,0.2680377732127905,-2.1453823821544646,-0.8112426400184631,-0.1930712908506393,-0.3248459100723266
1772650361332603600,5.859603759765625,-1.1247118856936693,0.413540761385858,-1.847840282037854,-0.8340960741043091,-0.1917610168457031,-0.1809004694223404
1772650361342576600,5.86957666015625,-0.7998387110590934,0.4611480234742164,-1.3631614531114695,-0.8168279528617859,-0.2131218612194061,-0.0338910669088363
1772650361352548600,5.879548583984375,-0.5428139147698879,0.5301160534992814,-0.8183915089029818,-0.7622196078300476,-0.2497872114181518,0.1222223788499832
1772650361362521600,5.889521484375,-0.3680512221038341,0.6220061094284057,-0.4072742483370006,-0.6960260272026062,-0.295651763677597,0.2765674293041229
1772650361372493800,5.899493896484375,-0.2695926014393567,0.724371966664493,-0.1645403546635061,-0.6153714060783386,-0.3388359844684601,0.4254274666309356
1772650361382466800,5.909466796875,-0.1644090564340352,0.7718295911490917,-0.0175167327944189,-0.5416561365127563,-0.3797642588615417,0.5644744038581848
1772650361392438500,5.9194384765625,-0.0477986930072307,0.7250529346659779,0.080116908288002,-0.4809842407703399,-0.4253919422626495,0.6876338720321655
1772650361402411800,5.929411865234375,0.0896270794332027,0.6059545538157224,0.1230749563310295,-0.4392161071300506,-0.4756917357444763,0.7894209027290344
1772650361412384800,5.939384765625,0.3027081045776605,0.5533844086229801,0.1026155211482197,-0.4051806330680847,-0.5611022710800171,0.862086832523346
1772650361422356500,5.9493564453125,0.54051615922153,0.5175567239165306,0.0463193411696702,-0.3684715032577514,-0.6834964752197266,0.8848568201065063
1772650361432329700,5.959329833984375,0.7501888372272253,0.5007809456825256,-0.0894138750739395,-0.3340387046337127,-0.8010833263397217,0.8584851622581482
1772650361442301700,5.9693017578125,0.8772457758665084,0.4542535877853632,-0.3879044350218028,-0.3242112100124359,-0.8918197751045227,0.7643507122993469
1772650361452274700,5.979274658203125,0.9041893123716116,0.3589344341903924,-0.8794839832473546,-0.3529779016971588,-0.928258180618286,0.5975273847579956
1772650361462246700,5.98924658203125,0.7809089696615934,0.1848094549059867,-1.415817230761051,-0.4167482554912567,-0.8912067413330078,0.3848385810852051
1772650361472219600,5.9992197265625,0.5075122997641563,0.0285971489310264,-1.884898093061149,-0.502159059047699,-0.7893655896186829,0.169547289609909
1772650361482192600,6.009192626953125,0.1753951453506946,-0.0113344639629125,-2.219043830692768,-0.5958864092826843,-0.6005430221557617,-0.0160543601959943
1772650361492164600,6.01916455078125,-0.13724573969841,-0.0442991604536771,-2.342320520140976,-0.6864227056503296,-0.3538904190063476,-0.1644353121519088
1772650361502137600,6.0291376953125,-0.2527916887640953,0.0436135162770748,-2.2978987562209365,-0.7570127844810486,-0.1218492686748504,-0.2560107409954071
1772650361512109800,6.03910986328125,-0.1918529436767101,0.2477934420853853,-2.0334445405833423,-0.7996175289154053,0.0307123139500617,-0.2856288254261017
1772650361522082800,6.049082763671875,0.0443131889790296,0.4790028291165828,-1.664929208099097,-0.8168789744377136,0.0821713432669639,-0.273402452468872
1772650361532054800,6.0590546875,0.3915110081464052,0.6203022281199694,-1.244440381141007,-0.8038707375526428,0.0591216795146465,-0.2460659146308899
1772650361542027800,6.06902783203125,0.7571779654622077,0.647321167948842,-0.7983996912319212,-0.7719424366950989,0.0048064878210425,-0.2183032929897308
1772650361552000800,6.079000732421875,1.0614882445394993,0.6572077711910009,-0.4262600307706743,-0.7280141711235046,-0.0910952761769294,-0.2113556414842605
1772650361561972700,6.08897265625,1.233374504986405,0.6175368550598621,-0.1756025775562971,-0.6756343841552734,-0.1896553486585617,-0.2319101840257644
1772650361571945700,6.09894580078125,1.2491010664284228,0.589996521705389,0.0634594957366585,-0.5996940732002258,-0.2609119713306427,-0.2496819943189621
1772650361581917700,6.108917724609375,1.0392308200240137,0.5778022260427474,0.2430727702390402,-0.5075505375862122,-0.2794255912303924,-0.239762008190155
1772650361591890700,6.118890625,0.6769418147087096,0.5693056158542633,0.2737477483574301,-0.4196294546127319,-0.2410337179899215,-0.2031800299882888
1772650361601862700,6.128862548828125,0.350477571490407,0.5457482146561146,0.1336775988880544,-0.3413127064704895,-0.1732552349567413,-0.1505590677261352
1772650361611835600,6.138835693359375,0.1709989562183618,0.4819967502355575,-0.0179151575274765,-0.2777816653251648,-0.1092405691742897,-0.0919349193572998
1772650361621808600,6.14880859375,0.0960217489063739,0.3168102796882391,-0.0758127082880586,-0.2177393585443496,-0.0750463157892227,-0.0165059827268123
1772650361631780600,6.158780517578125,0.1051256773382425,0.1009577440038323,-0.0555152587339282,-0.1762928515672683,-0.0809494853019714,0.0473733954131603
1772650361641753600,6.168753662109375,0.2493973701506853,-0.0852279676914215,-0.1484222366206347,-0.1556549221277237,-0.0958941951394081,0.1023668497800827
1772650361651725300,6.178725341796875,0.4474304637670516,-0.1983537038728594,-0.2689009659133851,-0.1421894580125808,-0.1086635142564773,0.140971764922142
1772650361661698300,6.1886982421875,0.6891507234185934,-0.2991092033028602,-0.2782866338960826,-0.1341168731451034,-0.1277041286230087,0.1488518416881561
1772650361671670500,6.19867041015625,0.9232353736251592,-0.3851327052861452,-0.2919524634160101,-0.1333115398883819,-0.1476834267377853,0.1039256528019905
1772650361681643500,6.2086435546875,1.113268700659275,-0.488693033003807,-0.295641673322767,-0.1231128051877021,-0.1514313071966171,0.0408691503107547
1772650361691616300,6.2186162109375,1.1528367409378288,-0.5804910267353057,-0.2662633839514106,-0.1103224381804466,-0.1410913169384002,-0.0234336722642183
1772650361701588500,6.22858837890625,1.0948661980062722,-0.6482564029723406,-0.301131722106412,-0.1060036644339561,-0.1141014769673347,-0.0840219259262085
1772650361711561500,6.2385615234375,1.0150894814580678,-0.6692997755229473,-0.3956174205519259,-0.1138016730546951,-0.0947533473372459,-0.1434122771024704
1772650361721533200,6.248533203125,0.9257470641851424,-0.7437184721693396,-0.4324047440707683,-0.1298025548458099,-0.0840557143092155,-0.2010318636894226
1772650361731506400,6.25850634765625,0.696928371682763,-0.8145435282379389,-0.3400489703260362,-0.129385769367218,-0.0698911547660827,-0.2237675338983535
1772650361741478400,6.268478515625,0.3318453517347574,-0.8192422074481844,-0.2736061479296535,-0.1103691533207893,-0.0474962256848812,-0.2051238268613815
1772650361751451100,6.278451171875,0.0431651879876852,-0.7455120775878429,-0.2383291559085249,-0.085397757589817,-0.0134029723703861,-0.1628077924251556
1772650361761424400,6.28842431640625,-0.170925890982151,-0.6562167143270373,-0.2714567148108035,-0.0589505173265934,0.0237564276903867,-0.0885138660669326
1772650361771396400,6.298396240234375,-0.2969873888432979,-0.6563225127890706,-0.2526427818126976,-0.0248093269765377,0.0583311803638935,0.0117621403187513
1772650361781369300,6.308369384765625,-0.2622854932963848,-0.7125576102301477,-0.2306071102891117,-0.0125376740470528,0.0881476923823356,0.1071421429514885
1772650361791341300,6.31834130859375,-0.0582546205699443,-0.8228793949067592,-0.2975839664969593,-0.014094291254878,0.0976690277457237,0.1724098324775695
1772650361801314300,6.328314208984375,0.2839858684509992,-0.9503446220859884,-0.3607671295102685,-0.0311180502176284,0.0997934788465499,0.1994500309228897
1772650361811286500,6.33828662109375,0.6541746871054173,-1.026109764905274,-0.398584453663975,-0.0498097129166126,0.0887693241238594,0.1863749772310257
1772650361821259300,6.34825927734375,0.8860545207440853,-1.128109711438417,-0.3527596180129796,-0.0707959532737732,0.0808818414807319,0.1327985674142837
1772650361831232300,6.358232177734375,0.8849941980361938,-1.2326286550551653,-0.2556654906347393,-0.0820249021053314,0.0779550299048423,0.0727621391415596
1772650361841204500,6.36820458984375,0.7544120078802108,-1.3110063184604048,-0.2459581894822418,-0.0924494713544845,0.1022154539823532,0.022765003144741
1772650361851177500,6.378177490234375,0.4994172561138868,-1.3193357553884386,-0.2209875604853033,-0.1034017205238342,0.1369854211807251,-0.0130590396001935
1772650361861149200,6.388149169921875,0.1953442929238081,-1.3356304721072316,-0.2611076086234301,-0.118641011416912,0.1582009941339492,-0.0356175787746906
1772650361871122400,6.398122314453125,-0.0854442407906055,-1.3247358608663082,-0.2379198444552719,-0.1240624114871025,0.1549564599990844,-0.0279886871576309
1772650361881094400,6.408094482421875,-0.4307295043349265,-1.2616408145278692,-0.1277782386511564,-0.1219381541013717,0.1399608254432678,0.0043878811411559
1772650361891067400,6.4180673828125,-0.7537357160538435,-1.1210369965732097,-0.1007929088309407,-0.1172880083322525,0.131464272737503,0.0372627414762973
1772650361901040400,6.428040283203125,-1.0686574055165052,-0.989949194982648,-0.2061256530486047,-0.1160702630877494,0.1454388499259948,0.0756492912769317
1772650361911012400,6.438012451171875,-1.4593810626775026,-0.9014218934848904,-0.3478374322451651,-0.1111791059374809,0.2229850441217422,0.1204993203282356
1772650361920985300,6.4479853515625,-1.8107196349114176,-0.8319485442861914,-0.4517876360632479,-0.1112322509288787,0.362647145986557,0.1731145828962326
1772650361930957300,6.457957275390625,-1.971015410807729,-0.7464771232277154,-0.4845861822068691,-0.1024675220251083,0.4968622028827667,0.2393002659082412
1772650361940930300,6.467930419921875,-1.997947841396928,-0.6181774910509586,-0.3454229184493422,-0.0795401781797409,0.6133960485458374,0.3285305798053741
1772650361950902500,6.477902587890625,-1.6690210074573757,-0.5686012669771909,0.0202568983480334,-0.0444849841296672,0.666476845741272,0.4340460896492004
1772650361960875300,6.487875244140625,-1.04919633372128,-0.571741903090477,0.5739781377099454,-0.0066675283014774,0.6150449514389038,0.5073837041854858
1772650361970848300,6.49784814453125,-0.4272048373401165,-0.5856336503207683,1.0110932514287532,0.0492018610239028,0.4818722009658813,0.5384848713874817
1772650361980820500,6.507820556640625,0.0962561421841382,-0.7052969715774059,1.3401901812382042,0.1217860057950019,0.3665730655193329,0.5118712782859802
1772650361990793500,6.51779345703125,0.6183160227388144,-0.7943231625080108,1.4630163504399358,0.1641608923673629,0.2334938198328018,0.4063933491706848
1772650362000765400,6.527765380859375,1.1370815379232166,-0.9127385295301677,1.3974096135415135,0.1670717746019363,0.0746485888957977,0.2110092043876648
1772650362010738400,6.537738525390625,1.5891910994172096,-1.0199439357519149,1.2316447585843502,0.1393698304891586,-0.1074642241001129,-0.0683950036764144
1772650362020710400,6.54771044921875,1.7376228345185518,-0.9634925652116536,0.8823806545369327,0.1130642369389534,-0.2447649389505386,-0.3937923014163971
1772650362030683400,6.557683349609375,1.3308429455697537,-0.8116869697630404,0.4107959927223623,0.1039266586303711,-0.2887832820415497,-0.705482006072998
1772650362040656400,6.567656494140625,0.4169318651288747,-0.5681821647822857,-0.1596022406741976,0.0963496640324592,-0.2073556631803512,-0.9370850920677184
1772650362050628400,6.57762841796875,-0.6273878024667501,-0.1793751548975706,-0.6627353024408221,0.0916403979063034,-0.0552649348974227,-1.028425693511963
1772650362060601600,6.5876015625,-1.7007190450131893,0.242614870403707,-0.904580357515812,0.1091872751712799,0.1154576316475868,-0.9396412372589112
1772650362070573300,6.5975732421875,-2.663486803081632,0.6227966752842068,-0.9175368697226048,0.1767202615737915,0.2842895090579986,-0.6732233762741089
1772650362080546300,6.60754638671875,-3.211647339576482,0.9523457327753304,-0.7344023622915148,0.2757690548896789,0.4077924787998199,-0.2873857319355011
1772650362090518500,6.6175185546875,-3.142345255291462,1.1638938492640851,-0.5587734081849456,0.3771601021289825,0.4508286416530609,0.1308200508356094
1772650362100491300,6.6274912109375,-2.518532388702035,1.1397694618329406,-0.3779236506901681,0.4535531997680664,0.4310837686061859,0.5012834072113037
1772650362110464300,6.63746435546875,-1.594397435888648,0.9762103002265096,-0.1670822211660444,0.5042666792869568,0.3652597367763519,0.7841758131980896
1772650362120436500,6.6474365234375,-0.599105126312375,0.8748620956003665,-0.0247673615097999,0.5310893058776855,0.2546716034412384,0.948445737361908
1772650362130409500,6.657409423828125,0.3822919289022684,0.8191670963853597,0.1826540304377674,0.556763768196106,0.122954323887825,1.009118914604187
1772650362140381400,6.66738134765625,1.0773176818341017,0.7678653636932372,0.4210454379275441,0.588843822479248,-0.0064110355451703,1.005432367324829
1772650362150354400,6.6773544921875,1.459277602303028,0.6346873118251561,0.6815982622124255,0.6049325466156006,-0.1334118545055389,0.951959490776062
1772650362160326400,6.687326416015625,1.6691490177512167,0.4927689041405916,0.8753457874640822,0.6049584746360779,-0.2422012388706207,0.8631061911582947
1772650362170299400,6.69729931640625,1.7349638444423674,0.4122095127820968,0.8716763051711023,0.5869544148445129,-0.3189697861671448,0.760208010673523
1772650362180272400,6.7072724609375,1.7158680988281965,0.3681061671614646,0.6851679373927414,0.5338968634605408,-0.3696130216121673,0.6230351328849792
1772650362190244400,6.717244384765625,1.7588269505888223,0.3260872265994549,0.3976736224293709,0.4413797557353973,-0.4326055645942688,0.4261696934700012
1772650362200217600,6.727217529296875,1.729389843702316,0.213791219240427,0.0891480637446045,0.3101269602775574,-0.5492785573005676,0.1567292213439941
1772650362210189300,6.737189208984375,1.4347703530341387,0.0903904650211334,-0.1905946141786873,0.1620778441429138,-0.6692917943000793,-0.1412385553121566
1772650362220162300,6.747162353515625,0.6147989545285701,0.1062052892684936,-0.523512709711492,0.03623728454113,-0.6772457361221313,-0.358682245016098
1772650362230134500,6.757134521484375,-0.5869336270034313,0.3832569745421409,-0.8884936575245111,-0.0644384548068046,-0.574236273765564,-0.4369847774505615
1772650362240107300,6.767107177734375,-1.8190952490687369,0.8056897751748562,-1.1312502744864672,-0.1596637368202209,-0.387380838394165,-0.3654168546199798
1772650362250080300,6.777080322265625,-2.619686239799857,1.1797276704728603,-1.280479662771523,-0.2414675205945968,-0.1667464524507522,-0.1741608530282974
1772650362260052500,6.787052490234375,-2.8474773428201674,1.5161083275496958,-1.1779800230879336,-0.2896734178066253,0.0184040293097496,0.081043429672718
1772650362270025200,6.797025146484375,-2.5056869356542824,1.6872236036241053,-0.8122271410543471,-0.3085736036300659,0.0762894377112388,0.3200040757656097
1772650362279997400,6.80699755859375,-1.6224030486673116,1.6988199333935976,-0.3188662623699754,-0.3217644095420837,-0.0136748030781745,0.4563532769680023
1772650362289970400,6.816970458984375,-0.6742828246325254,1.615727224165201,0.0345101723670959,-0.3282087445259094,-0.1598847359418869,0.4738614559173584
1772650362299942100,6.826942138671875,0.0395189404398202,1.5377654480844736,0.2261561222296208,-0.3092548549175262,-0.2399260848760604,0.4089386165142059
1772650362309915400,6.836915283203125,0.4194944090932607,1.4969640666186808,0.2392887216556817,-0.291789561510086,-0.2172892093658447,0.2827281951904297
1772650362319888400,6.846888427734375,0.5432534752309323,1.467737387612462,0.1240820144817233,-0.2716661393642425,-0.1221264526247978,0.1413553208112716
1772650362329860400,6.8568603515625,0.4507032018274068,1.419073017686605,0.0156731507543474,-0.2604963183403015,0.0186807364225387,0.0245088618248701
1772650362339833300,6.866833251953125,0.3103530663728713,1.3364555247545242,-0.0460057451758533,-0.2511211037635803,0.1491544693708419,-0.0309527460485696
1772650362349805300,6.876805419921875,0.2029997761130332,1.2095265964090824,-0.0205462366834282,-0.2422005832195282,0.2083727866411209,-0.0243715420365333
1772650362359778300,6.8867783203125,0.2610492294996976,1.1023100842714308,0.1046434467792511,-0.2397088557481765,0.1689576357603073,0.0257098656147718
1772650362369750300,6.896750244140625,0.4023334309339523,0.9969359851300716,0.1997870976768433,-0.2406470775604248,0.0591528378427028,0.0897508934140205
1772650362379723300,6.90672314453125,0.4776823941677808,0.8552461255043744,0.3092307843446731,-0.2427493780851364,-0.0640452727675437,0.1486112028360366
1772650362389696300,6.9166962890625,0.5723766938626765,0.6854694045573473,0.3845059516899287,-0.2377455681562423,-0.1585288941860199,0.1788849532604217
1772650362399668500,6.92666845703125,0.66774670086205,0.5595867703944445,0.3437278049692511,-0.227441519498825,-0.2007537931203842,0.17730113863945
1772650362409641200,6.93664111328125,0.7870727529883385,0.4914911392897367,0.2856527787499129,-0.2216310352087021,-0.1968692988157272,0.1439021676778793
1772650362419613400,6.946613525390625,0.907813932609558,0.391789240565896,0.2078448780566454,-0.2198293358087539,-0.1819276213645935,0.0795662701129913
1772650362429586400,6.95658642578125,1.039252447333932,0.2659253111034632,0.1711231671199202,-0.2211508005857467,-0.1665941923856735,0.0042254482395946
1772650362439558100,6.96655810546875,1.0688485441744326,0.1138128416627645,0.1525472806613892,-0.2345630526542663,-0.1580794155597686,-0.0721414759755134
1772650362449531400,6.976531494140625,0.988555694797635,-0.0249321966826915,0.0759345811020583,-0.2548339664936065,-0.1518292427062988,-0.1387498080730438
1772650362459504400,6.98650439453125,0.8504805185377597,-0.133842068734765,0.0146394237924367,-0.2767713665962219,-0.1634462475776672,-0.1730913668870926
1772650362469476400,6.996476318359375,0.652535687726736,-0.2231482456505298,0.07270027535595,-0.2940163910388946,-0.1983895748853683,-0.1906706243753433
1772650362479449300,7.006449462890625,0.4365460816591978,-0.2617068166255951,0.2058480782162398,-0.2928185164928436,-0.2440285831689834,-0.1796658039093017
1772650362489421300,7.01642138671875,0.1823521248817443,-0.2649228560626506,0.2949456538826227,-0.2763671278953552,-0.2698529660701751,-0.1447962373495102
1772650362499394300,7.026394287109375,-0.0700888507485389,-0.2309989591509103,0.2785882471911609,-0.2452906817197799,-0.2696602344512939,-0.0901568531990051
1772650362509366300,7.0363662109375,-0.3158738756209612,-0.2328203293591737,0.2503326051741838,-0.2216689884662628,-0.2525939047336578,-0.012890295125544
1772650362519339300,7.04633935546875,-0.4525415231704711,-0.2544417940586805,0.1717177720122039,-0.2039986848831176,-0.2455531805753708,0.078687846660614
1772650362529312300,7.056312255859375,-0.4514332696676254,-0.2937941457599401,0.1240373716223984,-0.1998875439167022,-0.2559339106082916,0.1632464081048965
1772650362539284500,7.066284423828125,-0.3262964854359627,-0.32600305544734,0.0716202250342816,-0.2050147056579589,-0.2807385325431824,0.2247199565172195
1772650362549257200,7.07625732421875,-0.1517863062262535,-0.3655734338134527,0.0312239172380417,-0.2156732082366943,-0.3156331479549408,0.2548293769359588
1772650362559229400,7.0862294921875,0.0186924255102872,-0.3959755863398313,0.0510886013980954,-0.2218954861164093,-0.3383577167987823,0.2575163245201111
1772650362569202400,7.096202392578125,0.1335176590859889,-0.3836217162013053,0.0756786335796117,-0.2228821814060211,-0.3424496650695801,0.2499599009752273
1772650362579174400,7.10617431640625,0.2070394068926572,-0.3152876001656055,0.0922990020561963,-0.225220501422882,-0.332516998052597,0.2312472760677337
1772650362589147400,7.1161474609375,0.3298825272291898,-0.2476110712558031,0.1089865174848586,-0.2359117567539215,-0.3339630961418152,0.1985122263431549
1772650362599120400,7.126120361328125,0.448203786227107,-0.2467091539800167,0.0900961582496762,-0.2575509250164032,-0.3418765962123871,0.1518756002187729
1772650362609092400,7.13609228515625,0.5307295092225075,-0.2914057893186807,0.1227893443226814,-0.2869141399860382,-0.3516184389591217,0.1033360287547111
1772650362619065300,7.1460654296875,0.5682283420115709,-0.3117933283090591,0.2154732540432363,-0.3194182515144348,-0.3989041447639465,0.0617305561900138
1772650362629037300,7.156037353515625,0.4599041608929634,-0.3025087826132774,0.4329800597406923,-0.3353471457958221,-0.4868007004261017,0.0384199060499668
1772650362639010300,7.16601025390625,0.1399766259670257,-0.2332137125909328,0.7062985498353839,-0.3244965970516205,-0.5688282251358032,0.0611344687640666
1772650362648982300,7.175982177734375,-0.3101519908428192,-0.0590986701786518,0.8054116888858377,-0.2990447580814361,-0.5935088396072388,0.1180286407470703
1772650362658955000,7.185955078125,-0.7325140643268823,0.1423860251963138,0.8131676367748528,-0.2761561274528503,-0.5576580166816711,0.2126805782318115
1772650362668928300,7.19592822265625,-1.0142191283643245,0.3007628157287836,0.8477707481224089,-0.2565648257732391,-0.5076265335083008,0.337538331747055
1772650362678900200,7.205900146484375,-0.8996019845813512,0.4213637100964784,0.9356314754702152,-0.2425301671028137,-0.5109159350395203,0.4438382089138031
1772650362688873200,7.215873291015625,-0.3741244045376777,0.5309545501500368,1.0701516626622527,-0.2172948569059372,-0.5777386426925659,0.4964601397514343
1772650362698845200,7.22584521484375,0.2000268977820873,0.5462333678245544,1.237882922321558,-0.1637220084667205,-0.6674174070358276,0.4836311340332031
1772650362708818200,7.235818115234375,0.7416337748497724,0.4467506648093461,1.314692898018658,-0.1128409951925277,-0.7644254565238953,0.3933113515377044
1772650362718790400,7.245790283203125,1.31063251671195,0.3332850291490554,1.1648784763872624,-0.0862284749746322,-0.8785350918769836,0.1931481659412384
1772650362728763100,7.25576318359375,1.7524053931087251,0.2190536698132753,0.7526232978325337,-0.0982161611318588,-0.9914088845252992,-0.1254266053438186
1772650362738736000,7.265736083984375,1.9890654467612503,0.1038958432823419,0.10121617574431,-0.1451978534460067,-1.0326555967330933,-0.5320271253585815
1772650362748708400,7.275708251953125,1.799253069001436,-0.0545668719679117,-0.7092215976752341,-0.2140088826417923,-0.9795747995376588,-0.9573101997375488
1772650362758681300,7.285681396484375,1.16950788975358,-0.1292711075574159,-1.368654351439327,-0.30976402759552,-0.8641905188560486,-1.3330903053283691
1772650362768653000,7.295653076171875,0.3426613447815179,-0.1065203465670347,-1.8877314167909325,-0.425237625837326,-0.7177949547767639,-1.6420114040374756
1772650362778626300,7.305626220703125,-0.7164321135759353,-0.0225789115548133,-2.160355787141621,-0.5310297012329102,-0.5169221758842468,-1.7876428365707395
1772650362788598300,7.315598388671875,-2.093892433413863,0.0631388854801654,-2.093711523889005,-0.6041614413261414,-0.2263617515563964,-1.727014183998108
1772650362798571000,7.325571044921875,-3.397385015243292,0.209956755644083,-1.8754468124963344,-0.6198917031288147,0.0820150375366211,-1.4305014610290527
1772650362808544300,7.335544189453125,-4.273798431938887,0.5516396107822656,-1.35276368547678,-0.5635378956794739,0.3027130663394928,-0.9596819877624512
1772650362818516200,7.34551611328125,-4.513534239774942,0.8355857317447661,-0.6610358050465583,-0.4435866475105285,0.396070122718811,-0.3759466111660003
1772650362828489200,7.3554892578125,-4.192939180850982,0.9908487741708756,-0.0154949811758473,-0.2898074686527252,0.3726263344287872,0.225993275642395
1772650362838461200,7.365461181640625,-3.3392800322771072,1.0885597913384435,0.409084549161978,-0.1532108634710312,0.230430006980896,0.7657161355018616
1772650362848434200,7.37543408203125,-2.126391850480437,1.0852531510084866,0.6290221256703138,-0.0517350994050502,0.0168724488466978,1.1819334030151367
1772650362858406400,7.385406494140625,-0.9529296701431272,0.9230366361826656,0.7507083310566842,0.0241019092500209,-0.2033308744430542,1.4315131902694702
1772650362868379100,7.395379150390625,0.1399047297745943,0.6474187831044197,0.7855200436536223,0.0645254999399185,-0.4028202891349792,1.507967233657837
1772650362878352100,7.40535205078125,1.1325421409279108,0.3119821288794279,0.6431069112546741,0.0638312101364135,-0.5930083394050598,1.395493507385254
1772650362888324400,7.415324462890625,2.012764886778593,-0.003534019345045,0.2001003283444792,6.60824589431e-05,-0.7887586355209351,1.1241873502731323
1772650362898297300,7.42529736328125,2.5474182914465664,-0.2940542580008506,-0.4704981817521154,-0.1279758512973785,-0.9112144708633424,0.7407646775245667
1772650362908269000,7.43526904296875,2.6110031671285627,-0.5462818831413984,-1.1946317365508523,-0.3013910353183746,-0.9175445437431335,0.3074814081192016
1772650362918242300,7.4452421875,2.3035423150658607,-0.7282061379998922,-1.7920397766217588,-0.4914038479328155,-0.8612920045852661,-0.1467896401882171
1772650362928214300,7.45521435546875,1.7791805873095987,-0.697299543082714,-2.389472147416323,-0.6781074404716492,-0.7039161920547485,-0.5802577137947083
1772650362938187000,7.46518701171875,0.9651993691295384,-0.461890950796008,-2.637693313394487,-0.8306566476821899,-0.4219247996807098,-0.9309661984443665
1772650362948160300,7.47516015625,0.1466226398527622,-0.1504571034491062,-2.591010472674668,-0.9285073280334472,-0.0949189886450767,-1.1664551496505735
1772650362958132200,7.48513232421875,-0.5992471651315688,0.1183902325809001,-2.20465626276955,-0.9587167501449584,0.1585396230220794,-1.239077091217041
1772650362968105200,7.495105224609375,-1.1999731706440449,0.3080623250871896,-1.5328864438712595,-0.9411334991455078,0.2774375081062317,-1.1653339862823486
1772650362978077200,7.5050771484375,-1.561478332105279,0.517636218893528,-0.7688092204146086,-0.8778393864631653,0.2826888263225555,-0.961483120918274
1772650362988050200,7.51505029296875,-1.7433114015489817,0.6825497177183628,-0.0798526678612455,-0.779687762260437,0.2187133133411407,-0.6667777299880981
1772650362998022400,7.5250224609375,-1.6589678154766558,0.8064911546856165,0.4450996461993083,-0.6598962545394897,0.1256989687681198,-0.3382722437381744
1772650363007995100,7.5349951171875,-1.41188398296535,0.8267495143383741,0.7743652471065521,-0.5340158343315125,0.0308907013386487,-0.0454792641103267
1772650363017968000,7.544968017578125,-0.9836275907456874,0.7369885793924331,0.8779042397752403,-0.4226077497005462,-0.042481031268835,0.1634372025728225
1772650363027940400,7.5549404296875,-0.4451145880401134,0.6007382804721594,0.7526584422111511,-0.3157894313335418,-0.0610866732895374,0.2713455557823181
1772650363037913300,7.564913330078125,0.1101180787980556,0.4527238940000533,0.5554065621003508,-0.2209944576025009,-0.0358058884739875,0.3045387268066406
1772650363047885000,7.574885009765625,0.6367723014056682,0.3358189315408468,0.3591588905960321,-0.1424096375703811,0.0161411967128515,0.2760314643383026
1772650363057858300,7.5848583984375,1.0511673415333032,0.1664092903405427,0.1946540456373244,-0.0948319360613823,0.063159666955471,0.2126787453889846
1772650363067830000,7.594830078125,1.3468652750879526,-0.0281295314192771,-0.0281784851275384,-0.0711473748087883,0.1000095531344413,0.1306645721197128
1772650363077803000,7.604802978515625,1.5371651441037657,-0.1982867761164903,-0.2616783942487091,-0.0725196301937103,0.1290219873189926,0.051802784204483
1772650363087775200,7.614775146484375,1.596396500751376,-0.3550684064120054,-0.4474626124709844,-0.0919625684618949,0.143968179821968,-0.0150209842249751
1772650363097748200,7.624748291015625,1.600215766778588,-0.4707821132600307,-0.6128646254651248,-0.1197184473276138,0.1305453330278396,-0.0647573471069336
1772650363107721200,7.63472119140625,1.5610761810451743,-0.5465232906818389,-0.6445027495272457,-0.1459449976682663,0.1139205619692802,-0.0976244881749153
1772650363117693200,7.644693115234375,1.506563085091114,-0.5881225445270538,-0.5832159947197884,-0.1750843226909637,0.0917065143585205,-0.1090689897537231
1772650363127666200,7.654666259765625,1.4812702384024858,-0.5997574527412652,-0.5772606665119528,-0.2096337676048278,0.0548760667443275,-0.1289902329444885
1772650363137638100,7.66463818359375,1.446170283448696,-0.5732026232928037,-0.5289284511499106,-0.2354512512683868,0.0113811828196048,-0.1452761590480804
1772650363147611100,7.674611083984375,1.3166618600040674,-0.5690104322999715,-0.3883872501026839,-0.2379785776138305,-0.0039575602859258,-0.1474279910326004
1772650363157583400,7.684583251953125,1.1802069784224032,-0.516377158743143,-0.2232497332636266,-0.2338254302740097,0.0027847592718899,-0.1642398089170456
1772650363167556400,7.694556396484375,1.140047986513376,-0.4389093036592006,-0.1584860961258411,-0.2262402176856994,0.011380910873413,-0.1969498097896576
1772650363177529000,7.704529052734375,1.0060358219087124,-0.4112152410477399,-0.0956068114299327,-0.1932917386293411,0.0440504662692546,-0.2137780338525772
1772650363187501300,7.714501220703125,0.8394383155196905,-0.4346417093425989,0.04813113983199,-0.155025839805603,0.0847587510943412,-0.2012039124965667
1772650363197474300,7.724474365234375,0.7510165202230215,-0.4443067787885665,0.1156621227912604,-0.138013556599617,0.0944009199738502,-0.1983508318662643
1772650363207446000,7.734446044921875,0.733372726982832,-0.4722346501559019,0.0612084288742393,-0.1332614123821258,0.1017624288797378,-0.2030462473630905
1772650363217419300,7.744419189453125,0.654665685492754,-0.5678939954906702,0.0690802582278847,-0.1117108538746833,0.1411221623420715,-0.1946272403001785
1772650363227391200,7.75439111328125,0.6103080728501081,-0.6227794318884611,0.0579025191966444,-0.0863849967718124,0.157132014632225,-0.1773148328065872
1772650363237364200,7.7643642578125,0.5298270074248314,-0.6712479869812726,-0.1050573613423854,-0.0878447517752647,0.1836094111204147,-0.159633532166481
1772650363247337200,7.774337158203125,0.5114005393743515,-0.7721355883583426,-0.2508748222921043,-0.0941641628742218,0.1933435350656509,-0.1258734315633773
1772650363257309200,7.78430908203125,0.5083645326793194,-0.8417834173411131,-0.2421246026687324,-0.0987827703356742,0.1867379248142242,-0.0728725492954254
1772650363267282200,7.7942822265625,0.5239525624334812,-0.8782955771803855,-0.2778290263216942,-0.1173135787248611,0.1735824346542358,-0.0198791101574897
1772650363277254100,7.804254150390625,0.6184884566962718,-0.935979412125051,-0.3368577730692922,-0.1433971971273422,0.1711206585168838,0.0199772212654352
1772650363287227100,7.81422705078125,0.795061413654685,-0.984074165469408,-0.3655400430005043,-0.1717808991670608,0.1630171984434127,0.0348062328994274
1772650363297199400,7.824199462890625,0.9749977095663548,-1.021760337524116,-0.3593007102195173,-0.1961560398340225,0.1534959822893142,0.0032834815792739
1772650363307172400,7.83417236328125,1.0425146640002727,-1.042299852205813,-0.3132995681535452,-0.2088217586278915,0.1592026054859161,-0.0397460088133811
1772650363317145000,7.84414501953125,0.9281056100100278,-1.0745295124202967,-0.3222631382666528,-0.2131828814744949,0.1937948763370514,-0.0719657242298126
1772650363327117300,7.854117431640625,0.6913964565187692,-1.0521072527319193,-0.3013293635703623,-0.2160934507846832,0.2430527061223983,-0.0817786753177642
1772650363337090300,7.86409033203125,0.5370791705101728,-1.0022115874454378,-0.2646490806225687,-0.218329444527626,0.2787588536739349,-0.0740366429090499
