time,seconds_elapsed,acc_z,acc_y,acc_x,gyro_z,gyro_y,gyro_x
1772650378002691300,0.07169140625,-0.764512546133995,0.0736968121126294,-1.103760575340688,0.0881507098674774,-0.1242567002773284,0.0489666759967803
1772650378012663000,0.0816630859375,-0.4740846619367599,-0.0179845695018768,-1.1499153005331757,0.0378666929900646,-0.1675956696271896,0.0750622227787971
1772650378022636300,0.09163623046875,-0.2436503509312867,0.0519034979775547,-0.9763333420842886,0.0168516878038644,-0.2123506218194961,0.1089285761117935
1772650378032608300,0.101608154296875,-0.1869657561570405,0.2154857481986284,-0.7089696687407792,0.034262977540493,-0.240327849984169,0.1536866426467895
1772650378042581200,0.111581298828125,-0.1996539728164672,0.400950159882009,-0.3869643046274781,0.0783079341053962,-0.245275467634201,0.1720717847347259
1772650378052554200,0.12155419921875,-0.1068640454381704,0.4585036464452743,-0.2299304531365633,0.1132155060768127,-0.2399600893259048,0.1526318192481994
1772650378062526200,0.131526123046875,0.0391997914880514,0.3786328218728303,-0.2630344119675457,0.1367264240980148,-0.2108866274356842,0.0980082526803016
1772650378072499200,0.141499267578125,0.1301911450117826,0.2808247740715742,-0.3992820805393159,0.1502081751823425,-0.1508176177740097,0.0474044829607009
1772650378082471200,0.15147119140625,0.1894517277538776,0.201138950677216,-0.4997521871566772,0.1612619012594223,-0.1017643213272094,0.0002843755646608
1772650378092444200,0.161444091796875,0.2062561475604772,0.1543412514060735,-0.6156089557372033,0.1548313498497009,-0.0667967721819877,-0.0280686672776937
1772650378102416400,0.17141650390625,0.1479383986264467,0.0975739467844366,-0.7443314895011485,0.1390262991189956,-0.0453737713396549,-0.033188596367836
1772650378112389400,0.181389404296875,0.0424953259021043,0.0095940500363707,-0.7834449178799986,0.1142661273479461,-0.0540576614439487,-0.0135917412117123
1772650378122362000,0.191362060546875,0.0184703071922063,-0.0472501192137599,-0.8123686684168875,0.0780407488346099,-0.0942184031009674,-0.0078323893249034
1772650378132334300,0.201334228515625,0.1633966645210981,-0.1228551030352711,-0.7549389543637632,0.0437597334384918,-0.1623363941907882,-0.0094526978209614
1772650378142307300,0.211307373046875,0.3356616951525211,-0.1930801473841071,-0.6840139450520276,0.0137869231402874,-0.2088008373975753,-0.018770033493638
1772650378152279000,0.221279052734375,0.4021563208013772,-0.2115902020648121,-0.6248867794312536,-0.004272922873497,-0.2440051436424255,-0.0237202867865562
1772650378162252300,0.231252197265625,0.362001420545578,-0.1819058424189686,-0.5652282834127546,-0.0230695139616727,-0.2762996852397918,-0.0227836538106203
1772650378172224300,0.241224365234375,0.2830769369125366,-0.2310968665674328,-0.5293864240504801,-0.0268198158591985,-0.2463294267654419,-0.0073918960988521
1772650378182197200,0.251197265625,0.1400999600857496,-0.1057359181910753,-0.3188141668565571,-0.0132813695818185,-0.2291805297136306,0.0189172066748142
1772650378192169200,0.261169189453125,0.0532563738912343,-0.0213344644516706,-0.2075938259050249,-0.0039522405713796,-0.2603168487548828,0.0215907171368598
1772650378202142200,0.27114208984375,0.098069329085946,-0.154987440355122,-0.2291658985048532,-0.0077919862233102,-0.2833478450775146,0.0162121970206499
1772650378212115200,0.281115234375,0.18573592210114,-0.2644128607138991,-0.2529481945000589,-0.0175025556236505,-0.2853010594844818,0.0035899495705962
1772650378222087200,0.291087158203125,0.2020546042174101,-0.2778822908788919,-0.2944742369785905,-0.0403831042349338,-0.2775163650512695,-0.0205015391111373
1772650378232060200,0.30106005859375,0.2054050836890935,-0.2934206362724304,-0.3654502458252012,-0.0657104924321174,-0.2839931547641754,-0.034959077835083
1772650378242032400,0.311032470703125,0.3218020966261625,-0.3279129807218909,-0.356460445292294,-0.0939450562000274,-0.3004874587059021,-0.03622967004776
1772650378252005400,0.32100537109375,0.3227209650367498,-0.3363499696776271,-0.2458184887506067,-0.1181031987071037,-0.330971747636795,-0.0188904087990522
1772650378261977000,0.33097705078125,0.2327390808165073,-0.3137184511527419,-0.1252865679658949,-0.1399144828319549,-0.3597743809223175,0.0048577981069684
1772650378271950300,0.340950439453125,0.1476402924627065,-0.2739735930025577,-0.0411607162974774,-0.154578685760498,-0.3813486397266388,0.021628089249134
1772650378281922300,0.35092236328125,0.1013227779239416,-0.2740206470146775,0.0339592604860663,-0.1665235012769699,-0.4174011945724487,0.0244009718298912
1772650378291895000,0.36089501953125,0.1510223361164331,-0.3113973147287964,0.0956366951115429,-0.1608812510967254,-0.4521262049674988,0.019561480730772
1772650378301868300,0.370868408203125,0.1998848589628934,-0.3601677753776311,0.2394790565960109,-0.107252113521099,-0.508590579032898,0.028155768290162
1772650378311840300,0.38084033203125,0.1688356407046318,-0.429745753994584,0.461533954051882,-0.0246547423303127,-0.618232250213623,0.0006207086262293
1772650378321813200,0.390813232421875,0.2059936972320079,-0.6913809666886925,0.8438581777885555,-0.0035103079862892,-0.751599133014679,-0.0622701086103916
1772650378331785200,0.40078515625,0.4736152908593416,-0.3605959376618265,0.5804229299351573,-0.0059649436734616,-0.7758278250694275,-0.1048153936862945
1772650378341758200,0.41075830078125,0.5706050080150366,-0.1403144796192646,0.2795104766026139,-0.01690174639225,-0.6733012199401855,-0.1443537473678589
1772650378351730400,0.42073046875,0.5939718550771474,-0.1218532325163483,0.2119499752879142,-0.0407476536929607,-0.529695451259613,-0.2051489502191543
1772650378361703200,0.430703125,0.7443734289467334,-0.1383002171874046,0.0684665102437138,-0.0211310740560293,-0.2752831280231476,-0.2960301041603088
1772650378371676200,0.44067626953125,1.0134615879952906,-0.3973842840939759,0.173741094533354,0.0306395944207906,-0.0564740374684333,-0.4368771314620971
1772650378381648400,0.4506484375,1.3574328463315963,-0.8207128645226359,0.6349700742892921,-0.005237444769591,-0.0735662132501602,-0.6325681209564209
1772650378391621000,0.46062109375,1.667339337980747,-0.6462585071533918,0.2463908818110823,-0.0719548389315605,-0.1478631049394607,-0.8198041319847107
1772650378401593000,0.470593017578125,1.8960259285360572,-0.5102019772395491,0.0920760800205171,-0.1242065951228141,-0.2128615379333496,-0.956973135471344
1772650378411566300,0.48056640625,1.8953917222857477,-0.5547986593350768,0.1912960404463112,-0.1786186695098877,-0.2301419377326965,-1.0738643407821655
1772650378421538000,0.4905380859375,1.854769204518199,-0.499599626943469,0.166046156116575,-0.2499090880155563,-0.2531492412090301,-1.2160675525665283
1772650378431511000,0.500510986328125,1.884204557839036,-0.3496431664928793,0.1069806575551629,-0.3157034516334533,-0.3065681755542755,-1.3523521423339844
1772650378441483300,0.510483154296875,1.793712386009097,-0.1865551295295357,0.0948274245552718,-0.3521724939346313,-0.3459419310092926,-1.4530940055847168
1772650378451456300,0.520456298828125,1.530608562067151,-0.0937923824191093,0.2132531668409705,-0.3581326901912689,-0.3439611494541168,-1.5036170482635498
1772650378461429000,0.530428955078125,1.288143037006259,-0.0776449652165174,0.4390560186535119,-0.3152190446853637,-0.3389946222305298,-1.4633314609527588
1772650378471401200,0.540401123046875,0.8786661640584469,-0.0970829483970999,0.7298067050643264,-0.2434461712837219,-0.3246514797210693,-1.3655574321746826
1772650378481374200,0.550374267578125,0.5666068782895803,-0.1082221820488572,0.9259696208946406,-0.1842829883098602,-0.3466603755950928,-1.249618649482727
1772650378491346200,0.56034619140625,0.4475993905931711,-0.1022018988460302,0.9444589250482618,-0.1606796532869339,-0.3995835483074188,-1.142128348350525
1772650378501319200,0.570319091796875,0.3508744618535042,-0.1662897556141018,0.8054040901012718,-0.1600777804851532,-0.4522725939750671,-1.0566552877426147
1772650378511291400,0.58029150390625,0.2462836220443248,-0.3898297770611941,0.713319096121937,-0.1614311933517456,-0.4629843533039093,-0.9764229655265808
1772650378521264400,0.590264404296875,0.1231155075371265,-0.6571846825763583,0.6879686009619385,-0.1594242453575134,-0.422169029712677,-0.8968900442123413
1772650378531237000,0.600237060546875,0.0277618671506643,-0.8639908652350305,0.5684778597932308,-0.1709799617528915,-0.3982042968273163,-0.8410624861717224
1772650378541209300,0.610209228515625,-0.0171370127618312,-0.9113248633399604,0.3261769507095217,-0.1976419389247894,-0.3791232705116272,-0.7836263179779053
1772650378551182300,0.620182373046875,-0.1161456685245037,-0.9017359278701246,0.2123227541230619,-0.2347369045019149,-0.3778564035892486,-0.7199302315711975
1772650378561154000,0.630154052734375,-0.2814677481502294,-0.8776039416544139,0.1250434068597853,-0.2645051777362823,-0.3600821793079376,-0.655413031578064
1772650378571127300,0.640127197265625,-0.5501794751018285,-0.8152038918428123,0.039845688176155,-0.2506462633609772,-0.2462548613548278,-0.5644261240959167
1772650378581099300,0.650099365234375,-0.8573819684892893,-0.8224953640252352,0.1172177547354251,-0.2148943841457367,-0.0837708637118339,-0.4679831862449646
1772650378591072300,0.660072265625,-1.0322685797959563,-0.70264572641626,0.2696044380076229,-0.1607663482427597,-0.0121265538036823,-0.3866435885429382
1772650378601044200,0.670044189453125,-0.9352683412462472,-0.4221802871763705,0.1750572186332196,-0.0975295975804328,0.0248517040163278,-0.3255384266376495
1772650378611017200,0.680017333984375,-0.6611760903000832,-0.2315845039539039,0.1749321309488266,-0.0254248511046171,0.1203629001975059,-0.2513875663280487
1772650378620990200,0.689990234375,-0.5876929209381342,-0.3974456588923931,0.4046672076437622,0.0213615614920854,0.2116526067256927,-0.1753854751586914
1772650378630962200,0.699962158203125,-0.5697106895238161,-0.5953389056466519,0.3496324259031563,0.0034923590719699,0.2331949323415756,-0.1236754357814788
1772650378640935200,0.70993505859375,-0.4068623065352439,-0.7705044800251721,0.0518511102031916,-0.0523671768605709,0.2226594686508178,-0.1167200580239296
1772650378650907400,0.719907470703125,-0.1021083753436803,-1.0386367996536194,-0.114302378745377,-0.1163601204752922,0.1783312559127807,-0.0942043140530586
1772650378660880400,0.72988037109375,0.0604915858417749,-1.2182128839507698,-0.0849078688915818,-0.1663332879543304,0.105296716094017,-0.028047664090991
1772650378670852600,0.7398525390625,0.1015507414609193,-1.0859804423697292,-0.0441745111607015,-0.2024935930967331,0.0451884530484676,0.0699287876486778
1772650378680825600,0.74982568359375,0.0621650720119476,-0.7995869282551109,-0.0935547742709517,-0.1933262050151825,0.0142739471048116,0.2107383608818054
1772650378690797600,0.759797607421875,0.0022299510091543,-0.7038255838505924,-0.1176044159654527,-0.12671959400177,0.0523372925817966,0.3949642777442932
1772650378700770600,0.7697705078125,-0.2321247483104467,-0.7813076135903596,0.0576014904234558,-0.1828536987304687,0.0553607791662216,0.4997386634349823
1772650378710743600,0.77974365234375,-0.2511222942471504,-0.936263635893911,-0.1411709503181278,-0.2676449716091156,-0.0060597728006541,0.5264151096343994
1772650378720715500,0.789715576171875,0.0971761796385049,-0.8715756212756037,-0.2573532975912094,-0.3411170542240143,-0.0302236974239349,0.5374711751937866
1772650378730688500,0.7996884765625,0.1934726538330316,-0.9215930132456124,-0.129009460946545,-0.3765440881252289,-0.0275044236332178,0.5624694228172302
1772650378740660700,0.80966064453125,0.0891074394732713,-0.9453326391428708,-0.0091330814611166,-0.3632868826389313,-0.0095139713957905,0.6050179600715637
1772650378750633700,0.8196337890625,0.0200327342033386,-0.8289505315139889,0.1057942973148077,-0.3216636478900909,0.0411722809076309,0.6665489673614502
1772650378760605700,0.829605712890625,-0.0801782830864191,-0.6531165563546121,0.0804608994200825,-0.2955207526683807,0.1032894477248191,0.7261257171630859
1772650378770578700,0.83957861328125,-0.0615998393446207,-0.6586798895701765,-0.0789206842407584,-0.2995400428771972,0.1393513679504394,0.7380849719047546
1772650378780551700,0.8495517578125,0.1320546007961034,-0.8550405199296772,-0.1931248633086681,-0.3203145563602447,0.0901481285691261,0.6972160935401917
1772650378790523600,0.859523681640625,0.4630716850131749,-1.0701875376932322,-0.155612294255197,-0.3449719846248626,-0.0214282739907503,0.6209200024604797
1772650378800496600,0.86949658203125,0.8136229062616824,-1.2512288722373544,-0.0705460929967463,-0.3571887016296386,-0.1220781803131103,0.5489581823348999
1772650378810468600,0.879468505859375,0.874493846809864,-1.6674163487397131,0.110169516724348,-0.378853291273117,-0.2155550122261047,0.4682939946651459
1772650378820441600,0.889441650390625,0.909108064073324,-1.957074563738704,0.355239817456156,-0.4164206385612488,-0.3236042559146881,0.3678584694862366
1772650378830413600,0.89941357421875,1.0207090749055143,-1.9064245729535816,0.4510954160153865,-0.4576460123062134,-0.4133516252040863,0.2845285832881927
1772650378840386600,0.909386474609375,0.9486562306076288,-1.7133663451403378,0.4596305315833539,-0.4812794625759125,-0.471241295337677,0.2429254949092865
1772650378850358500,0.919358642578125,0.7680442273914814,-1.546776729796827,0.540434033896029,-0.492878258228302,-0.5010746717453003,0.2287034541368484
1772650378860331500,0.92933154296875,0.5002507843285798,-1.3843053634271023,0.6806966371975839,-0.5177441835403442,-0.5234800577163696,0.2478870004415512
1772650378870304500,0.939304443359375,0.18692951579988,-1.22527186255157,0.6439436543397605,-0.5321314930915833,-0.5244154930114746,0.3162207305431366
1772650378880276700,0.94927685546875,-0.2349211010307073,-1.1687404125124214,0.6654480685308575,-0.5489727854728699,-0.5117702484130859,0.4103792011737823
1772650378890249500,0.95924951171875,-0.5818704983949661,-1.2077709849134086,0.7065189876530319,-0.5814496874809265,-0.4937827587127685,0.5042679905891418
1772650378900221700,0.9692216796875,-0.8277537229448556,-1.2193626385077834,0.7289370826229453,-0.6250011324882507,-0.4693983197212219,0.5782452821731567
1772650378910194700,0.979194580078125,-0.9479851994782684,-1.2436778723359108,0.7237735623799264,-0.6569396257400513,-0.4395806193351745,0.6171275973320007
1772650378920166400,0.98916650390625,-0.953240051266551,-1.3247262162551283,0.728015803059563,-0.6768302321434021,-0.416465163230896,0.5934382677078247
1772650378930139600,0.9991396484375,-0.763438194900751,-1.464583599756658,0.7831297144509851,-0.6808843612670898,-0.4193232357501983,0.4852978885173797
1772650378940111600,1.009111572265625,-0.4285778792589902,-1.5468307980716227,0.945713235958293,-0.6627485156059265,-0.4523999392986297,0.317804217338562
1772650378950084600,1.019084716796875,-0.1194838730365037,-1.4594360077351332,1.1484168056037276,-0.6160011887550354,-0.4794635772705078,0.1144040748476982
1772650378960057600,1.0290576171875,0.2313227842777967,-1.123552194264531,1.2123322284143416,-0.5545517206192017,-0.5115429759025574,-0.0985582619905471
1772650378970029600,1.039029541015625,0.3986071038872003,-0.72493719933182,1.2161928493652492,-0.4919465780258178,-0.5080003142356873,-0.2991226017475128
1772650378980002600,1.04900244140625,0.2637596575021743,-0.4405447959065437,1.213964651921764,-0.3962751626968384,-0.4771739542484283,-0.461914986371994
1772650378989974500,1.058974609375,-0.0406090737640857,-0.2208183413982391,1.255029579694569,-0.2873052656650543,-0.4435796439647674,-0.5678141713142395
1772650378999947500,1.068947509765625,-0.3979302275389432,-0.1158896479368209,1.1600733411278574,-0.2001924663782119,-0.3675400018692016,-0.6080307960510254
1772650379009919700,1.078919677734375,-0.7579559640973806,-0.034806524965167,1.0139018791086971,-0.1554259955883026,-0.2536689043045044,-0.5765738487243652
1772650379019892700,1.088892822265625,-1.125814878499508,0.0594189881742,0.916111878420785,-0.1307483464479446,-0.1861409842967987,-0.4717720448970794
1772650379029865500,1.098865478515625,-1.3580740668445823,0.1043856726258993,0.8460203242585063,-0.1204640567302703,-0.1624999195337295,-0.3349502980709076
1772650379039837700,1.108837646484375,-1.3574556426852942,0.0741430945754051,0.7791608108200132,-0.1087011396884918,-0.1557557284832,-0.2134654223918914
1772650379049810700,1.118810791015625,-1.1896224570214748,0.1080421493068337,0.7973910256460308,-0.0830009058117866,-0.1726534962654113,-0.1162160634994506
1772650379059782400,1.128782470703125,-0.963544003137946,0.1321381874263286,0.8121204658094793,-0.039322406053543,-0.2080330699682235,-0.025624644011259
1772650379069755600,1.138755615234375,-0.8127835328280926,0.1346878719091415,0.8171003731139004,0.0024776197969913,-0.2423948645591735,0.0584944412112236
1772650379079727600,1.1487275390625,-0.7781938654839992,0.1591270243778824,0.8105326851613819,0.0403347238898277,-0.267810195684433,0.1478725224733352
1772650379089700600,1.15870068359375,-0.8382201719015836,0.1778928073853254,0.7247201955802738,0.0666834339499473,-0.2813065350055694,0.2395736873149871
1772650379099672600,1.168672607421875,-0.8760352310329675,0.223554488363862,0.6253819425370544,0.0897786319255828,-0.3141691386699676,0.3163185119628906
1772650379109645600,1.1786455078125,-0.8029752555191516,0.2414993103772401,0.4933344290688634,0.0998684242367744,-0.3214676976203918,0.3862734138965606
1772650379119618600,1.18861865234375,-0.8091612506777047,0.200555305570364,0.3486007082352415,0.103845328092575,-0.3498120009899139,0.451662540435791
1772650379129590500,1.198590576171875,-0.7707979100137948,0.1959247231602668,0.1343028546469286,0.0937001332640647,-0.3544782102108001,0.5202375650405884
1772650379139563500,1.2085634765625,-0.8009802823096513,0.1763359333321452,-0.0274810774479061,0.0898603871464729,-0.3161004781723022,0.5978713631629944
1772650379149535700,1.21853564453125,-0.8468073829829692,0.1353220781594514,-0.1294032460371032,0.0779427736997604,-0.2506609261035919,0.6637462973594666
1772650379159508700,1.2285087890625,-0.8215940312713385,0.1238037820622324,-0.2335713303895667,0.0644799619913101,-0.1653247326612472,0.7071715593338013
1772650379169480400,1.23848046875,-0.7005284420013427,0.1857207245320081,-0.3848175383897498,0.0505539923906326,-0.0884120464324951,0.7046144604682922
1772650379179453700,1.24845361328125,-0.4048556428879499,0.2548500825986266,-0.5044297139810398,0.0431378856301307,-0.019797833636403,0.6543248891830444
1772650379189425700,1.25842578125,-0.0820259567797184,0.2814382297948002,-0.6152727095201611,0.0383827723562717,0.0419618636369705,0.5801648497581482
1772650379199398400,1.2683984375,0.1543470966249704,0.2601841371029615,-0.7224395372971892,0.0313759967684745,0.0964243039488792,0.5046112537384033
1772650379209371600,1.27837158203125,0.331627909591794,0.2298275772839784,-0.7860163758032024,0.0144707057625055,0.1235546395182609,0.4382365643978119
1772650379219343600,1.288343505859375,0.5214876336246729,0.2357362168058752,-0.7756229920826851,-0.0104825813323259,0.1020360216498375,0.3735345602035522
1772650379229316600,1.298316650390625,0.7677484593152999,0.2849734181836247,-0.7065225678496062,-0.0297711305320262,0.0497308038175106,0.3144832849502563
1772650379239288600,1.30828857421875,0.9210533534109592,0.2381099601998925,-0.5768732015643269,-0.0412775874137878,0.0392139814794063,0.2675211131572723
1772650379249261600,1.318261474609375,0.929420199739933,0.1858437663897872,-0.4699351410418748,-0.051713790744543,0.0547851994633674,0.2296720445156097
1772650379259233800,1.32823388671875,0.9082926560372112,0.168486388875544,-0.3809306139538064,-0.0698879957199096,0.0511334724724292,0.2037206143140792
1772650379269206500,1.33820654296875,0.7725678422957658,0.1437447463288903,-0.4162757758403196,-0.1010738015174865,0.090722769498825,0.200843408703804
1772650379279178500,1.348178466796875,0.5693196443796158,0.08832651822865,-0.4942135865235701,-0.136451244354248,0.1941876411437988,0.1907202005386352
1772650379289151700,1.35815185546875,0.6445680698484182,0.1638797718629241,-0.5029755331173539,-0.1704636514186859,0.2781427502632141,0.1402303278446197
1772650379299124700,1.368124755859375,0.8956903640955686,0.2247472052797675,-0.5033829814070836,-0.1837158054113388,0.3265100419521332,0.0494831129908561
1772650379309096400,1.378096435546875,1.1625187615185977,0.2660100667774677,-0.398299243514426,-0.1652455180883407,0.342050701379776,-0.0599981099367141
1772650379319069700,1.388069580078125,1.3419067758977412,0.3027060587510466,-0.2198670685553923,-0.1149501278996467,0.3279114365577698,-0.149087518453598
1772650379329041700,1.398041748046875,1.3758914630860088,0.3561889348745345,-0.0617258403444662,-0.0511089488863945,0.3049815893173218,-0.2074704319238662
1772650379339014700,1.4080146484375,1.27310913400352,0.4037351144254207,0.065773362169601,0.0204573813825845,0.2763560712337494,-0.2168063968420028
1772650379348986600,1.417986572265625,1.0898112527042627,0.4216381431236863,0.1259103989526629,0.0823520943522453,0.2581947743892669,-0.1793714612722396
1772650379358959600,1.427959716796875,0.8816232602983712,0.3601823884248733,0.1567805343169719,0.1434130668640136,0.2443990707397461,-0.0950331389904022
1772650379368931600,1.437931640625,0.7330775434285401,0.303024330919981,0.1765248800329864,0.2060358375310897,0.2383697032928466,0.0170950945466756
1772650379378904600,1.447904541015625,0.6239309400111437,0.2174436042681336,0.1475660581827163,0.2634584009647369,0.2424198389053344,0.1349511593580246
1772650379388877600,1.457877685546875,0.6733592800468206,0.145007898132503,0.1143077855728566,0.3111275434494018,0.2294032275676727,0.2271627932786941
1772650379398849500,1.467849609375,0.9029477878779172,0.0805576377928257,0.1020333373460918,0.3384864628314972,0.2152687609195709,0.2701709866523742
1772650379408822500,1.477822509765625,1.128873097026348,-0.031675241202116,0.024876228711754,0.338922917842865,0.2128940671682357,0.2583153843879699
1772650379418794800,1.487794677734375,1.249915889942646,-0.2325435582444071,-0.0932246655337512,0.3152420818805694,0.2126967310905456,0.2068162411451339
1772650379428767700,1.497767822265625,1.2412673040628432,-0.4237599575832486,-0.1758859976075589,0.2874718308448791,0.2279791086912155,0.1347691863775253
1772650379438739500,1.507739501953125,1.240643034684658,-0.4760150454774499,-0.2217973424982279,0.2759307324886322,0.2710621058940887,0.0617423914372921
1772650379448712700,1.517712646484375,1.2693103262424468,-0.485224187849462,-0.201232181918621,0.2786269783973694,0.314232736825943,-0.0102740051224827
1772650379458685700,1.527685791015625,1.2806523889899253,-0.5131336467772722,-0.1130800704088062,0.2844867408275604,0.3381859958171844,-0.0884548276662826
1772650379468657400,1.537657470703125,1.3118220187574623,-0.5400181465715169,-0.0588420650690793,0.2863564193248749,0.349844366312027,-0.1586868613958358
1772650379478630700,1.547630615234375,1.257260407486558,-0.6190045895248651,-0.032394056995958,0.288017988204956,0.3457691967487335,-0.212149292230606
1772650379488602600,1.5576025390625,1.1279232489556072,-0.6943608592823147,-0.0700316406685858,0.2814570963382721,0.3386960327625274,-0.2370277196168899
1772650379498575600,1.56757568359375,0.9185650437265634,-0.7594090855151414,-0.1362405081786215,0.2706433534622192,0.3414590656757355,-0.2405739873647689
1772650379508547600,1.577547607421875,0.7595236518055201,-0.784345081590116,-0.1762323268271982,0.261277973651886,0.3331814110279083,-0.2391901761293411
1772650379518520600,1.5875205078125,0.7016302657634019,-0.7989078599497675,-0.1636887062702328,0.2599474787712097,0.2982202172279358,-0.2313032299280166
1772650379528492800,1.597492919921875,0.6185369720131159,-0.8834016681477427,-0.0773646869704127,0.2617383897304535,0.2625190913677215,-0.2211151868104934
1772650379538465500,1.607465576171875,0.45728082665205,-0.9864543386042116,0.024443682513386,0.2570762634277344,0.2571083605289459,-0.198754221200943
1772650379548438500,1.6174384765625,0.2586182029604911,-1.046943586358428,0.0390884400680661,0.2499407529830932,0.2848414778709411,-0.1724157333374023
1772650379558410800,1.62741064453125,0.0478922165095806,-1.0917121178895235,-0.0982534534811973,0.2528702318668365,0.3324047327041626,-0.1376734673976898
1772650379568383700,1.6373837890625,-0.1350952836662531,-1.1170201621472835,-0.1594541374403983,0.2703363299369812,0.3849742710590362,-0.0894963219761848
1772650379578355500,1.64735546875,-0.205008777847886,-1.090687451016903,-0.135336837337166,0.2976848781108856,0.4153574705123901,-0.0565415695309639
1772650379588328700,1.65732861328125,-0.1495072553783655,-1.091773784948885,-0.1134063797537237,0.3299936056137085,0.4141903519630432,-0.0348621271550655
1772650379598300700,1.66730078125,-0.0244844529151916,-1.1781158513620495,-0.0562342937234789,0.3599642813205719,0.3885877728462219,-0.023033695295453
1772650379608273400,1.6772734375,0.0876928965002298,-1.2897028336688876,0.039504984979704,0.3853492140769958,0.3406702578067779,-0.0168131068348884
1772650379618245600,1.68724560546875,0.1414572199136018,-1.3696069759890437,0.0019113135140389,0.3990125656127929,0.2800961136817932,-0.0228656735271215
1772650379628218600,1.697218505859375,0.140992525011301,-1.3912266871228811,-0.0532186722293496,0.40964075922966,0.2388447076082229,-0.0235144365578889
1772650379638191600,1.707191650390625,0.0600806669533252,-1.4048337721928954,-0.1090945809692144,0.4195919334888458,0.2410122454166412,-0.0172834377735853
1772650379648163600,1.71716357421875,-0.056679334077239,-1.4109224444568156,-0.1578411492858082,0.409242570400238,0.2523424029350281,-0.0086435135453939
1772650379658136600,1.727136474609375,-0.2433908232122659,-1.414763630054891,-0.2921574114035815,0.3967345058917999,0.2618155181407928,0.0037047653459012
1772650379668108500,1.737108642578125,-0.3736690619856119,-1.357393975625932,-0.4017638874176889,0.3910501301288605,0.2653500437736511,0.0273400247097015
1772650379678081300,1.747081298828125,-0.5053256033748388,-1.2598118455350398,-0.3858643805615603,0.3925369679927826,0.2532494366168976,0.0710784569382667
1772650379688053200,1.75705322265625,-0.7246949150085449,-1.1626701526880263,-0.360521922577545,0.3918493688106537,0.2666488885879516,0.1084855422377586
1772650379698026500,1.767026611328125,-0.8777250838160514,-1.0392582925528286,-0.392905531244725,0.3983152508735657,0.2797423005104065,0.1455101370811462
1772650379707998200,1.776998291015625,-0.9936708458542824,-0.944684988889098,-0.3647599985387176,0.4194456040859222,0.2911372184753418,0.1787050664424896
1772650379717971200,1.78697119140625,-1.0708780041754244,-0.8691583310008049,-0.2694598419051617,0.4495627582073211,0.2813823223114013,0.1958749890327453
1772650379727944400,1.7969443359375,-1.033689552509785,-0.7508864641025662,-0.130512193659693,0.4905454814434051,0.253749281167984,0.2133578658103943
1772650379737916400,1.80691650390625,-1.0344915165424349,-0.6471437655553222,0.0988273078463971,0.5594393014907837,0.2420747876167297,0.2447040677070617
1772650379747889400,1.816889404296875,-1.1278449230223893,-0.650903702610731,0.459428213944286,0.6383825540542603,0.272333413362503,0.3030985891819
1772650379757861400,1.826861328125,-1.210358955579996,-0.7799068068817258,0.8356919685982167,0.7004531025886536,0.2991586327552795,0.3683745265007019
1772650379767834400,1.83683447265625,-1.2045330259054898,-0.8923182573139667,1.0739463057048615,0.7392790913581848,0.2886426448822021,0.4095204174518585
1772650379777806300,1.846806396484375,-1.0216039779186248,-0.9815858557850122,1.2412399776645004,0.7687104940414429,0.2218979448080063,0.4160898923873901
1772650379787779300,1.856779296875,-0.6801683755397796,-1.0617585859134793,1.3712773934192954,0.7733648419380188,0.0920686274766922,0.355947196483612
1772650379797751600,1.86675146484375,-0.2723608971089124,-1.1166332086563109,1.301830639966577,0.7243472337722778,-0.0944152325391769,0.2053955048322677
1772650379807724300,1.876724365234375,0.0649444735974073,-1.1822294241607187,1.0575821039464324,0.6329832673072815,-0.2870834767818451,-0.0310087800025939
1772650379817697300,1.886697265625,0.0838052414119243,-1.1504258804038163,0.761129991023615,0.5350084900856018,-0.4265124797821045,-0.2813293933868408
1772650379827669500,1.89666943359375,-0.3462111462175846,-1.0019026676267384,0.4772819966733455,0.4654264748096466,-0.468651682138443,-0.4569712579250335
1772650379837642500,1.906642578125,-1.1025257728487252,-0.6593471213072538,0.3138699153874069,0.3990682065486908,-0.4324737191200256,-0.5107482075691223
1772650379847614200,1.9166142578125,-1.9955758515685795,-0.2423924598246812,0.1876579031396657,0.361054927110672,-0.3341725170612335,-0.4490496814250946
1772650379857587500,1.92658740234375,-2.712731018722057,0.3898679171144962,0.0069722501654177,0.3635324835777282,-0.2185061126947403,-0.3157328963279724
1772650379867559400,1.936559326171875,-3.0950024893581864,1.0127435028538108,-0.1221896248638629,0.422566294670105,-0.0826669111847877,-0.1511415839195251
1772650379877532200,1.9465322265625,-3.1762405106306075,1.48977590868026,-0.0403401206295937,0.5495985150337219,0.0845191478729248,0.0474601909518241
1772650379887504400,1.95650439453125,-3.0332021590054032,1.76363318182677,0.2861033720616251,0.7183898687362671,0.2579827904701233,0.2899796366691589
1772650379897477400,1.966477294921875,-2.725117037564516,1.8692086487591264,0.721444827171415,0.8572790026664734,0.3488732874393463,0.5528661012649536
1772650379907450400,1.976450439453125,-2.1804875978052616,1.864741440217197,1.0957147045943885,0.9402036070823668,0.3423222601413727,0.8358743786811829
1772650379917422300,1.98642236328125,-1.4921394229412075,1.7796154715955257,1.307385789875686,0.9779704213142396,0.3096601963043213,1.09453022480011
1772650379927395300,1.996395263671875,-0.8445388535290956,1.6351535169079898,1.4572317756891249,0.9870680570602416,0.2153453379869461,1.2842570543289185
1772650379937367600,2.006367431640625,-0.1301022976845502,1.5622905252709984,1.6143407382428645,0.9818333387374878,0.0801592916250228,1.3935177326202393
1772650379947340300,2.01634033203125,0.574207416421175,1.4828762122943997,1.6658946921303868,0.96171772480011,-0.0425575487315654,1.4065067768096924
1772650379957312300,2.026312255859375,1.0987024151682854,1.3022224157631397,1.6318630970604715,0.9146799445152284,-0.156631663441658,1.322693109512329
1772650379967285500,2.036285400390625,1.494747559612989,1.1216153809830545,1.4878322272665798,0.8276795744895935,-0.2578204572200775,1.1488232612609863
1772650379977257200,2.04625732421875,1.785927723482251,0.9748059863865376,1.1904000172652305,0.7140419483184814,-0.3306387364864349,0.9185346961021424
1772650379987230200,2.056230224609375,1.857199062013626,0.8966273526847361,0.8661090264327823,0.5860594511032104,-0.3512707054615021,0.6565842032432556
1772650379997203500,2.066203369140625,1.7192822911858558,0.9055962565600872,0.5376513809075578,0.4581340253353119,-0.3140519559383392,0.3745610415935516
1772650380007175400,2.076175537109375,1.4641408244252203,0.9987401119425892,0.1740709475422278,0.3509937226772308,-0.2114862352609634,0.0944599360227584
1772650380017148200,2.086148193359375,1.092746137112379,1.1068220087379217,-0.056828350626491,0.2712400257587433,-0.0555267333984375,-0.1576351672410965
1772650380027120400,2.096120361328125,0.6991220823347568,1.2338085124894975,-0.1332339833064004,0.2179875075817108,0.1050305292010307,-0.3552244007587433
1772650380037093400,2.10609326171875,0.2751104880779981,1.3530129840627312,-0.1509418182261288,0.1885648965835571,0.2332726567983627,-0.484587162733078
1772650380047065300,2.1160654296875,-0.0670353083968162,1.471587048777938,-0.1370200046511367,0.1774752289056778,0.3108875453472137,-0.529758632183075
1772650380057038300,2.126038330078125,-0.3475087848126888,1.581775270202756,-0.0514700019311159,0.1774853467941284,0.3502189815044403,-0.4985418617725372
1772650380067010300,2.13601025390625,-0.5951572654694318,1.6429320419549942,0.0316578151432797,0.1879956275224685,0.372462660074234,-0.3895115554332733
1772650380076983600,2.145983642578125,-0.8274813357442617,1.6274550713598728,0.0722903793808072,0.201707974076271,0.4066214263439178,-0.2230022102594375
1772650380086956300,2.155956298828125,-0.9978156905740498,1.5167410724952817,0.0882474616430699,0.199144572019577,0.4632315635681152,-0.0171752274036407
1772650380096928300,2.16592822265625,-1.0808441023945807,1.3056108891576528,0.0797026283986866,0.1744594573974609,0.5231406688690186,0.2007347345352172
1772650380106901500,2.175901611328125,-0.9101122726798055,1.1680787337332963,0.0584843376725912,0.1465603709220886,0.5489287376403809,0.3994344770908355
1772650380116873200,2.185873291015625,-0.4278711922943591,1.11048053124547,0.0421603217940777,0.1182086318731308,0.5338011384010315,0.5453231930732727
1772650380126846200,2.19584619140625,0.247238146290183,1.0801493981286885,0.1308192868474871,0.1068122014403343,0.5082720518112183,0.6278070211410522
1772650380136818400,2.205818359375,0.8443973992317915,0.9596364743053912,0.2780367507882416,0.1130578517913818,0.462786316871643,0.6477282643318176
1772650380146791400,2.21579150390625,1.3526152169167995,0.8262932950034737,0.392206516129896,0.1244906559586525,0.4018790125846863,0.6222702264785767
1772650380156763400,2.225763427734375,1.78428813958168,0.6831810013592243,0.6008583997204899,0.1338532567024231,0.3139121234416961,0.5684863924980164
1772650380166736400,2.235736328125,2.031810363510251,0.5025353881344199,0.8144951590515672,0.1487026661634445,0.2227621376514434,0.4972683787345886
1772650380176709400,2.24570947265625,2.1905758610993624,0.3166451522544026,0.9949581822510808,0.1592660993337631,0.1366653442382812,0.4001005589962005
1772650380186681300,2.255681396484375,2.307400159537792,0.1343994103565812,1.0727810613177715,0.1623531877994537,0.0503566078841686,0.2820615768432617
1772650380196654300,2.265654296875,2.344402148720622,0.0160553550049662,1.019453521886468,0.1508733630180359,-0.0137736406177282,0.147563949227333
1772650380206626300,2.275626220703125,2.2306822460383176,-0.1609837581604719,0.8632331056702881,0.1096607595682144,-0.0099043119698762,-0.0017581881256774
1772650380216599600,2.285599609375,2.0432395200192928,-0.3469888525918126,0.6472394810147583,0.0479254908859729,0.0447911545634269,-0.1797439008951187
1772650380226571300,2.2955712890625,1.89309279769361,-0.4899786889001726,0.4058358130317181,-0.0081354193389415,0.082115814089775,-0.3612812161445617
1772650380236544300,2.305544189453125,1.7201766096770763,-0.5241358100458979,0.3010552958693355,-0.0510701052844524,0.088788628578186,-0.5095788240432739
1772650380246516500,2.3155166015625,1.3715081334352492,-0.5456085139244794,0.3413420058112591,-0.0833060294389724,0.1064326837658882,-0.600801944732666
1772650380256489200,2.3254892578125,0.8864736229389906,-0.5075526317745447,0.3532984010647982,-0.1098399013280868,0.1589694023132324,-0.6371828317642212
1772650380266462200,2.335462158203125,0.3627835108339786,-0.4780436286956072,0.3717010498482734,-0.1271603405475616,0.1994807869195938,-0.6078148484230042
1772650380276434400,2.345434326171875,-0.1690858160734176,-0.4808490415051579,0.3980310575649142,-0.1323194056749344,0.2262649983167648,-0.5051835179328918
1772650380286407400,2.355407470703125,-0.7084516362160443,-0.447416727502644,0.4617767498318105,-0.1331301629543304,0.2729913592338562,-0.3447803258895874
1772650380296379400,2.36537939453125,-1.152709899687767,-0.4215972265914082,0.4977234578080475,-0.1299135982990265,0.3248817026615143,-0.1456206291913986
1772650380306352400,2.375352294921875,-1.3714035040169954,-0.378946710127592,0.5655464825164527,-0.1051875874400138,0.3300433754920959,0.0636327415704727
1772650380316324400,2.385324462890625,-1.361972827848792,-0.3033881957963109,0.6483462732128799,-0.0627945959568023,0.3277961909770965,0.2608470320701599
1772650380326297300,2.39529736328125,-1.1647031198203563,-0.252926421059668,0.7190741525173187,-0.0194235704839229,0.3126848936080932,0.4204753339290619
1772650380336269300,2.405269287109375,-0.7412824771940708,-0.2332552136451005,0.7468950563788413,0.01475490629673,0.2775556743144989,0.5129845142364502
1772650380346242300,2.4152421875,-0.2244055522352457,-0.2937941457599401,0.6676477705322206,0.0373979024589061,0.2367054522037506,0.5402701497077942
1772650380356215300,2.42521533203125,0.2787655034542083,-0.3976946652173996,0.5887607693653554,0.0511270314455032,0.1867930144071579,0.5180357098579407
1772650380366187300,2.435187255859375,0.66974225859344,-0.4658332586809992,0.5855237602055072,0.0604668110609054,0.1116603910923004,0.4687648415565491
1772650380376160300,2.44516015625,0.885508577299118,-0.568455721026659,0.6216608031220734,0.065965436398983,0.0405739657580852,0.407535046339035
1772650380386132200,2.45513232421875,0.8713450273901223,-0.6636001025766134,0.5985034340921789,0.0588028654456138,0.0325762294232845,0.3542582392692566
1772650380396105200,2.465105224609375,0.7037479885697364,-0.7573612130746245,0.5247519691828638,0.0467360839247703,0.0424568206071853,0.3176775872707367
1772650380406077400,2.475077392578125,0.5408943448841571,-0.7923749510496855,0.4843343994028866,0.0312905870378017,0.0460431799292564,0.293152779340744
1772650380416050400,2.485050537109375,0.3995277258634567,-0.7639394224211573,0.5168783131983131,0.0258577391505241,0.029677253216505,0.284716933965683
1772650380426022400,2.4950224609375,0.2632610603302717,-0.7766054272487759,0.636987113200128,0.0320339165627956,0.005297225434333,0.3124630749225616
1772650380435995400,2.504995361328125,0.0879611920475959,-0.7692223312601447,0.7469970554485916,0.0352954901754856,-0.0246865060180425,0.3709953725337982
1772650380445968400,2.514968505859375,-0.085027476683259,-0.7249994509130716,0.7713724219661205,0.029328828677535,-0.0565415397286415,0.4391310513019562
1772650380455940400,2.5249404296875,-0.1231049861431121,-0.6423895567655563,0.7460046103451401,0.0269282553344964,-0.1124314442276954,0.4974558651447296
1772650380465913300,2.534913330078125,-0.0378571447074413,-0.6390262178122997,0.7979506322901696,0.0234058052301406,-0.1733540743589401,0.5180708765983582
1772650380475885300,2.54488525390625,0.1441208861649036,-0.6235568460017442,0.838235880927369,0.0216997824609279,-0.223343476653099,0.5017640590667725
1772650380485858600,2.554858642578125,0.3166904527008533,-0.5952864448070526,0.850701029420644,0.0150502119213342,-0.2380562275648117,0.4366804361343384
1772650380495830300,2.564830322265625,0.4612076447069644,-0.5732774420946836,0.785697738308087,-0.0030030910857021,-0.2384469211101532,0.330013632774353
1772650380505803300,2.57480322265625,0.5732733504414558,-0.6026280397415161,0.6299082608550787,-0.0337907522916793,-0.2143178582191467,0.1941788345575332
1772650380515775500,2.584775390625,0.5992798983573914,-0.621869331306219,0.4762107141800225,-0.0723402723670005,-0.1618541181087494,0.0523399263620376
1772650380525748200,2.594748291015625,0.4161795854568481,-0.6430488974571228,0.4405700034130364,-0.0917301028966903,-0.1019661128520965,-0.0488610453903675
1772650380535721200,2.60472119140625,0.0513894109755754,-0.6478776327878236,0.5831393492870033,-0.0768073499202728,-0.0343263521790504,-0.0609435401856899
1772650380545693400,2.614693359375,-0.3741092069685459,-0.6205529880106448,0.9723187726806848,-0.0351180359721183,0.0056592538021504,0.0102734956890344
1772650380555666400,2.62466650390625,-0.6351666197746991,-0.652858343809843,1.3908634067684411,-0.0022410473320633,0.007763949688524,0.1125862821936607
1772650380565638400,2.634638427734375,-0.5660714562386274,-0.6838496944010257,1.6700193708449602,0.0267051961272954,-0.0939314290881156,0.1729185283184051
1772650380575611400,2.644611328125,-0.1797293751627206,-0.7248866381883621,1.7804041377551854,0.0527554377913475,-0.2318988889455795,0.1615604162216186
1772650380585583400,2.654583251953125,0.2427940263628959,-0.8247334983408451,1.8484642591550944,0.058539479970932,-0.3637785613536834,0.0765160918235778
1772650380595556400,2.664556396484375,0.6277320858597755,-0.8929273291230201,1.6762598726697264,0.0183257479220628,-0.4462108612060547,-0.0906169787049293
1772650380605528300,2.6745283203125,0.8593325180351734,-0.8382295242518186,1.18637689922899,-0.0574567429721355,-0.471659392118454,-0.3246169090270996
1772650380615501300,2.684501220703125,0.8198457262992859,-0.6383674616426229,0.5389718523889779,-0.1289442479610443,-0.4149721264839172,-0.5600794553756714
1772650380625474600,2.694474609375,0.4370972858011722,-0.3775298290669918,-0.029314065028727,-0.183901697397232,-0.2460633367300033,-0.7509596943855286
1772650380635446300,2.7044462890625,-0.1822644465982913,-0.0712485421776771,-0.4301337303988635,-0.2166516482830047,-0.0538970902562141,-0.8536913990974426
1772650380645419300,2.714419189453125,-0.6925339361160994,0.3251210119158029,-0.6155489691782743,-0.2239944785833358,0.1098653599619865,-0.8632691502571106
1772650380655391500,2.7243916015625,-1.0998398947656154,0.7487880305185913,-0.621924422494322,-0.1919481307268142,0.2184493541717529,-0.7969974875450134
1772650380665364200,2.7343642578125,-1.3854022187530994,1.0949091603651642,-0.4754471093963831,-0.127397134900093,0.2613781690597534,-0.6612213850021362
1772650380675336200,2.744336181640625,-1.5867653335750105,1.2972808677077292,-0.1826069033604115,-0.0393157489597797,0.2565314769744873,-0.4632012248039245
1772650380685309000,2.754308837890625,-1.7234674679160118,1.4824235000908377,0.0656282180778682,0.0465137846767902,0.2780697643756866,-0.2376189082860946
1772650380695281200,2.76428125,-1.8057307405829428,1.6032140718117356,0.1406930306080728,0.1316648870706558,0.2905456125736236,-0.0268589928746223
1772650380705254100,2.774254150390625,-1.645384695804119,1.711773522990942,0.1704177953295409,0.2101567834615707,0.2547131180763244,0.1567161232233047
1772650380715225900,2.784225830078125,-1.3209306233644484,1.7479241560414434,0.1603355233848095,0.2709144055843353,0.1913117617368698,0.3043985366821289
1772650380725199000,2.79419921875,-1.049108655437827,1.6094941749945282,0.1596112276982516,0.3026734590530395,0.1253040134906768,0.4382026493549347
1772650380735172000,2.804172119140625,-0.8747568816602229,1.465309283682704,0.1566757587682455,0.3122691214084625,0.0823858380317688,0.560165524482727
1772650380745144000,2.81414404296875,-0.787586547729373,1.3582561454132198,0.1957060389082878,0.3158990740776062,0.0764046609401702,0.6774846911430359
1772650380755117000,2.824116943359375,-0.7354331666439772,1.2462801637887957,0.2242443703241646,0.3258982002735138,0.0683331564068794,0.7616272568702698
1772650380765089000,2.834089111328125,-0.4754126956701278,1.2214385679990052,0.2220527054987847,0.3434344828128814,0.0215703547000885,0.7884767651557922
1772650380775062000,2.84406201171875,-0.0710024584621191,1.214572189360857,0.1835251141838729,0.3572610914707184,-0.0625336021184921,0.7499387264251709
1772650380785034000,2.854033935546875,0.3937117330610752,1.1390770956546068,0.0772017514936626,0.3595792055130005,-0.1400759816169738,0.6475228667259216
1772650380795007000,2.864007080078125,0.7734241668641567,1.0246931761056184,-0.1760183918155729,0.3297486305236816,-0.1719191223382949,0.4882272183895111
1772650380804979200,2.873979248046875,0.9719313077330588,0.9112105893105268,-0.67692734779194,0.2581433057785034,-0.1593925058841705,0.2719857394695282
1772650380814952200,2.8839521484375,1.1081336758583784,0.7651543511688709,-1.305652244081348,0.1516799628734588,-0.0870663821697235,0.0218485929071903
1772650380824925000,2.893925048828125,1.1536486418426035,0.5854810901075601,-1.855502779489756,0.0376493781805038,0.0232417788356542,-0.2134834676980972
1772650380834897200,2.903897216796875,1.1488748515695333,0.4942255326896905,-2.083863499091565,-0.0758375078439712,0.1441261321306228,-0.4204001724720001
1772650380844870100,2.9138701171875,1.0590016884207725,0.4919517425388097,-2.091450885480642,-0.1649211943149566,0.2256040275096893,-0.5643643140792847
1772650380854841900,2.923841796875,0.8700017960876226,0.507279660052061,-1.7835931430548428,-0.210302248597145,0.2811727523803711,-0.6345186233520508
1772650380864815000,2.933815185546875,0.6845213100522756,0.5217489149093628,-1.2707488346129656,-0.2228139042854309,0.2846099138259887,-0.6542384624481201
1772650380874787000,2.943787109375,0.652897506776452,0.5992571020036935,-0.7141421760078519,-0.2113891988992691,0.2203531712293625,-0.6486570239067078
1772650380884759800,2.953759765625,0.6041396133482456,0.6861123786360025,-0.1950852035962045,-0.1620370298624038,0.1356609463691711,-0.615768313407898
1772650380894732000,2.96373193359375,0.4214928894340992,0.7359121823325753,0.2846330072481185,-0.0838716477155685,0.0702174976468086,-0.5565332174301147
1772650380904705000,2.973705078125,0.1163999355465173,0.8003162654429674,0.5896065725397318,0.0118066351860761,0.0432947948575019,-0.4638193547725677
1772650380914678000,2.983677978515625,-0.1417097333699464,0.8765127854168414,0.6954243237953632,0.1108242943882942,0.0535303875803947,-0.3602314293384552
1772650380924650000,2.99364990234375,-0.3283908273667097,0.9556769230246543,0.6522721414197236,0.211799070239067,0.0703239366412162,-0.2633903920650482
1772650380934623000,3.003623046875,-0.3643020987033843,0.9581529577493668,0.5342184473168105,0.3009750247001648,0.0796322226524353,-0.1886913776397705
1772650380944595200,3.01359521484375,-0.3355272551178932,0.8764902813240886,0.4252574295993894,0.3709078431129455,0.093939796090126,-0.1296905279159546
1772650380954568000,3.02356787109375,-0.3083031481057405,0.6864566620290279,0.2810405357141047,0.4127644896507263,0.1241184771060943,-0.0810545459389686
1772650380964540000,3.033539794921875,-0.262225287541747,0.5082213248163462,0.1081849187783896,0.4294210076332092,0.1514608263969421,-0.0351704694330692
1772650380974513200,3.04351318359375,-0.1689671581298112,0.3380357308074831,-0.0395657021909952,0.4321193099021911,0.1631190776824951,0.0046331374906003
1772650380984484900,3.05348486328125,-0.0113426472693681,0.1638262881100177,-0.1597617420848459,0.4164357483386993,0.1583762168884277,0.0205769557505846
1772650380994457900,3.063457763671875,0.1663607750236988,0.0384369904220104,-0.2939545970186591,0.3783001005649566,0.1587040424346923,0.0116766709834337
1772650381004431000,3.07343115234375,0.3132768448650836,-0.1199988368213176,-0.4424811707966029,0.3347325026988983,0.1871394515037536,-0.012311553582549
1772650381014403000,3.083403076171875,0.49678164691329,-0.2486094346433877,-0.5514951608102768,0.2876701951026916,0.2197735607624054,-0.0615334287285804
1772650381024375800,3.093375732421875,0.6967565222471952,-0.3253080589205026,-0.541508750455454,0.2366475462913513,0.2323000878095626,-0.1332459300756454
1772650381034348000,3.10334814453125,0.859683815690875,-0.3709489893719553,-0.4806153788797557,0.1854474693536758,0.2514282464981079,-0.2244666516780853
1772650381044321000,3.113321044921875,0.9394050026595592,-0.4446376181781292,-0.3906089447401464,0.1432224363088607,0.2769163846969604,-0.3013263344764709
1772650381054293000,3.12329296875,0.8888461972892284,-0.4924927175477147,-0.2570246501587331,0.1168062910437583,0.3010022938251495,-0.3548380136489868
1772650381064266000,3.133265869140625,0.7573363708943128,-0.4016805199831724,-0.117134898757562,0.1088145971298217,0.3205317556858063,-0.3783079087734222
1772650381074238000,3.143238037109375,0.6462666904598474,-0.2542418875724077,0.0446687244184315,0.1139968410134315,0.3162933588027954,-0.3874619901180267
1772650381084211200,3.153211181640625,0.5746937386333942,-0.1448328338265418,0.2251194726582616,0.1283183693885803,0.3044832646846771,-0.3924162089824676
1772650381094184000,3.163183837890625,0.4972434192061424,-0.108707335217297,0.3403182157214731,0.1559185683727264,0.3060763478279114,-0.3949757814407348
1772650381104156000,3.173156005859375,0.366971610173583,-0.0834136117458343,0.3846671336010098,0.1915920376777649,0.3148370683193207,-0.3833814561367035
1772650381114129200,3.183129150390625,0.2245019983470439,-0.0496583493992686,0.3604868512641638,0.227057084441185,0.3116631209850311,-0.3699737787246704
1772650381124100900,3.193100830078125,0.1553074660897254,-0.000626607465744,0.3300567878175526,0.2657589018344879,0.3128571510314941,-0.3537188768386841
1772650381134073900,3.203073974609375,0.0969289268791675,-0.0043944355666637,0.2420622780222445,0.3030226528644562,0.3221475780010223,-0.324620634317398
1772650381144046000,3.213046142578125,0.0354781406164169,-0.0388826883628964,0.1690620698716491,0.3367289900779724,0.3376320600509643,-0.2886229455471039
1772650381154019000,3.22301904296875,0.0119733463883399,-0.0774050189808011,0.0152200001593679,0.3634484708309173,0.3418973684310913,-0.2561587393283844
1772650381163991000,3.232990966796875,0.0905582228034734,-0.0886687557950615,-0.1739096560332924,0.3682064712047577,0.3290673494338989,-0.2506300210952759
1772650381173964000,3.242964111328125,0.2156155120581388,-0.1669163630798459,-0.325066286053881,0.3616348505020141,0.3205633461475372,-0.2533791959285736
1772650381183936000,3.25293603515625,0.1863666212201118,-0.3276660202234983,-0.465970767455548,0.3507899940013885,0.3410363495349884,-0.2412072867155075
1772650381193909000,3.262908935546875,0.0503080454796552,-0.4372106830477714,-0.6802317961648107,0.3365465998649597,0.3937373757362366,-0.2098368555307388
1772650381203882000,3.272882080078125,-0.0842225900411605,-0.4010261477276682,-0.881203135190159,0.3207032084465027,0.4418119490146637,-0.1627689450979232
1772650381213854000,3.28285400390625,-0.110853991857171,-0.3956353946000337,-0.9963165380574762,0.2971414029598236,0.4674235582351684,-0.1201069578528404
1772650381223827200,3.2928271484375,-0.0400169530898332,-0.4560623907729983,-1.0481681597173214,0.2773961722850799,0.4707221388816833,-0.0845024213194847
1772650381233799000,3.302798828125,0.0972708721846342,-0.5555901019737124,-1.024843836622685,0.2620009779930115,0.4594471156597137,-0.0522845685482025
1772650381243772000,3.31277197265625,0.2497562665909528,-0.6663312811061739,-0.9624098845414816,0.2421639114618301,0.4280288219451904,-0.0370174385607242
1772650381253744000,3.322744140625,0.3979226287543773,-0.7221461073085665,-0.9455984504722058,0.2194119840860366,0.3801276087760925,-0.0251698344945907
1772650381263716900,3.332716796875,0.4562444693416356,-0.7178671148151159,-0.953218570087105,0.2112704813480377,0.3278382420539856,0.0029085071291774
1772650381273689000,3.342689208984375,0.314322554525733,-0.7454927883654833,-0.9072928313449024,0.2083772271871566,0.303492933511734,0.0581161044538021
1772650381283662000,3.352662109375,0.1110597435623407,-0.725049135273695,-0.910106135199964,0.1997407674789428,0.2863880395889282,0.1136264950037002
1772650381293635000,3.362635009765625,0.0358113180935382,-0.6667988986179232,-1.0096405684024097,0.1838760673999786,0.2549877762794494,0.1503299176692962
1772650381303607000,3.37260693359375,0.0860784470409154,-0.6544950051009655,-1.0778978198096156,0.1614350080490112,0.2443000674247741,0.1557027697563171
1772650381313580000,3.382580078125,0.1990291189163923,-0.7301648708522319,-1.098561253131926,0.1390388906002044,0.2333358377218246,0.11741903424263
1772650381323552300,3.39255224609375,0.330855756175518,-0.7739622192636132,-1.0433386937342584,0.124012567102909,0.2217346578836441,0.0599837228655815
1772650381333525000,3.40252490234375,0.3584089490115642,-0.7594003176867962,-1.0009345532469451,0.1186151430010795,0.2306993901729583,0.0086022913455963
1772650381343497000,3.4124970703125,0.1935626702040433,-0.6915028395026922,-0.939836379814148,0.122738279402256,0.2682939171791076,-0.0169986151158809
1772650381353470200,3.42247021484375,-0.0480927075177431,-0.6037462301164865,-0.8908559296764433,0.1263809651136398,0.3029594719409942,-0.0208617970347404
1772650381363442000,3.43244189453125,-0.1985258455693721,-0.4854664721727371,-0.7922745594151318,0.1451605856418609,0.3067067563533783,-0.000495534739457
1772650381373415000,3.442414794921875,-0.371609791368246,-0.4399143890485167,-0.4945056648053229,0.1922039985656738,0.2851476669311523,0.0664741769433021
1772650381383388200,3.45238818359375,-0.592894581234455,-0.4454103561162948,0.0282348914898931,0.2589733004570007,0.2616050243377685,0.1918967813253402
1772650381393360100,3.462360107421875,-0.7953571817308663,-0.4788347790732979,0.5148721610076725,0.3118141591548919,0.2221420407295227,0.3522662222385406
1772650381403332900,3.472332763671875,-0.8135352279782295,-0.5133344300463796,0.8787329456843436,0.3433000743389129,0.144095093011856,0.5074752569198608
1772650381413305000,3.48230517578125,-0.5892091707199811,-0.5820639751404524,1.1360073328204452,0.3454905152320862,0.0339805670082569,0.6061621904373169
1772650381423278000,3.492278076171875,-0.1703051287353038,-0.6637529550507665,1.341384213328361,0.3198839426040649,-0.1281793117523193,0.5977542996406555
1772650381433250000,3.50225,0.4249667030245065,-0.7130205515667796,1.3458821092694997,0.25356325507164,-0.2908254861831665,0.4647871851921081
1772650381443223000,3.51222314453125,1.0267477705478667,-0.6788797970339655,1.135765340758115,0.168693408370018,-0.3599072098731994,0.1962198913097381
1772650381453195000,3.522195068359375,1.3339637079387905,-0.5446367462828755,0.8283288924843072,0.0783936083316803,-0.3260301947593689,-0.1609765887260437
1772650381463168000,3.53216796875,1.2526005989819764,-0.3823357680439949,0.4946875972434878,-0.0066092400811612,-0.1957382559776306,-0.5361355543136597
1772650381473141000,3.54214111328125,0.8764525796622037,-0.1609472255423664,0.3301838482633233,-0.0332813300192356,-0.0367933474481105,-0.8346079587936401
1772650381483113000,3.552113037109375,0.1728051288574933,0.2565910810470581,0.3654560910440981,-0.0050021349452435,0.1268337070941925,-1.0090610980987549
1772650381493086200,3.562086181640625,-0.6411901178479195,0.7602648255616427,0.3991749669030308,0.0573137030005455,0.262410968542099,-1.086520433425903
1772650381503058000,3.572057861328125,-1.2940712580114602,1.3538462200164794,0.3100425391189754,0.1532022505998611,0.358247846364975,-1.0681260824203491
1772650381513031000,3.582031005859375,-1.869739394634962,1.8498419772490855,0.3087622900500893,0.2978300154209137,0.4695813059806824,-0.9250329732894896
1772650381523003100,3.592003173828125,-2.514689741799235,2.0027605023756623,0.4859941493086516,0.4714820981025696,0.5689866542816162,-0.6509859561920166
1772650381532975900,3.601975830078125,-3.005496990478038,1.9783184272974728,0.7124990119107067,0.6319127678871155,0.6210554838180542,-0.2701840102672577
1772650381542948000,3.611947998046875,-3.216795223858952,1.9143401683837171,0.9448018932670356,0.7450448870658875,0.5668988227844238,0.169356033205986
1772650381552921000,3.621921142578125,-2.9651462753891944,1.7615832635596391,1.1356724017776547,0.794240415096283,0.441131591796875,0.5809723138809204
1772650381562892800,3.631892822265625,-2.3095278192162514,1.54307787527889,1.2422772117577492,0.8041634559631348,0.2894539535045624,0.8913022875785828
1772650381572866000,3.641865966796875,-1.50295249337852,1.2610396337643266,1.2626245648682115,0.7698078751564026,0.1294094324111938,1.0586422681808472
1772650381582839000,3.651839111328125,-0.6591624123901129,1.0248831457197665,1.2532314442314207,0.708795964717865,-0.0050592496991157,1.0539544820785522
1772650381592811000,3.66181103515625,0.2001595842510461,0.7889633890405297,1.2129891579531134,0.6318535208702087,-0.096344955265522,0.8971614837646484
1772650381602784000,3.671783935546875,0.9240963743686677,0.5529980396538973,1.1585787917211652,0.5543431043624878,-0.1397643089294433,0.6138104200363159
1772650381612756000,3.681755859375,1.4340502220660447,0.4083852783188224,1.0575003439471125,0.4824322164058685,-0.1435760855674743,0.2471903860569
1772650381622729000,3.69172900390625,1.7460656686931848,0.4023398606747388,0.8000137753650546,0.4090408980846405,-0.1161165535449981,-0.1545107215642929
1772650381632701000,3.701700927734375,1.668160006713867,0.5043149650275707,0.4549404010057449,0.3440629541873932,-0.0489055551588535,-0.5290536880493164
1772650381642674000,3.711673828125,1.159034426534176,0.6153802615478634,0.0836795692056417,0.2791057229042053,0.0564112588763237,-0.8097883462905884
1772650381652646100,3.721646240234375,0.3723515496462583,0.7572823026195168,-0.2811003761425614,0.218892440199852,0.1835830509662628,-0.976940095424652
1772650381662619100,3.731619140625,-0.3672486735492944,0.9260159442543984,-0.511672780444473,0.1653654873371124,0.2981575429439544,-1.014909267425537
1772650381672592400,3.74159228515625,-1.022903370079398,1.0473656111627816,-0.6645736237838864,0.1305925995111465,0.3767721951007843,-0.9287728071212769
1772650381682564600,3.751564697265625,-1.5366192006587982,1.1827747830837965,-0.7616833140574395,0.1176006346940994,0.4379568696022033,-0.7492268085479736
1772650381692537600,3.76153759765625,-1.7691379167228936,1.286596684347093,-0.6952594155572355,0.1223647594451904,0.4415305852890014,-0.5092102289199829
1772650381702509300,3.77150927734375,-1.6394535521894693,1.3251383041873577,-0.6004147476062178,0.132376953959465,0.3888245522975921,-0.266715258359909
1772650381712482600,3.781482666015625,-1.2081681675374507,1.2929764485120772,-0.4523005540214478,0.1238694787025451,0.2995692491531372,-0.0662032067775726
1772650381722454500,3.79145458984375,-0.5724205330044031,1.1818442242354157,-0.3496063416138291,0.0988714545965194,0.2158746123313903,0.0577704012393951
1772650381732427500,3.801427490234375,0.0688794749587774,1.0373150495305656,-0.2192899627871811,0.0902047306299209,0.171632319688797,0.1122552156448364
1772650381742399500,3.8113994140625,0.6266857916772365,0.9195923409476876,-0.0697816844955086,0.1024612039327621,0.1651941537857055,0.1132304370403289
1772650381752372500,3.82137255859375,1.0520657516777514,0.8072484027937055,0.063232993504405,0.1261835843324661,0.1743847131729126,0.0678957104682922
1772650381762344700,3.8313447265625,1.4009429022341966,0.7418889186546206,0.18914412310943,0.1596783846616745,0.1880339235067367,0.0020749745890498
1772650381772317400,3.8413173828125,1.7034446705847976,0.6379200101360678,0.2533576520837843,0.1825767755508422,0.1875143498182296,-0.0852282345294952
1772650381782290400,3.85129052734375,1.935590461683273,0.4219187136307358,0.2962970684915781,0.2003977298736572,0.1638600081205368,-0.1828278750181198
1772650381792262700,3.8612626953125,2.018145995295048,0.0996744261950254,0.3550000173509121,0.2147058248519897,0.1279448866844177,-0.2631522417068481
1772650381802235600,3.871235595703125,1.9417711961448192,-0.2655912568435072,0.4106180058069527,0.2059272527694702,0.0717438459396362,-0.3184884488582611
1772650381812207400,3.881207275390625,1.822255758926272,-0.537017211189866,0.3314560601562261,0.1656208485364914,0.003915000706911,-0.3655643463134765
1772650381822180600,3.8911806640625,1.664799590370059,-0.7562970909744501,0.1863157678157091,0.107144184410572,-0.0744955986738205,-0.4004690051078796
1772650381832152600,3.901152587890625,1.393049518635869,-0.9797004804298282,0.0467839630067348,0.047345831990242,-0.128364160656929,-0.4133102297782898
1772650381842125300,3.911125244140625,1.0479834508001804,-1.1480004068225622,-0.0379008377186954,-0.010307571850717,-0.163687378168106,-0.4048520624637604
1772650381852097500,3.92109765625,0.7483265504866838,-1.2043664371669291,-0.1273356094501912,-0.0668352916836738,-0.1927147656679153,-0.3876461982727051
1772650381862070500,3.931070556640625,0.5331991142064333,-1.1952511105582118,-0.209383193539828,-0.1171443834900856,-0.2107390016317367,-0.3726830184459686
1772650381872043500,3.94104345703125,0.2914794390767812,-1.2346496394887565,-0.18348390539065,-0.1640280038118362,-0.2191758900880813,-0.3337763547897339
1772650381882015500,3.951015380859375,-0.0173322430729866,-1.3164412029907109,-0.1694214777685701,-0.2029826790094375,-0.1630593836307525,-0.2822878360748291
1772650381891988500,3.960988525390625,-0.2444400400042533,-1.261221420072019,-0.1430776607222855,-0.227045401930809,-0.1093503460288047,-0.2232546061277389
1772650381901960700,3.970960693359375,-0.2490390582323074,-1.151497601288557,-0.0517347172819077,-0.2270692884922027,-0.1132592633366584,-0.1680285632610321
1772650381911933400,3.980933349609375,-0.0794949769973754,-1.023793304656446,0.1256152153983712,-0.2126240283250808,-0.1503230035305023,-0.1197411864995956
1772650381921905400,3.990905517578125,0.1099883149385452,-1.003466555942595,0.3364185048691928,-0.1978773921728134,-0.1720079481601715,-0.0980167612433433
1772650381931878700,4.000878662109375,0.26309622515738,-0.991245372273028,0.4488790551401674,-0.1806206405162811,-0.2005636990070343,-0.0865411981940269
1772650381941850400,4.010850341796875,0.4060726174622774,-0.9599266894236208,0.5137101314909756,-0.15861776471138,-0.2646081447601318,-0.0797847285866737
1772650381951823400,4.0208232421875,0.4669803828895091,-0.8676219152137636,0.5137852425538003,-0.1418494284152984,-0.3081673383712768,-0.0741340368986129
1772650381961795600,4.030795654296875,0.3783265324026346,-0.8800432976305484,0.4616111109413206,-0.1338912546634674,-0.3232853412628174,-0.0475115664303302
1772650381971768600,4.0407685546875,0.1219178221851587,-0.8735887146636843,0.4557930723123252,-0.1273297667503357,-0.3050679862499237,0.001395787927322
1772650381981741300,4.0507412109375,-0.1738151826828718,-0.8419275019869208,0.456375256114453,-0.1102236285805702,-0.2722064256668091,0.0735440477728843
1772650381991713500,4.060713623046875,-0.3151537446528673,-0.7548781640872358,0.5100165376700461,-0.091444082558155,-0.2475008219480514,0.1490720808506012
1772650382001686500,4.0706865234375,-0.3186602914690971,-0.7011442358121276,0.5742633843921124,-0.0683746039867401,-0.2427352666854858,0.2201460003852844
1772650382011658500,4.080658447265625,-0.2805477106958627,-0.7363382987901568,0.65966188634485,-0.0523365139961242,-0.2410470843315124,0.2867215573787689
1772650382021631500,4.090631591796875,-0.2877507739424705,-0.7944301300138235,0.6771611565478146,-0.0640818923711776,-0.2222467064857483,0.3563813865184784
1772650382031603500,4.100603515625,-0.3446142324149608,-0.8542474698558449,0.6190213945291936,-0.0884170606732368,-0.2101873755455017,0.4149546921253204
1772650382041576700,4.11057666015625,-0.347180283510685,-0.8258312304496764,0.5499290074720978,-0.102090336382389,-0.2203644663095474,0.4643373191356659
1772650382051548400,4.12054833984375,-0.2860164974957704,-0.7223387072712183,0.704132165581733,-0.1047540307044982,-0.2288184016942978,0.4980529546737671
1772650382061521400,4.130521484375,-0.1826449703484773,-0.6120777128711342,0.8522085113741457,-0.1035818606615066,-0.2329386919736862,0.5016182661056519
1772650382071494700,4.14049462890625,-0.0561117633223533,-0.5194403457060456,0.9405604563049972,-0.1061083972454071,-0.2192814797163009,0.4715599119663238
1772650382081466400,4.15046630859375,-0.0073012629240751,-0.4813520225912332,0.998831151226908,-0.0933690965175628,-0.1896297484636306,0.441829651594162
1772650382091439400,4.160439453125,-0.070551207563281,-0.4663698497757315,1.0975658123537897,-0.0816197618842125,-0.1505723595619201,0.4344023764133453
1772650382101411600,4.17041162109375,-0.2035094792008399,-0.4255912646636366,1.1770043829888104,-0.0706855803728103,-0.1106030270457267,0.4581375420093536
1772650382111384600,4.180384521484375,-0.325620778131485,-0.342252763980627,1.2126099493771791,-0.0516178794205188,-0.0875496417284011,0.4931085705757141
1772650382121356500,4.1903564453125,-0.2928127335071563,-0.2651420517712831,1.3252484865635632,-0.0213398281484842,-0.0788890197873115,0.5344556570053101
1772650382131329500,4.20032958984375,-0.1767676027476787,-0.2821186132743954,1.5079956021122634,0.028372598811984,-0.0758029520511627,0.5786217451095581
1772650382141301500,4.210301513671875,-0.0543225418180227,-0.3738970255225897,1.7387591450721025,0.0733383670449256,-0.0902734100818634,0.6045953631401062
1772650382151274500,4.2202744140625,0.1449684429049491,-0.4568739994168281,1.9558819929532705,0.109270267188549,-0.1045665964484214,0.6129643321037292
1772650382161246500,4.23024658203125,0.3310375424832105,-0.5309238627508283,2.045844149559736,0.1337018013000488,-0.0703976526856422,0.5580998063087463
1772650382171219700,4.2402197265625,0.6245213071197271,-0.5964113571837544,2.020480283461511,0.1359665542840957,-0.0416773185133934,0.3999775648117065
1772650382181192700,4.250192626953125,1.0502046339809894,-0.5966235386297106,1.8031424776554104,0.1162303984165191,-0.0163302794098854,0.1549025028944015
1772650382191164400,4.260164306640625,1.2680875064492223,-0.6597451807141304,1.386593328233808,0.0734637603163719,0.0357803255319595,-0.112999252974987
1772650382201137700,4.2701376953125,1.2148533443897962,-0.7811722967728972,0.8942810087542981,-0.0041134776547551,0.115652747452259,-0.3556477725505829
1772650382211109600,4.280109619140625,0.9505962587594984,-0.7881655166611075,0.310830839952454,-0.0945325940847396,0.209476962685585,-0.5298672318458557
1772650382221082400,4.290082275390625,0.6407412050366401,-0.5995636837348342,-0.2397598462987691,-0.1869704127311706,0.2689007222652435,-0.6331707239151001
1772650382231054600,4.3000546875,0.2960533228635787,-0.2787427071005106,-0.64608461189121,-0.2670274376869201,0.2613163292407989,-0.6890140175819397
1772650382241027600,4.310027587890625,0.055936991277337,0.0892488937705755,-0.8271214163906871,-0.3166224658489227,0.1933044493198394,-0.7170968055725098
1772650382250999600,4.31999951171875,-0.1041284829944372,0.3205164407297968,-0.8287859886020421,-0.3469153940677643,0.0768252313137054,-0.7397080659866333
1772650382260972500,4.32997265625,-0.3043938657075166,0.523044507677853,-0.7330624919898807,-0.3395107686519623,-0.0551874004304409,-0.715641438961029
1772650382270945500,4.339945556640625,-0.6989946565628051,0.6739364954128861,-0.4732774372071027,-0.3037514388561249,-0.1553800404071808,-0.626593291759491
1772650382280917500,4.34991748046875,-1.2516869912683963,0.832559077399969,-0.220337279883027,-0.2752310037612915,-0.1841161400079727,-0.4782370626926422
1772650382290890500,4.359890380859375,-1.890139208585024,0.9844660873964428,-0.0097160689808428,-0.2214034497737884,-0.1304302662611007,-0.2560181319713592
1772650382300862500,4.369862548828125,-2.501373748630285,1.1963605331048368,0.1206174071110784,-0.1503946483135223,-0.0382022894918918,0.0237436816096305
1772650382310835700,4.379835693359375,-2.7936902230530976,1.4694284094393253,0.1506518953688442,-0.0576332733035087,0.0762686282396316,0.3274926543235779
1772650382320807400,4.389807373046875,-2.81399592897892,1.7094173152536152,0.1692791466884315,0.0317265428602695,0.1985688656568527,0.6084844470024109
1772650382330780400,4.399780517578125,-2.522409522396326,1.8204910873413085,0.146503689648211,0.1021935194730758,0.2604841589927673,0.8365336060523987
1772650382340752600,4.409752685546875,-1.8954606958687303,1.7889581772193313,0.1735482023097574,0.1475466191768646,0.2321531325578689,1.0025184154510498
1772650382350725400,4.419725341796875,-1.159912378412485,1.684495639964938,0.2158494669444859,0.1586408168077469,0.1738748997449875,1.0961359739303589
1772650382360697600,4.429697509765625,-0.4710112458407878,1.5308327262118455,0.1429090261571109,0.1494926363229751,0.1023276895284652,1.1041618585586548
1772650382370670600,4.439670654296875,0.0420709630101919,1.3692784746870397,0.0341571211457252,0.1155842021107673,0.0303610898554325,1.0385754108428955
1772650382380643600,4.4496435546875,0.4631657930374145,1.1859130811095238,-0.1066461649037897,0.0588239841163158,-0.0355395600199699,0.9002571702003479
1772650382390615600,4.459615478515625,0.7524322322398423,1.0364458654806017,-0.3204144416600465,-0.0344401858747005,-0.0715715959668159,0.7026039958000183
1772650382400588500,4.469588623046875,0.939690833863616,0.8594371474534273,-0.6062094053596258,-0.1508970707654953,-0.067636989057064,0.4532096683979034
1772650382410560500,4.479560546875,1.0095265866339207,0.7281944475620985,-0.9998721847124398,-0.2887656986713409,-0.0125263333320617,0.1679864525794983
1772650382420533500,4.489533447265625,0.9772223998785018,0.6648202920213341,-1.399026839479804,-0.4267270565032959,0.0748204290866851,-0.1465843468904495
1772650382430505500,4.49950537109375,0.9289970058918,0.6925052945435046,-1.67419694879055,-0.5481922626495361,0.1445997804403305,-0.4691794514656067
1772650382440478500,4.509478515625,0.7815560353934764,0.8305120817422866,-1.7828635136060416,-0.62122642993927,0.1987978368997573,-0.7548036575317383
1772650382450450400,4.519450439453125,0.5210761302143335,1.0305988930180667,-1.665393318479508,-0.6455613374710083,0.2511254847049713,-0.970005452632904
1772650382460423400,4.52942333984375,0.1549170054674148,1.180736847515404,-1.305814741166681,-0.6183580160140991,0.2886601984500885,-1.0693751573562622
1772650382470395600,4.539395751953125,-0.3120312287181616,1.2870160788029432,-0.8883272879816592,-0.5645405650138855,0.3331011831760406,-1.0662012100219729
1772650382480368600,4.54936865234375,-0.7502168942779303,1.3635089513748884,-0.5625431359820068,-0.4734241962432861,0.4089118838310241,-0.9698472619056702
1772650382490341400,4.55934130859375,-1.1241840624272823,1.4148425405099987,-0.2869945487476885,-0.346449464559555,0.4959330558776855,-0.788137674331665
1772650382500313600,4.569313720703125,-1.3577631011992692,1.399291627895832,-0.017413491615653,-0.1914566308259964,0.5417430996894836,-0.5525808334350586
1772650382510286600,4.57928662109375,-1.3325398126155137,1.39240391420871,0.2436106034427881,-0.0279116388410329,0.5402793884277344,-0.2907217442989349
1772650382520258300,4.58925830078125,-1.020633671581745,1.3589987804740666,0.3974553035035729,0.1212345510721206,0.4871050417423248,-0.0560632236301898
1772650382530231600,4.5992314453125,-0.4233072453796863,1.1875564644023775,0.463502477645874,0.2385798245668411,0.3749494850635528,0.1097478494048118
1772650382540203500,4.60920361328125,0.2709562910079955,0.9213014829531312,0.4571434640079736,0.3372323513031006,0.2340529412031173,0.2109483182430267
1772650382550176500,4.619176513671875,0.8638245687574148,0.6671496117517351,0.3874303147040307,0.4110980629920959,0.1183449849486351,0.2458130866289138
1772650382560148500,4.6291484375,1.295647713547945,0.4298685035914182,0.2724211028635501,0.4590682089328766,0.0270597375929355,0.2340112775564193
1772650382570121500,4.63912158203125,1.5289251390248535,0.2713523045882582,0.1428195943079888,0.4844486713409424,-0.0236609634011983,0.1856927424669265
1772650382580094500,4.649094482421875,1.6279828946262598,0.1247466158702969,0.0541787494331598,0.4982011020183563,-0.0444105416536331,0.1156966164708137
1772650382590066400,4.65906640625,1.6612369294524192,-0.0628834494143724,-0.0239678816951811,0.5196632742881775,-0.0742454081773758,0.0366393476724624
1772650382600039400,4.669039306640625,1.643532930457592,-0.1985039259985089,-0.0645779783725738,0.5281033515930176,-0.0894557163119316,-0.0281197093427181
1772650382610011600,4.67901171875,1.493117912584543,-0.3521630403593182,-0.0596951747670769,0.5186014771461487,-0.0741260275244712,-0.0831912159919738
1772650382619984600,4.688984619140625,1.2449217349171635,-0.5265136450931429,-0.1254971419766545,0.4848316311836242,-0.0355686843395233,-0.1308415681123733
1772650382629956600,4.69895654296875,1.068547515401244,-0.6556941517576574,-0.2391369651600718,0.4374009966850281,0.0077505595982074,-0.1831977218389511
1772650382639929600,4.7089296875,0.9970441216796636,-0.7527467050164938,-0.3301876476556062,0.3912473917007446,0.0074435020796954,-0.2504478096961975
1772650382649901600,4.718901611328125,1.009592637607455,-0.7885548082396387,-0.312322174488753,0.3514775931835174,-0.0467195995151996,-0.328855812549591
1772650382659874600,4.72887451171875,0.9964490783959626,-0.8337526710987091,-0.2098871975392103,0.3181353509426117,-0.124765932559967,-0.4068145155906677
1772650382669846500,4.738846435546875,0.8340186285585165,-0.7935007402092218,-0.1243836277768015,0.3002397119998932,-0.1784515380859375,-0.4540646076202392
1772650382679819300,4.7488193359375,0.4766916295647621,-0.6472013409614562,-0.0706605131566524,0.2940272986888885,-0.1779703795909881,-0.4857235252857208
1772650382689792300,4.758792236328125,0.088414196512103,-0.4852347092434763,-0.1062761625476181,0.2986066043376922,-0.134625568985939,-0.4963718950748443
1772650382699764200,4.76876416015625,-0.2632774269431829,-0.3491118360951543,-0.1309030926734209,0.3171732425689697,-0.0837289988994598,-0.4936485290527344
1772650382709737200,4.7787373046875,-0.4777507832288741,-0.2902119033589959,-0.1569298065945506,0.3282850086688995,-0.0310711115598678,-0.4850209355354309
1772650382719709200,4.788709228515625,-0.6498620846033096,-0.2813075891524553,-0.1830800007648766,0.3392106592655182,0.0221592299640178,-0.4486916959285736
1772650382729682200,4.79868212890625,-0.938161724600196,-0.3422077557951212,-0.2738990664616227,0.347886711359024,0.0875661969184875,-0.3710001111030578
1772650382739654400,4.808654296875,-1.108046582096815,-0.3768643508955836,-0.3212313110008835,0.3539599180221557,0.1302941143512725,-0.2686753273010254
1772650382749627100,4.818627197265625,-1.0915817695081234,-0.3496352754473686,-0.3772939744845032,0.3386483490467071,0.1469388753175735,-0.1674863696098327
1772650382759599000,4.82859912109375,-1.010924762994051,-0.3890031169787049,-0.4107479157969355,0.3244653642177582,0.1367529332637787,-0.0689545273780822
1772650382769572400,4.838572265625,-0.9732166713684796,-0.4884773444265127,-0.4003780590824782,0.3143043220043182,0.1504676938056945,0.036569770425558
1772650382779544000,4.8485439453125,-0.9242325679689644,-0.4472445858061313,-0.4657829897984862,0.308688223361969,0.1781273335218429,0.1225595623254776
1772650382789517000,4.85851708984375,-0.647065731883049,-0.3337155295208096,-0.554431725718826,0.2984462380409241,0.1852281242609024,0.1707779616117477
1772650382799490300,4.868490234375,-0.3182043643951416,-0.32530367500633,-0.6172700208172202,0.2887680828571319,0.1911689788103103,0.1789993941783905
1772650382809462300,4.878462158203125,-0.0162415252268314,-0.4013184086725115,-0.6261230432279408,0.2796835005283355,0.2122750580310821,0.1646281778812408
1772650382819435000,4.88843505859375,0.1972761377692222,-0.4502005130022763,-0.6660200231999158,0.2696918249130249,0.2018654197454452,0.174021691083908
1772650382829407200,4.8984072265625,0.3541992223620414,-0.4370198366507887,-0.7505958105929196,0.253432959318161,0.1823926568031311,0.2111022174358368
1772650382839380200,4.908380126953125,0.4689835394054651,-0.3778989546403288,-0.8056368759438395,0.2209430783987045,0.1534028500318527,0.2541438937187195
1772650382849352200,4.918352294921875,0.6147118607670068,-0.4299976829290389,-0.7818757688671351,0.1798004359006881,0.0948761627078056,0.2887748181819916
1772650382859325200,4.9283251953125,0.7459954771906137,-0.4596928562298417,-0.7680750609211623,0.1314610093832016,0.0556733980774879,0.307955265045166
1772650382869297200,4.938297119140625,0.8316787874341011,-0.4785571311756968,-0.7728187483169138,0.1003086864948272,0.0473957583308219,0.303766131401062
1772650382879270400,4.9482705078125,0.93285718845129,-0.4266743837252259,-0.653965282138437,0.0829776674509048,0.0601244084537029,0.273949921131134
1772650382889243100,4.9582431640625,0.9767997905522584,-0.3590492927417159,-0.6172009011037647,0.0827531591057777,0.1001615822315216,0.2323761135339737
1772650382899215000,4.968215087890625,1.014829953739047,-0.3025295331403613,-0.538150453003496,0.0891572386026382,0.1568994224071502,0.183316633105278
1772650382909188400,4.978188232421875,0.9947732541382313,-0.2996452098757028,-0.4590671255469322,0.1088284105062484,0.2108518779277801,0.1373534053564071
1772650382919160000,4.98816015625,0.9847323371171952,-0.3365744260832667,-0.3989326825797558,0.1248128488659858,0.2544386088848114,0.1099018603563308
1772650382929133000,4.998133056640625,0.934988939782977,-0.4104351965859532,-0.2905490263588726,0.1461610198020935,0.283530443906784,0.1013845428824424
1772650382939105300,5.008105224609375,0.9301777401089668,-0.4929816701084375,-0.2223342989191412,0.1710718870162964,0.2910814881324768,0.0983425974845886
1772650382949078300,5.018078369140625,0.9982757093012332,-0.574170007020235,-0.1579242244593799,0.1968741863965988,0.2871762216091156,0.1031418815255165
1772650382959050200,5.02805029296875,1.09237145858109,-0.6800234141111373,-0.1002408279061317,0.2318448424339294,0.2783982753753662,0.1063733994960784
1772650382969023200,5.038023193359375,1.2365016970962286,-0.8184040030583739,-0.0867519623883068,0.2614999413490295,0.2479375898838043,0.0981439650058746
1772650382978995200,5.0479951171875,1.3746891015589235,-0.929884602381289,-0.1077601174950599,0.2859950363636017,0.2205950021743774,0.0837190076708793
1772650382988968200,5.05796826171875,1.4140461294353008,-1.053292078602314,-0.1358127842858433,0.3030190169811249,0.1820806264877319,0.0816734358668327
1772650382998941200,5.067941162109375,1.3313409582197666,-1.1352943622455,-0.145474054339528,0.3172681629657745,0.1290165781974792,0.0877850949764251
1772650383008913200,5.0779130859375,1.1760685634434225,-1.1679203283011912,-0.1469331671066582,0.3202866017818451,0.0913006290793418,0.0808089450001716
1772650383018886400,5.087886474609375,0.9934241776168344,-1.156818504050374,-0.2927899371534586,0.3157711327075958,0.0857200250029563,0.0530454851686954
1772650383028858000,5.097858154296875,0.8519692957907915,-1.225820436345041,-0.3590482698284089,0.3169325292110443,0.1238913759589195,0.0072489692829549
1772650383038831400,5.107831298828125,0.6501309646725654,-1.418588741301,-0.2464442194335162,0.325606495141983,0.1562652438879013,-0.0367662124335765
1772650383048803300,5.11780322265625,0.4367623547583818,-1.6838769235447049,0.0849532424032688,0.336771011352539,0.1194683462381362,-0.051686305552721
1772650383058776000,5.127776123046875,0.2951572508066892,-1.7969354397088289,0.5019312847614288,0.3557244539260864,0.019445814192295,-0.0526926219463348
1772650383068748300,5.137748291015625,0.1215846447080373,-1.7273466474369168,0.7707128620788455,0.3625299036502838,-0.0976104959845542,-0.0561592578887939
1772650383078721300,5.14772119140625,-0.0031231004565954,-1.702757857364416,0.8037101456649601,0.3709957301616668,-0.187063381075859,-0.0501584149897098
1772650383088693200,5.157693359375,-0.2000993784964084,-1.6549734851434823,0.7949082689195871,0.372667133808136,-0.246052399277687,-0.0294113289564847
1772650383098666200,5.167666259765625,-0.3729021692663431,-1.4039625423163176,0.6878083688989282,0.3561809659004211,-0.346148133277893,-0.0132313193753361
1772650383108639200,5.17763916015625,-0.4195639671981334,-1.1125047305494546,0.4103904806613921,0.3285685181617737,-0.4829352796077728,-0.0515837706625461
1772650383118611500,5.187611572265625,-0.3656552668780088,-0.6849909733906387,0.1248861704714596,0.301076591014862,-0.631000280380249,-0.1429208219051361
1772650383128584200,5.197584228515625,-0.4229693917274474,-0.4257604837507009,-0.0545304854802787,0.2821764051914215,-0.7351964712142944,-0.242655411362648
1772650383138556200,5.20755615234375,-0.8023112386524677,-0.3013470453575253,-0.1748230445511639,0.2267855554819107,-0.7620300054550171,-0.3423649966716766
1772650383148529400,5.217529296875,-1.3892898738414048,-0.126764385433495,-0.4724929357659071,0.129201740026474,-0.7254120707511902,-0.4369277060031891
1772650383158501000,5.227501220703125,-1.9999013135522603,0.130580144329369,-0.8226326536040752,0.0225729197263717,-0.6084433197975159,-0.5114821791648865
1772650383168474000,5.23747412109375,-2.6190847667753694,0.4033399776279926,-1.009598775087297,-0.0481917969882488,-0.4319455027580261,-0.553577721118927
1772650383178446300,5.2474462890625,-3.1761545859128235,0.7363833069756627,-0.9696018418721856,-0.0752188935875892,-0.2344416379928589,-0.5578930377960205
1772650383188419300,5.25741943359375,-3.6431560115903614,1.1161755280166863,-0.761168131076917,-0.0465512908995151,-0.0169511288404464,-0.4911235570907593
1772650383198391300,5.267391357421875,-4.042679645800591,1.547009369508922,-0.4603414563316851,0.0411605238914489,0.2326290309429168,-0.3294501900672912
1772650383208364300,5.2773642578125,-4.268357702189683,1.936394763803482,-0.109431996230036,0.1711763143539428,0.4804334938526153,-0.0892189443111419
1772650383218337300,5.287337158203125,-4.218527211093902,2.2626596850574017,0.2799471144542098,0.3320017158985138,0.6622440218925476,0.2023452073335647
1772650383228309200,5.297309326171875,-3.7545582849800585,2.494717505611479,0.7556529478520154,0.4877431094646454,0.7378988265991211,0.491805225610733
1772650383238282200,5.3072822265625,-2.8767414312273263,2.5431150412946937,1.189210807480663,0.6256729364395142,0.7125781178474426,0.7401737570762634
1772650383248254200,5.317254150390625,-1.8793623785048723,2.4182962369710204,1.4126749872125683,0.7382855415344238,0.6023280620574951,0.9091913104057312
1772650383258227200,5.327227294921875,-0.8680530001074075,2.287286176791787,1.446418412990868,0.8106662631034851,0.4474922120571136,0.9681638479232788
1772650383268199200,5.33719921875,0.133021400001645,2.077538387723267,1.3388729611597954,0.831665575504303,0.2783095836639404,0.9187315702438354
1772650383278172200,5.347172119140625,0.8818769427984953,1.7307146625652907,1.1608286164745687,0.8076590299606323,0.1325885206460952,0.7860416769981384
1772650383288144100,5.35714404296875,1.3128800033777952,1.2892828546911477,0.9970958518669008,0.7432962656021118,0.0222377721220254,0.6041616201400757
1772650383298117000,5.3671171875,1.4952297901719809,0.9364020214512944,0.7934417034983634,0.6363615393638611,-0.0622436329722404,0.3877880275249481
1772650383308089300,5.37708935546875,1.4666566066384314,0.7268488781720399,0.5582086139090359,0.5149538516998291,-0.1406889110803604,0.1747268885374069
1772650383318062300,5.387062255859375,1.213967209205031,0.5907590305104852,0.2947488161362707,0.3909357190132141,-0.1916911303997039,-0.005931809078902
1772650383328035000,5.39703515625,0.7428443196833133,0.5533499218314886,0.059667117716372,0.2642797827720642,-0.2207091897726059,-0.1604963392019271
1772650383338007300,5.40700732421875,0.1711269665122032,0.6815647983342409,-0.2233228715650737,0.1308013796806335,-0.237697497010231,-0.298132449388504
1772650383347980300,5.416980224609375,-0.3832259948819875,0.8837836532026528,-0.5598588653340936,-0.0047172997146844,-0.2253297716379165,-0.4235505759716034
1772650383357952000,5.426951904296875,-0.9203302998334169,1.0782143384128808,-0.8885284365769475,-0.1285454183816909,-0.1710385382175445,-0.5081877112388611
1772650383367925200,5.43692529296875,-1.5107564451277256,1.1950611409440637,-1.0475424290344115,-0.2324294745922088,-0.0807701721787452,-0.5230207443237305
1772650383377897200,5.446897216796875,-2.050616186267137,1.378257899956405,-1.0306249042421578,-0.2992838323116302,0.019459705799818,-0.4570913016796112
1772650383387870200,5.4568701171875,-2.4016531452059744,1.6680217672869562,-0.8873677222345023,-0.3161392509937286,0.1190440878272056,-0.3189579248428345
1772650383397842200,5.46684228515625,-2.4893103858709336,1.9666846881270408,-0.6397102545537054,-0.2768621444702148,0.2278914749622345,-0.1435845047235489
1772650383407815200,5.476815185546875,-2.2586218078434466,2.1803940743029115,-0.3630263066139072,-0.2071642875671386,0.3260952830314636,0.0241970382630825
1772650383417787400,5.486787353515625,-1.7810855441480875,2.251646415872872,-0.1398212162096053,-0.141053706407547,0.3966103792190552,0.1516540944576263
1772650383427760000,5.496760009765625,-1.0876607966721057,2.1692808518752456,-0.0413281087536364,-0.0929908528923988,0.4293049573898315,0.2296461015939712
1772650383437733000,5.506733154296875,-0.3223796042531728,1.972802001963556,-0.0242345698073506,-0.0682699382305145,0.4369718134403229,0.2713290452957153
1772650383447705300,5.516705322265625,0.3638613691985607,1.7395391895338892,-0.0315777721770107,-0.0590625964105129,0.4254033267498016,0.2817454636096954
1772650383457678300,5.52667822265625,0.9371475791215896,1.5592352293536067,-0.0951826677337288,-0.0645826086401939,0.4222477078437805,0.2577911615371704
1772650383467650000,5.536650146484375,1.3443068227767945,1.3485226869061588,-0.1089833756797015,-0.0665376335382461,0.4249154031276703,0.2133557945489883
1772650383477623300,5.546623291015625,1.6189432636022567,1.1780509694322945,-0.0835007055073976,-0.0527105368673801,0.3896695077419281,0.1758214086294174
1772650383487595300,5.55659521484375,1.791976355996728,1.0431824802592395,-0.017196195603162,-0.0342633500695228,0.3577054738998413,0.1489282697439193
1772650383497568300,5.566568359375,1.8295085065335035,0.8630246505513787,-0.0179718561507761,-0.0355654507875442,0.3260628283023834,0.1261865198612213
1772650383507540200,5.576540283203125,1.872120736813545,0.6240890531823039,-0.0925898747615516,-0.0569820553064346,0.2686852812767029,0.0968781635165214
1772650383517513200,5.58651318359375,1.902132428717613,0.3948912982344627,-0.1422979085214435,-0.0840201079845428,0.2006773352622985,0.0662211999297142
1772650383527485200,5.596485107421875,1.8559522768229244,0.1543549876704812,-0.0918210823461413,-0.1103510484099388,0.1299544274806976,0.0292764976620674
1772650383537458200,5.606458251953125,1.8507810116648675,-0.05682663359344,-0.0022923487208783,-0.1356369256973266,0.0412964709103107,-0.0122336084023118
1772650383547431200,5.61643115234375,1.776806259393692,-0.2055880390405654,-0.0060699675634503,-0.1541895717382431,-0.0448408089578151,-0.061201948672533
1772650383557403400,5.6264033203125,1.6190882250308989,-0.3263856250241398,-0.0651664457850158,-0.1776334196329116,-0.1010958328843116,-0.1026644930243492
1772650383567376100,5.636376220703125,1.443460439968109,-0.4488178264722228,-0.1671960568040609,-0.2077625542879104,-0.1453112363815307,-0.1407788544893264
1772650383577348400,5.646348388671875,1.2872054638952015,-0.5722413770452142,-0.3347933878853917,-0.2637409269809723,-0.1810491383075714,-0.1842038631439209
1772650383587321300,5.6563212890625,1.1063912161052227,-0.7219871173545718,-0.5144868149518966,-0.3349994122982025,-0.2025304585695266,-0.2203354984521865
1772650383597293000,5.66629296875,0.9455220242351292,-0.8858353250354528,-0.6182239605411887,-0.4129963219165802,-0.194234013557434,-0.2651527523994446
1772650383607266300,5.676266357421875,0.8089999226361513,-0.9921157253667712,-0.5838080423288047,-0.4736005365848541,-0.1931232064962387,-0.3061614334583282
1772650383617238300,5.68623828125,0.6449994470030069,-0.979206267172098,-0.4978843474581837,-0.504284679889679,-0.2040413618087768,-0.352291852235794
1772650383627212300,5.69621240234375,0.4959188926041126,-0.8736746393814683,-0.356602191850543,-0.4989482164382934,-0.208099752664566,-0.3708018958568573
1772650383637185300,5.706185302734375,0.2586567814052105,-0.796422765135765,-0.1777902237936854,-0.4685313701629638,-0.192393809556961,-0.3571175038814544
1772650383647157200,5.7161572265625,0.0342331089913845,-0.7768409895703197,-0.0246387666940689,-0.4429221451282501,-0.1859889030456543,-0.320606917142868
1772650383657130200,5.726130126953125,-0.0943792423963546,-0.7742945199579,0.1154879352681338,-0.4185562431812286,-0.2086744159460067,-0.2697930335998535
1772650383667102500,5.7361025390625,-0.1495335588634014,-0.8168985669314861,0.2216523080043494,-0.3887227177619934,-0.2396927773952484,-0.2052659541368484
1772650383677075500,5.746075439453125,-0.1685509785443544,-0.8769584833577275,0.3531802545778453,-0.3541170358657837,-0.268848717212677,-0.131422072649002
1772650383687047400,5.75604736328125,-0.2119324396312236,-0.9086784404844044,0.4416955733768641,-0.3171228170394897,-0.2859661877155304,-0.0486853718757629
1772650383697020400,5.7660205078125,-0.2490729605019092,-0.926102161233127,0.5118349852688611,-0.2796256840229034,-0.2867927253246307,0.0293539687991142
1772650383706992400,5.775992431640625,-0.2942746227532625,-0.9904425314575434,0.4490998582839965,-0.2590823173522949,-0.2766807079315185,0.103639118373394
1772650383716965400,5.78596533203125,-0.3113485071510076,-1.0932853585556148,0.3290732566729187,-0.2542376816272735,-0.2725170850753784,0.1624074429273605
1772650383726938400,5.7959384765625,-0.2427911037534475,-1.2054738138869403,0.268149563024193,-0.2636535763740539,-0.2850688099861145,0.2096859961748123
1772650383736910600,5.80591064453125,-0.1045277114450931,-1.2716066204860803,0.2727582258634269,-0.2762524783611297,-0.3142175376415252,0.2353045642375946
1772650383746883300,5.81588330078125,0.033260464566946,-1.3310638948440552,0.3750755677826702,-0.2859053611755371,-0.3369271159172058,0.2497772574424743
1772650383756855600,5.82585546875,0.1295762279838323,-1.3299112176775931,0.4751249647699296,-0.2983089089393616,-0.3610766530036926,0.2518624663352966
1772650383766828500,5.83582861328125,0.1261567749291658,-1.2804270558014512,0.5344809707105159,-0.3118958175182342,-0.3492428958415985,0.2470013946294784
1772650383776800500,5.845800537109375,0.0498369208365678,-1.2166153856262565,0.5537172938391566,-0.3250385522842407,-0.3236660063266754,0.2413022220134735
1772650383786773500,5.8557734375,-0.008649754923582,-1.1576841809689995,0.5544254421085119,-0.3324788808822632,-0.3031332790851593,0.2419198155403137
1772650383796745500,5.865745361328125,-0.0629477468222379,-1.0640107487544417,0.6108366267688572,-0.3344765603542328,-0.2993274331092834,0.2403573244810104
1772650383806718500,5.875718505859375,-0.0415489849627018,-0.9830962603479624,0.7035710245676339,-0.3279648721218109,-0.3225070536136627,0.2389077544212341
1772650383816690400,5.8856904296875,-0.0285632466614246,-0.907168620443344,0.8469067517042159,-0.3038432002067566,-0.362642765045166,0.2450336664915084
1772650383826663400,5.895663330078125,-0.0709539431452751,-0.8576406194254755,1.00825992769897,-0.2694061398506164,-0.3996271193027496,0.2593052685260772
1772650383836636400,5.905636474609375,-0.0731505764067173,-0.802070123372972,1.1195724769786,-0.2411752939224243,-0.435552716255188,0.2778748571872711
1772650383846608400,5.9156083984375,-0.0759124423354864,-0.7580848511740564,1.1581839471846818,-0.2130856066942215,-0.4745365977287292,0.3007748425006866
1772650383856581400,5.925581298828125,-0.1380249073773622,-0.7623620901018381,1.1707258872412143,-0.1895193308591842,-0.4922527372837066,0.3351777791976928
1772650383866553600,5.9355537109375,-0.1914057844310998,-0.779048436486721,1.1193472899205985,-0.1712721437215805,-0.4974498748779297,0.3747488856315613
1772650383876526600,5.945526611328125,-0.193854346626997,-0.7662818938940763,1.0169440963488072,-0.159217357635498,-0.5031386017799377,0.4181388318538666
1772650383886498600,5.95549853515625,-0.1793885989010334,-0.7723673512876034,0.8964875058226287,-0.1569491326808929,-0.466992050409317,0.4587232768535614
1772650383896471600,5.965471435546875,-0.1953039609134197,-0.8401730595350265,0.8909254147160798,-0.158766970038414,-0.4368714392185211,0.5166314840316772
1772650383906443500,5.975443603515625,-0.1583271061718464,-0.939095790579915,0.9692739981573074,-0.1683780401945114,-0.4601666331291199,0.5737661719322205
1772650383916416500,5.98541650390625,-0.0070481649458408,-0.802834678004682,0.9281958455767482,-0.1765713393688202,-0.5225828886032104,0.5877546668052673
1772650383926388500,5.995388427734375,0.3346066331416368,-0.5706944398641586,0.92556527787745,-0.1942856311798095,-0.6426893472671509,0.5340030193328857
1772650383936361500,6.005361572265625,0.6340981137603521,-0.5100476634606719,0.8394132541436702,-0.2185575515031814,-0.7389841675758362,0.4438417553901672
1772650383946334500,6.01533447265625,0.7442717221379279,-0.556191282737255,0.7505775442838668,-0.2469204813241958,-0.7834663987159729,0.3441897332668304
1772650383956306400,6.025306396484375,0.6580407148838043,-0.4808355975016951,0.5506794605132193,-0.2753565609455108,-0.7971370816230774,0.2520887553691864
1772650383966279400,6.035279541015625,0.5324900891542435,-0.2307704110920429,0.2491100045766681,-0.3099198639392853,-0.7991504073143005,0.1522042453289032
1772650383976251400,6.04525146484375,0.453211385256052,0.0637020723208785,-0.0480649427279829,-0.3366761207580566,-0.7971614003181458,0.0259025320410728
1772650383986224400,6.055224365234375,0.3982984763294458,0.2223009811714291,-0.2456573799047618,-0.3691901266574859,-0.785865068435669,-0.128708079457283
1772650383996196600,6.065196533203125,0.2573994748204946,0.2912833319827914,-0.3816543616510927,-0.4230515658855438,-0.7463287711143494,-0.3154550790786743
1772650384006169600,6.075169677734375,-0.0348205534905195,0.3510042257130146,-0.5563660913148895,-0.4790791571140289,-0.6475750207901001,-0.501453697681427
1772650384016141300,6.085141357421875,-0.5120072730958461,0.436911115579307,-0.6938440688665956,-0.5230025053024292,-0.4893038272857666,-0.6428470015525818
1772650384026114600,6.095114501953125,-1.093234797412157,0.6287932853505015,-0.7545845149029046,-0.5442838668823242,-0.3053829967975616,-0.7125650644302368
1772650384036086500,6.10508642578125,-1.6616759053915735,0.9027464200869202,-0.7057292985800653,-0.5259727239608765,-0.1305719763040542,-0.6832059025764465
1772650384046059300,6.115059326171875,-2.1815455824255943,1.1509744541972875,-0.4501243059609085,-0.4662359058856964,0.0330340079963207,-0.5385986566543579
1772650384056032500,6.125032470703125,-2.5793361092329024,1.354369074846804,-0.0731241998564452,-0.3708622455596924,0.157009944319725,-0.2826001346111297
1772650384066004500,6.13500439453125,-2.810351434996724,1.570012059433758,0.2883630606219172,-0.2630710899829864,0.214451402425766,0.0559313111007213
1772650384075977500,6.1449775390625,-2.854207527858019,1.7597884890973567,0.543122030870989,-0.1581403613090515,0.2406922727823257,0.4246243238449096
1772650384085949400,6.154949462890625,-2.6056658977538345,1.878606591701508,0.6767334326550364,-0.0632197111845016,0.2250043898820877,0.7572435736656189
1772650384095922400,6.16492236328125,-1.9972148509472607,1.895539606323838,0.7512034210972488,0.0159533210098743,0.1734316498041153,0.9994112849235536
1772650384105894700,6.174894775390625,-1.2140379363536835,1.7542980749875303,0.7146640079248696,0.075658731162548,0.0997422561049461,1.1227612495422363
1772650384115867400,6.184867431640625,-0.4033575132846832,1.5708865041807294,0.5622752057608217,0.1091740056872367,0.0480051413178443,1.1422386169433594
1772650384125839400,6.19483935546875,0.2733703664124012,1.3265128074109551,0.4254487874530255,0.1079500168561935,0.0128466188907623,1.0574867725372314
1772650384135812600,6.2048125,0.8272527876853942,1.0284709410786628,0.2394916968818753,0.0772515684366226,-0.0118324793875217,0.8973671793937683
1772650384145784300,6.214784423828125,1.2247183203220366,0.7573170816719531,0.0514893642187118,0.0215315781533718,-0.0219809878617525,0.696936309337616
1772650384155757300,6.22475732421875,1.407042388153076,0.5180068057715892,-0.1232694559898227,-0.0500735864043235,-0.0202348064631223,0.4744646251201629
1772650384165730600,6.23473046875,1.4155167865097522,0.3187941469818353,-0.3322521789699793,-0.1419760882854461,-0.0183657985180616,0.2399461269378662
1772650384175702500,6.24470263671875,1.348392046263814,0.1817810469955205,-0.5899631308924407,-0.2335157841444015,-0.0299135781824588,0.0179881602525711
1772650384185675300,6.25467529296875,1.1384195085287094,0.1013134255737066,-0.8366535801719873,-0.3186232149600982,-0.0302283652126789,-0.1706533879041671
1772650384195647500,6.2646474609375,0.8060311359584331,0.1170370644062757,-1.0652983043469488,-0.4041258692741394,-0.0094982497394084,-0.3142790198326111
1772650384205620500,6.274620361328125,0.4102431811451911,0.1712012007921934,-1.2463288252361118,-0.488290011882782,0.018945375457406,-0.4206145107746124
1772650384215592400,6.284592529296875,0.0666372489899396,0.2491641459167003,-1.3429811271309853,-0.5681155920028687,0.058751780539751,-0.5093631744384766
1772650384225565400,6.2945654296875,-0.1932552116900682,0.331724940225482,-1.3062845506355163,-0.6181859374046326,0.1088932380080223,-0.5544201135635376
1772650384235537400,6.304537353515625,-0.4314800304412841,0.4188642944961786,-1.0703729041974992,-0.63023442029953,0.1710509359836578,-0.5528966188430786
1772650384245510700,6.3145107421875,-0.6166401984810829,0.5953957504004239,-0.7333322488419711,-0.5980535745620728,0.2411964684724807,-0.5051645040512085
1772650384255482400,6.324482421875,-0.7257786185920239,0.8055489053994417,-0.3480226526189595,-0.5241944789886475,0.3108870387077331,-0.4123755097389221
1772650384265455400,6.334455322265625,-0.7576905911594629,0.9593453824043272,0.0838325678102672,-0.4089922308921814,0.3607315421104431,-0.2779857218265533
1772650384275428600,6.3444287109375,-0.6696516577005386,1.0477060951635242,0.4910141694277524,-0.2814353704452514,0.3736548721790313,-0.1284651607275009
1772650384285400300,6.354400390625,-0.4173462911486625,1.0880363519862293,0.687949384804815,-0.162050113081932,0.3467505574226379,-0.0004741683078464
1772650384295373300,6.364373291015625,-0.0185258367717266,1.058720825652778,0.7314840636920183,-0.0565467849373817,0.2880017757415771,0.0979362651705741
1772650384305345500,6.374345458984375,0.4253735302597284,0.9525123215138912,0.718875342009589,0.0291793048381805,0.2196429520845413,0.1549899578094482
1772650384315318500,6.384318603515625,0.8089128288745879,0.7462523745611309,0.6169089324198663,0.0925263911485672,0.1598079949617386,0.1804130673408508
1772650384325290500,6.39429052734375,1.0647498766839505,0.5264525625556707,0.4982512810744345,0.146145686507225,0.1234111040830612,0.194914773106575
1772650384335263500,6.404263427734375,1.1702572468161585,0.4007870782747864,0.4088344103258103,0.1807406395673751,0.1184371039271354,0.2092113643884658
1772650384345235700,6.414235595703125,1.251082011112571,0.33991584546566,0.2521218997437506,0.2023404687643051,0.1281517893075943,0.2056169062852859
1772650384355208400,6.42420849609375,1.302508831489086,0.2546639123767614,0.1167613892700523,0.2156853377819061,0.1505791395902633,0.1848663836717605
1772650384365181400,6.434181396484375,1.366100136911869,0.1388753867268562,0.0239226543139666,0.2190078943967819,0.1728543490171432,0.1422336995601654
1772650384375153700,6.444153564453125,1.5068565150797366,0.0233434661865234,-0.0571355534121394,0.2124034911394119,0.1622117608785629,0.0788317918777465
1772650384385126700,6.454126708984375,1.6170038199722765,-0.0774175862014293,-0.045462212883681,0.2037833780050277,0.1079599633812904,0.0175295546650886
1772650384395098400,6.464098388671875,1.580901994499564,-0.1758282760709524,0.0243513280548155,0.1900471448898315,0.0648543238639831,-0.0242735836654901
1772650384405071600,6.474071533203125,1.3957476716786623,-0.184279293552041,0.0294907367698848,0.1722718775272369,0.0559210181236267,-0.0516508817672729
1772650384415043600,6.484043701171875,1.2488356934905052,-0.1751572449415922,-0.0349991249278187,0.1598135977983474,0.0560040399432182,-0.0967695862054824
1772650384425016300,6.494016357421875,1.1956015314310788,-0.1965384711444378,-0.0882926890242844,0.1358363628387451,0.0496446751058101,-0.1701798737049102
1772650384434988500,6.503988525390625,1.2081295890927315,-0.2838134344935417,-0.0694852588322013,0.1156075894832611,0.0488573983311653,-0.2575776278972626
1772650384444961500,6.51396142578125,1.1613853735744952,-0.3495885136961936,-0.0680064184512942,0.1011777892708778,0.0635258257389068,-0.356171578168869
1772650384454933500,6.52393359375,1.0784551614314315,-0.3499129233449697,-0.0528384407401084,0.0887910798192024,0.0875049754977226,-0.43820920586586
1772650384464906500,6.533906494140625,0.9231465262979268,-0.3331809842526912,-0.0376684172023087,0.0854592025279998,0.1012894958257675,-0.5052889585494995
1772650384474879500,6.54387939453125,0.6360124229490757,-0.3151046448141336,0.0276672476697713,0.09086275100708,0.1157208308577537,-0.5325583219528198
1772650384484851500,6.5538515625,0.237083247500658,-0.2960837180018424,0.1225040976405143,0.1202821657061576,0.1467005908489227,-0.511561930179596
1772650384494824400,6.563824462890625,-0.1192033025294542,-0.2502490185439586,0.216594293962419,0.1609640121459961,0.1718262135982513,-0.4601490795612335
1772650384504796400,6.57379638671875,-0.3183914113998413,-0.1928907622918486,0.2560898535266518,0.1955645978450775,0.1756537109613418,-0.3991821408271789
1772650384514769700,6.583769775390625,-0.3742892397105694,-0.2020841225728392,0.2334058741621673,0.2192297577857971,0.1630952656269073,-0.3515323996543884
1772650384524741400,6.593741455078125,-0.3618897768646478,-0.300338745097816,0.170647950823605,0.2325287759304046,0.14216148853302,-0.2962116003036499
1772650384534714400,6.60371435546875,-0.4193003478258847,-0.4358034465983509,0.1199523673310875,0.2339331805706024,0.1382900178432464,-0.2246108651161193
1772650384544686600,6.6136865234375,-0.5053261878967285,-0.4962719438254833,0.0155675714880228,0.231124073266983,0.1607023775577545,-0.1474202126264572
1772650384554659300,6.623659423828125,-0.5051578455924988,-0.4686471470579504,-0.0996069139167666,0.2203669846057891,0.1724889129400253,-0.0826667919754982
1772650384564631600,6.633631591796875,-0.3636497722744941,-0.4761281504631042,-0.1567097341030836,0.2086208462715149,0.1712942272424698,-0.0396604724228382
1772650384574604500,6.6436044921875,-0.2141618061184883,-0.567433684502542,-0.1766629733294248,0.194121703505516,0.1864171475172042,-0.0216913167387247
1772650384584576300,6.653576171875,-0.0678518854767084,-0.6641539370670915,-0.1939221511662006,0.1761631965637207,0.2009886354207992,-0.0069853407330811
1772650384594549500,6.663549560546875,0.1009954456657171,-0.6729784640356898,-0.2131798093438148,0.1588750630617141,0.2124519050121307,-0.0001666343305259
1772650384604522500,6.6735224609375,0.203326523849368,-0.6300353943660855,-0.2513837216623127,0.1477680802345276,0.2225095927715301,-0.0032998432870954
1772650384614494500,6.683494384765625,0.2634779179513454,-0.6185054078310728,-0.2437485506087541,0.1392920315265655,0.2456566393375396,-0.0044694673269987
1772650384624467500,6.693467529296875,0.2791501188576221,-0.6345712842300534,-0.2626680628731846,0.1234347745776176,0.2942920923233032,0.0020400970242917
1772650384634439400,6.703439453125,0.216100080704689,-0.6661617697581649,-0.3985901527523994,0.1013683602213859,0.3478677868843078,0.0136674223467707
1772650384644412400,6.713412353515625,0.1411602827936411,-0.6629641427606344,-0.5176973014310002,0.077335201203823,0.3923375010490417,0.0474261865019798
1772650384654384400,6.72338427734375,0.130632459038496,-0.6740197897821665,-0.5579316966637968,0.048140063881874,0.4207843840122223,0.0870614945888519
1772650384664357400,6.733357421875,0.2138221989005804,-0.6833031664341688,-0.4935941029183566,0.0419237129390239,0.3696841895580292,0.124150812625885
1772650384674328800,6.743328857421875,0.3839911340355872,-0.6554509906515479,-0.3303903306208551,0.0403074696660041,0.3307639062404632,0.1616732329130172
1772650384684301800,6.7533017578125,0.471173158404231,-0.7155591301336884,-0.0840093856818973,0.0477896183729171,0.294470876455307,0.1957228183746338
1772650384694274000,6.763274169921875,0.5695516995698213,-0.7369114225029945,0.1273402856253087,0.0691331550478935,0.2411646246910095,0.2173667699098587
1772650384704246800,6.773246826171875,0.6209785199463367,-0.6853507466137408,0.3027602731563151,0.1214717179536819,0.1855104267597198,0.2343928813934326
1772650384714219800,6.7832197265625,0.6243173089802265,-0.6773156164571642,0.5314917257666587,0.1799148619174957,0.1597778350114822,0.2545833885669708
1772650384724192000,6.79319189453125,0.5467495006531476,-0.72485332044065,0.6829895704403519,0.2126778811216354,0.1717423498630523,0.2509963810443878
1772650384734165000,6.8031650390625,0.5121446357399225,-0.8007339063331484,0.6565178892306983,0.2302791625261306,0.1964890360832214,0.2293531149625778
1772650384744136700,6.81313671875,0.4005857104837894,-0.926305574850738,0.5586866066843271,0.2401959747076034,0.2562631666660309,0.188075989484787
1772650384754110000,6.82310986328125,0.2701017200052738,-1.0626099420458075,0.5359450519137084,0.2531767785549164,0.318530261516571,0.1327672004699707
1772650384764082000,6.83308203125,0.1612450394451618,-1.1580509684547782,0.5740802829101681,0.2858052849769592,0.3690826296806335,0.0802853405475616
1772650384774054700,6.8430546875,0.0549625932872295,-1.208797697612643,0.6585306903578341,0.3328321278095245,0.4245457649230957,0.0524928793311119
1772650384784027000,6.85302685546875,-0.1298462770968675,-1.3125012331932782,0.8606669815093279,0.4107628762722015,0.4611338675022125,0.0739363878965377
1772650384794000000,6.862999755859375,-0.3309849355131387,-1.4321478955760598,1.1343015518158674,0.5018817782402039,0.4548942148685455,0.1383127272129058
1772650384803971800,6.872971923828125,-0.4014735992342233,-1.6668234974130989,1.4725836585998535,0.5906294584274292,0.378006100654602,0.2321151196956634
1772650384813944800,6.88294482421875,-0.2948141364574432,-1.974536278410256,1.7878595683276652,0.6516844630241394,0.2251772582530975,0.3101925849914551
1772650384823917800,6.892917724609375,-0.0460807831734418,-2.2762837212622165,1.8691978351041676,0.6638473868370056,0.0014355066232383,0.3011626005172729
1772650384833890000,6.90289013671875,0.2564659933626652,-2.553368724283576,1.6288799895964563,0.6068748235702515,-0.2271234393119812,0.1679712533950805
1772650384843862800,6.91286279296875,0.4503600874781608,-2.8142572102636096,1.041459163597971,0.4794180691242218,-0.3967612385749817,-0.0387925766408443
1772650384853834800,6.922834716796875,0.3066898676902055,-2.9777491518527266,0.3101921767227351,0.3300249576568603,-0.4509584307670593,-0.2189128100872039
1772650384863808000,6.93280810546875,-0.3764987324535847,-2.9650919148534536,-0.3224190594807267,0.18362458050251,-0.3809207677841186,-0.3062602281570434
1772650384873779700,6.94277978515625,-1.2939888404250144,-2.4223551569730044,-0.8951499736085533,0.0571327582001686,-0.2366366237401962,-0.2730188965797424
1772650384883752700,6.952752685546875,-2.1242612681925297,-1.7367834610849615,-1.3132564354747531,-0.0261155273765325,-0.0533376336097717,-0.1430758237838745
1772650384893725000,6.962724853515625,-2.714135624822974,-1.1322697537273168,-1.415375332212448,-0.0595825985074043,0.0951390713453292,0.0283537507057189
1772650384903698000,6.972697998046875,-2.85644332408607,-0.6189256790697574,-1.270477031934261,-0.074882186949253,0.1261161565780639,0.1351289302110672
1772650384913670000,6.982669921875,-2.540937112733721,-0.1297244042828679,-1.141613043873012,-0.0972295701503753,0.0791782140731811,0.1188064217567443
1772650384923643000,6.992642822265625,-2.0885674389988185,0.146964292897284,-1.011685225972533,-0.0909580960869789,0.0475920625030994,0.0492590330541133
1772650384933615900,7.002615966796875,-1.9568734882086516,0.2810851785734296,-0.6948137176163495,-0.0351972877979278,0.0418806001543998,0.0262924693524837
1772650384943587800,7.012587890625,-2.222403077992797,0.5726148865327239,-0.3715617144428193,0.0477489903569221,0.1043650135397911,0.1070813238620758
1772650384953560800,7.022560791015625,-2.733513109987974,0.9968237569272518,-0.118544400229305,0.1412260234355926,0.2305602580308914,0.3021935224533081
1772650384963532800,7.03253271484375,-3.1345401344984767,1.3652128326833248,0.0695930300556123,0.2354137748479843,0.384940505027771,0.5715802907943726
1772650384973505800,7.042505859375,-3.22636735432446,1.6514210533589124,0.1769717470176517,0.324810117483139,0.5038619041442871,0.8503285646438599
1772650384983477800,7.052477783203125,-2.898194553622603,1.8312632412463423,0.3654835635729134,0.4151125848293304,0.5718314051628113,1.1140202283859253
1772650384993451000,7.062450927734375,-2.276047574418783,1.923253542679548,0.6651400254949927,0.5135456323623657,0.5746972560882568,1.3336925506591797
1772650385003422700,7.072422607421875,-1.509250716739893,2.0194781206816432,0.9599130992896854,0.6127901673316956,0.5072728991508484,1.4937825202941897
1772650385013395700,7.082395751953125,-0.6797030961155891,2.122224793928861,1.2289980434678494,0.6979101300239563,0.3886435329914093,1.564778208732605
1772650385023368000,7.092367919921875,0.1412684193432331,2.09941850335896,1.3596376628994942,0.7428304553031921,0.2440314888954162,1.537872552871704
1772650385033341000,7.1023408203125,0.8566349495142698,1.907929132297635,1.3767064327307044,0.7527381181716919,0.1123218312859535,1.4097784757614136
1772650385043313000,7.11231298828125,1.4386737902134656,1.6135072100281715,1.3211333063296973,0.7213008403778076,-0.0179496221244335,1.195766568183899
1772650385053286000,7.122285888671875,1.853073506516218,1.296423374095559,1.206733458559215,0.6443997025489807,-0.1801291406154632,0.9049078822135924
1772650385063259000,7.1322587890625,2.133085795161128,1.064325513792038,0.9296373496219515,0.5232937932014465,-0.3437052965164184,0.5429016947746277
1772650385073230800,7.14223095703125,2.121091990506649,0.8754892875880003,0.4369625535055995,0.3755954205989837,-0.4487403631210327,0.1557241827249527
1772650385083203800,7.152203857421875,1.6546785938501356,0.8359224163532256,-0.2032705558784306,0.2403097748756408,-0.4252158403396606,-0.1757141947746276
1772650385093175800,7.16217578125,0.7676771476447581,0.9496616082578896,-0.7257179744459689,0.1153080239892005,-0.3201949298381805,-0.4063542783260345
1772650385103149000,7.172149169921875,-0.1844429596811533,1.1700707843333482,-1.110745977248624,0.0007510846480727,-0.170425146818161,-0.4863289892673492
1772650385113120800,7.182120849609375,-1.1895803714454174,1.3545190047115088,-1.382543906712532,-0.0947921723127365,-0.0097439102828502,-0.4111629426479339
1772650385123093800,7.19209375,-2.0052046806573864,1.5422569142848253,-1.4844045909054575,-0.1714968085289001,0.1251206994056701,-0.2252031862735748
1772650385133066000,7.20206591796875,-2.4713375068068504,1.7769652493476866,-1.3701169713377952,-0.1993165016174316,0.2276748120784759,0.0087582310661673
1772650385143038700,7.212038818359375,-2.445527942767739,2.025437905868888,-1.1429364014312624,-0.1881144344806671,0.2432226240634918,0.2151124775409698
1772650385153011000,7.222010986328125,-1.9418951147854329,2.193286289101839,-0.857559663143754,-0.1623004972934723,0.182658389210701,0.3409718573093414
1772650385162984000,7.23198388671875,-1.2909896586090326,2.2397610400289296,-0.5965091184698045,-0.1390873193740844,0.1202008724212646,0.3855752944946289
1772650385172957000,7.24195703125,-0.6958902608066797,2.1365666230142115,-0.437598367191106,-0.1162711828947067,0.1062328070402145,0.3938978612422943
1772650385182929000,7.251928955078125,-0.3283329596996307,2.0178063880771395,-0.3194260151445865,-0.0977187976241111,0.1250791996717453,0.3859147727489471
1772650385192902000,7.26190185546875,-0.1057481931507587,1.9288146839380265,-0.1556725000098347,-0.067632757127285,0.1628044098615646,0.3794552385807037
1772650385202873900,7.271873779296875,-0.0306119958847761,1.8859961174309248,-0.0099297117315232,-0.0250016748905181,0.2226986438035965,0.3849687576293945
1772650385212846800,7.281846923828125,-0.0204103353440761,1.8483973313987252,0.0981311422757804,0.024314921349287,0.2777507603168487,0.4198334217071533
1772650385222818800,7.29181884765625,0.0357265624195337,1.8257611366987228,0.1669996574491262,0.0735628902912139,0.2922191619873047,0.4577613770961761
1772650385232791800,7.301791748046875,0.2006868229955434,1.7804063297122716,0.2249422894604504,0.1176593303680419,0.2681194543838501,0.5081264972686768
1772650385242763800,7.311763671875,0.3966296663343906,1.6666618771106003,0.2583189277529716,0.1487530618906021,0.2267421782016754,0.5609971284866333
1772650385252736800,7.32173681640625,0.5746592518419027,1.506859437689185,0.257971429489553,0.1677184253931045,0.1617228239774704,0.6035752296447754
1772650385262709000,7.331708984375,0.7918658324837684,1.3227151686936616,0.2071601106628775,0.169176235795021,0.0700895711779594,0.619065523147583
1772650385272682000,7.341681884765625,1.0124982959210873,1.119913545501232,0.1858722618319094,0.1644426733255386,-0.0252048708498477,0.6101987361907959
1772650385282654700,7.35165478515625,1.1646896758168934,0.8950321924477815,0.2681504398070276,0.1552062928676605,-0.1547604650259018,0.58509761095047
1772650385292627000,7.361626953125,1.2849188142627477,0.7415016729027032,0.293462429587543,0.1513432264328003,-0.3242543339729309,0.5734782814979553
1772650385302600000,7.371599853515625,1.2325205185055732,0.5962842236727476,0.2426647008948028,0.1240575388073921,-0.4464742541313171,0.5776407718658447
1772650385312571600,7.381571533203125,1.0238806906789542,0.4224006519287824,0.1138540504559874,0.0684152394533157,-0.5103890895843506,0.5789169669151306
1772650385322545000,7.391544921875,0.8728197761178016,0.2603933959394693,-0.0513218986973166,-0.0041252723895013,-0.5455095171928406,0.5582430958747864
1772650385332516900,7.401516845703125,0.7773106529086827,0.162592946922779,-0.1787406563863158,-0.0650553554296493,-0.5459733009338379,0.5027854442596436
1772650385342489900,7.41148974609375,0.7646575075626373,0.0596603957146406,-0.2313693998984992,-0.1198965013027191,-0.5119210481643677,0.4292289316654205
1772650385352461800,7.4214619140625,0.7717103486835956,-0.0044867900252342,-0.2124435309585183,-0.1654991805553436,-0.4631535708904266,0.3499983847141266
1772650385362434800,7.431434814453125,0.7435872470051049,-0.034668577799201,-0.1651611899755895,-0.197653129696846,-0.4212330281734466,0.2754940688610077
1772650385372407000,7.441406982421875,0.6629559594541787,0.0162993928939104,-0.0937113530721515,-0.2134310603141784,-0.3755725920200348,0.2227021753787994
1772650385382379800,7.4513798828125,0.5712146643459797,0.0759036745071411,0.0546064733259379,-0.2116845548152923,-0.3362108170986175,0.1808913350105285
1772650385392352800,7.461352783203125,0.5385808072447776,0.0817307732254266,0.1884076255284249,-0.2060372829437255,-0.3121793866157532,0.1247356534004211
1772650385402325000,7.471324951171875,0.5779512791246175,0.0531821396112442,0.2357624472256749,-0.1978872120380401,-0.2920101881027221,0.0545443072915077
1772650385412298000,7.481298095703125,0.5849035824805497,-0.0415998383671045,0.25799327599518,-0.1872474998235702,-0.2706057131290436,0.0002046260633505
1772650385422269700,7.491269775390625,0.4801765490710735,-0.1033779568880796,0.3228786398164928,-0.1584659218788147,-0.2585128247737884,-0.0194463059306144
1772650385432243000,7.501242919921875,0.3342722866207361,-0.138761989480257,0.4801075754880904,-0.1334035992622375,-0.2547443807125091,-0.0088879484683275
1772650385442215000,7.51121484375,0.1605424441337585,-0.1626689347684383,0.529989431444928,-0.1155375093221664,-0.2744959890842438,0.0251973159611225
1772650385452188000,7.52118798828125,0.0629027386367321,-0.1805360153704881,0.5090129135854542,-0.1019886434078216,-0.3139633536338806,0.0602903068065643
1772650385462160000,7.531159912109375,0.00874678555727,-0.2493225513488054,0.5450497840631753,-0.0931565389037132,-0.349574863910675,0.1032401695847511
1772650385472132900,7.5411328125,-0.067265025499463,-0.310596227478981,0.6034462973218411,-0.0853011682629585,-0.3714703619480133,0.1435421258211136
1772650385482104800,7.551104736328125,-0.0819236654490232,-0.3397773137778043,0.5904574902806431,-0.0817929804325103,-0.3798840939998626,0.1698171347379684
1772650385492077800,7.561077880859375,-0.0696907913416624,-0.3851186767607927,0.5611025817848742,-0.0881588831543922,-0.3748367726802826,0.1768382787704467
1772650385502050000,7.571050048828125,-0.0185445414721965,-0.4448743495434522,0.5841421696539968,-0.0987497419118881,-0.3771185576915741,0.1736576706171035
1772650385512023000,7.58102294921875,0.0042816228419542,-0.4958651165902614,0.6673105014018714,-0.1090665608644485,-0.3541090488433838,0.1779418587684631
1772650385521995800,7.590995849609375,-0.0966857657730579,-0.5538929426670074,0.7197375848621129,-0.1202843263745307,-0.3156777620315552,0.182542473077774
1772650385531968000,7.600968017578125,-0.1753951453506946,-0.5126373876929283,0.7658767471592873,-0.1171959787607193,-0.290685772895813,0.1849614679813385
1772650385541941000,7.61094091796875,-0.2330202358454465,-0.4141635694593191,0.901462663886696,-0.0945404693484306,-0.2847751379013061,0.1980101615190506
1772650385551912700,7.62091259765625,-0.2814607338875532,-0.3768365861058235,1.0940154263958335,-0.0481481999158859,-0.3070700466632843,0.2210401147603988
1772650385561886000,7.630885986328125,-0.2895639608442783,-0.3395721465945243,1.2497031239748,-0.0076505774632096,-0.3556666374206543,0.2478208541870117
1772650385571858000,7.64085791015625,-0.2704115166068077,-0.3635667701661587,1.2605065498009322,0.0283962562680244,-0.4222851395606994,0.2701932787895202
1772650385581830700,7.65083056640625,-0.2799281174927949,-0.445854008230567,1.224677842181176,0.0508230030536651,-0.4498243629932403,0.2942980825901031
1772650385591803000,7.660802978515625,-0.3823685012698173,-0.5797527755886316,1.206015446482971,0.0674173161387443,-0.4567714631557464,0.3258450329303741
1772650385601775900,7.67077587890625,-0.4785737900495529,-0.695371205368638,1.196213233588636,0.0731409862637519,-0.4680965542793274,0.35884690284729
1772650385611747800,7.680747802734375,-0.4308008160054683,-0.7630588401943444,1.150310145069659,0.0739167109131813,-0.4942605197429657,0.3697928786277771
1772650385621720800,7.690720947265625,-0.2595160285830498,-0.7350888832509517,1.109868463761732,0.0703073292970657,-0.5185050964355469,0.3463794291019439
1772650385631693800,7.70069384765625,-0.0568137741118669,-0.7412573427528143,0.9388191655956208,0.0709414035081863,-0.4931816756725311,0.291407972574234
1772650385641666000,7.710666015625,0.0685159023433923,-0.77390289029181,0.7312307465180754,0.0651506260037422,-0.4449888467788696,0.2160804718732834
1772650385651638800,7.720638671875,0.1820651246339082,-0.7612585127741098,0.4604042924348264,0.0336760878562927,-0.3946744799613952,0.1247614994645118
1772650385661610800,7.73061083984375,0.3142985891282558,-0.6023860476791858,0.2022842482548207,-0.0109118837863206,-0.3390463590621948,0.0273819547146558
1772650385671584300,7.740584228515625,0.4144885636299848,-0.3771048816531896,-0.0610349354708567,-0.047281228005886,-0.2797914147377014,-0.0844777822494506
1772650385681556500,7.750556396484375,0.5134089565873146,-0.128784200823307,-0.2944827125459909,-0.0842568203806877,-0.2262227237224578,-0.2255126535892486
1772650385691529200,7.760529296875,0.5940156942188739,0.0789689072966575,-0.5183299367787316,-0.126142606139183,-0.1864669471979141,-0.3740181922912597
1772650385701501400,7.77050146484375,0.5923626663148402,0.2716752529323101,-0.6945302244998515,-0.1737740337848663,-0.1606814265251159,-0.5249022245407104
1772650385711474400,7.780474365234375,0.5208189405828714,0.4087058885753155,-0.8075399330861865,-0.2179564833641052,-0.1263797134160995,-0.6585376262664795
1772650385721446400,7.7904462890625,0.240526081430912,0.501009493741393,-0.7629705043237656,-0.2328528761863708,-0.1025164648890495,-0.7412670850753784
1772650385731419400,7.80041943359375,-0.1872393124014139,0.5692056626111268,-0.6020200273783877,-0.2207847535610199,-0.0979639291763305,-0.7349526882171631
1772650385741392400,7.810392333984375,-0.7640326536625623,0.7194529227018356,-0.4861367726497352,-0.1858336925506591,-0.077567309141159,-0.6131197214126587
1772650385751364400,7.8203642578125,-1.400776313495636,0.9267343216568232,-0.4368841910397634,-0.1389845162630081,-0.0611540749669075,-0.4009917080402374
1772650385761337300,7.83033740234375,-1.8348235640764237,1.0873293727606534,-0.3711494073148816,-0.0894223004579544,-0.0639820843935012,-0.1328319013118744
1772650385771309300,7.840309326171875,-2.012334678667784,1.1784493211001157,-0.2620470448980108,-0.0397608019411563,-0.0949848219752311,0.139308214187622
1772650385781282300,7.8502822265625,-1.875443743756413,1.1351923631757497,-0.1534920872308313,-0.0100079681724309,-0.1489492505788803,0.3665549457073211
1772650385791254300,7.860254150390625,-1.4763251832157374,1.085771037402749,-0.0527434924656525,0.0056466972455382,-0.2224672734737396,0.5295130014419556
1772650385801227300,7.870227294921875,-0.935005890917778,0.9985042573601008,0.0334702348601073,0.0055002234876155,-0.2779904305934906,0.6234599947929382
1772650385811199500,7.880199462890625,-0.4360732034504413,0.892286108610034,0.0613155059779062,0.0025638616643846,-0.2840982377529144,0.6517459750175476
