time,seconds_elapsed,acc_z,acc_y,acc_x,gyro_z,gyro_y,gyro_x
1772650330041810400,0.066810546875,0.6172463476806879,-0.3987771997570991,-0.0445220094241201,0.2188953161239624,-0.0656381994485855,0.1207164749503135
1772650330051782400,0.076782470703125,0.9434288513481616,-0.5410375527471304,-0.0598798836842179,0.2235515862703323,-0.094685822725296,0.0385009609162807
1772650330061755400,0.08675537109375,1.1411778673261403,-0.5800140568733215,-0.0594279021330177,0.2306747138500213,-0.1653936952352523,-0.0314514674246311
1772650330071728400,0.096728271484375,1.201880465570092,-0.5855600005626678,-0.0522299534529447,0.2466528713703155,-0.2396548688411712,-0.0830009430646896
1772650330081700400,0.106700439453125,1.1498983493983743,-0.5418108752071857,-0.145108070571348,0.2612724900245666,-0.2850223183631897,-0.1136858910322189
1772650330091673300,0.11667333984375,1.0047989735901357,-0.5454293579652905,-0.2647516642142087,0.2718489468097687,-0.3201944231986999,-0.1268805265426635
1772650330101645600,0.1266455078125,0.8919827417492866,-0.5250713373303413,-0.3904533157870173,0.2629294097423553,-0.346071183681488,-0.1156163588166236
1772650330111618600,0.13661865234375,0.7727063739836215,-0.4876052377671003,-0.4929909493934363,0.2368069887161255,-0.3163875937461853,-0.1013942807912826
1772650330121591300,0.14659130859375,0.5855962409198284,-0.5038993699640035,-0.6327388081058859,0.1953550726175308,-0.2226122468709945,-0.0865591913461685
1772650330131563500,0.1565634765625,0.4738748185783624,-0.5427072395250201,-0.7022364880282431,0.1584865301847458,-0.1130489930510521,-0.1039248704910278
1772650330141536500,0.16653662109375,0.5269874000847339,-0.4735425178840756,-0.648590311101824,0.134428784251213,0.0152230709791183,-0.154420867562294
1772650330151508200,0.17650830078125,0.6267044963777065,-0.4671896417260169,-0.5750671750556677,0.1400102376937866,0.1403671503067016,-0.2034240961074829
1772650330161481500,0.1864814453125,0.6683616178900003,-0.4398091751083731,-0.4447103911533951,0.176991730928421,0.1998067796230316,-0.2205073833465576
1772650330171453400,0.196453369140625,0.7936760967761277,-0.3229179489135742,-0.1735694642934948,0.2174997478723526,0.1965095102787017,-0.2182085365056991
1772650330181426400,0.206426513671875,0.9670575642168522,-0.2715960502162575,0.0607306552946567,0.2413686513900756,0.1573083996772766,-0.2181745618581771
1772650330191399400,0.2163994140625,1.08795130405128,-0.3345698082625866,0.1800632832922041,0.2498127520084381,0.12317705899477,-0.220428928732872
1772650330201371400,0.226371337890625,1.1866314585119486,-0.4817240707740187,0.1717678216990083,0.2581030428409576,0.1054192036390304,-0.2215886563062667
1772650330211344400,0.236344482421875,1.2022300096601246,-0.5635530436769127,0.1175132305506616,0.2641678750514984,0.0918903425335884,-0.2236587256193161
1772650330221316400,0.24631640625,1.226851240697503,-0.5965308919101953,0.0678820614192634,0.2699795961380005,0.0839122906327247,-0.2416087538003921
1772650330231289300,0.256289306640625,1.2325894920885565,-0.6678951694220304,0.0766393683705478,0.2693726420402527,0.0872601494193077,-0.275345116853714
1772650330241261600,0.266261474609375,1.1880793192327022,-0.8283674709290265,0.0530875931955873,0.2636573910713196,0.1370781511068344,-0.304271250963211
1772650330251234600,0.276234619140625,1.0126526096999644,-1.0164967179074882,-0.0941699835598468,0.2490901499986648,0.1970706433057785,-0.3151611983776092
1772650330261207300,0.286207275390625,0.8480763800054788,-1.1670914762616156,-0.1269890610348433,0.2339321374893188,0.2393128871917724,-0.3273949921131134
1772650330271179500,0.296179443359375,0.7888888624995947,-1.289733521068096,-0.1693276620052754,0.2014977633953094,0.2819594144821167,-0.346217930316925
1772650330281152500,0.306152587890625,0.7877215722858906,-1.45862118422091,-0.2497263098441064,0.1613328456878662,0.3440791070461273,-0.3859303891658783
1772650330291124200,0.316124267578125,0.7581482717990875,-1.6462269918471577,-0.2849221994530409,0.1232531070709228,0.4179764986038208,-0.4143223762512207
1772650330301097500,0.326097412109375,0.6295102014482021,-1.75953042268306,-0.3310757556017488,0.0916025042533874,0.4850338399410248,-0.4272887706756592
1772650330311070500,0.336070556640625,0.5683545987397431,-1.8358385863378643,-0.2583367556706071,0.0657274946570396,0.5230456590652466,-0.4116690456867218
1772650330321042200,0.346042236328125,0.5738029272735119,-1.8681798902332785,-0.1468392052128911,0.0496529936790466,0.5204693675041199,-0.3780805170536041
1772650330331015400,0.356015380859375,0.6004676468372344,-1.909982557696104,0.0281216403737664,0.0392187274992466,0.4734094142913818,-0.3251771032810211
1772650330340987400,0.3659873046875,0.6427846935629844,-1.8972849886864425,0.1914386637873947,0.0269056055694818,0.4114543795585632,-0.2589149177074432
1772650330350960400,0.37596044921875,0.6714449708580971,-1.923655401478708,0.3300644596673548,0.0153464209288358,0.3547162711620331,-0.1962512880563736
1772650330360932400,0.385932373046875,0.7267243750095367,-1.9291107442751525,0.3306950126558542,0.0041735772974789,0.3125264048576355,-0.1386134028434753
1772650330370905300,0.3959052734375,0.7376327225148678,-1.9026471002414824,0.2516482178173959,-0.0047168536111712,0.3088328540325165,-0.0944738984107971
1772650330380878300,0.40587841796875,0.7410171042561531,-1.8395637443408368,0.2073907045483589,-0.0111073348671197,0.3215178251266479,-0.0686750337481498
1772650330390850300,0.415850341796875,0.7983364898025989,-1.7168378206431865,0.1220857260979711,-0.0108114574104547,0.3240760564804077,-0.0557573735713958
1772650330400823300,0.4258232421875,0.8582242645323276,-1.6013170060187578,0.1251854456789791,-0.0011196006089448,0.3251087367534637,-0.0461851134896278
1772650330410795500,0.43579541015625,0.8285340596675872,-1.4628487387880682,0.1461957927428185,0.0102997682988643,0.3280094265937805,-0.0313017703592777
1772650330420768500,0.4457685546875,0.6851508401274681,-1.3219172963142394,0.1498370718546211,0.0285639483481645,0.3267566561698913,-0.0156896021217107
1772650330430740500,0.455740478515625,0.5371931522786617,-1.116966970655322,0.1782818067029118,0.0742568671703338,0.3277721405029297,0.0189884826540946
1772650330440713500,0.46571337890625,0.3755529760360717,-0.881053059194982,0.3015577654987573,0.1367937922477722,0.3378660678863525,0.0653810948133468
1772650330450686500,0.4756865234375,0.2013303815960884,-0.6930854325190187,0.3616891397260129,0.2048636674880981,0.3383265137672424,0.118130587041378
1772650330460658400,0.485658447265625,0.0540536617487669,-0.5746732803672552,0.3553286647833883,0.2721531689167022,0.3352406322956085,0.1942207962274551
1772650330470631400,0.49563134765625,-0.1267827978730201,-0.470619323913753,0.3346997182525694,0.3381548225879669,0.3338762819766998,0.2916368246078491
1772650330480603400,0.505603271484375,-0.2891197242081165,-0.427671870329976,0.2651490660339594,0.3882374167442322,0.3113211095333099,0.3900587260723114
1772650330490576400,0.515576416015625,-0.3567664425015449,-0.4259259034454822,0.1760521479547023,0.4187518954277038,0.2569729089736938,0.433240532875061
1772650330500549400,0.52554931640625,-0.1590162574797868,-0.4450064514905214,0.093578447407484,0.440036416053772,0.1966195702552795,0.413965106010437
1772650330510521300,0.535521240234375,0.1220522622197866,-0.5977019815161824,0.0377218278899788,0.4760130643844604,0.1885134279727935,0.3695595562458038
1772650330520494300,0.545494384765625,0.2296452064543962,-0.7150517651334405,0.0553888558752834,0.5006284713745117,0.2371423095464706,0.2924774289131164
1772650330530466300,0.55546630859375,0.2056920839369297,-0.7814145810961722,-0.0182348910011351,0.5233018398284912,0.3272940218448639,0.2113016098737716
1772650330540439300,0.565439208984375,0.0810498052239418,-0.888225727303326,-0.0732927613563835,0.5451348423957825,0.4681623876094818,0.1598271131515503
1772650330550412500,0.57541259765625,-0.0778033706486225,-1.0788973522409795,0.1548266968354582,0.5598669052124023,0.5484849214553833,0.1421618312597274
1772650330560384500,0.585384521484375,-0.0446329224526882,-1.3806363195255398,0.5983851414747536,0.5773848295211792,0.4865309596061706,0.1378882229328155
1772650330570357200,0.595357177734375,0.2121066271543502,-1.6020397673353552,1.097143495288491,0.5745403170585632,0.2986380457878113,0.101173885166645
1772650330580329500,0.60532958984375,0.5581693048119545,-1.7416159958079456,1.3830604779325424,0.5256138443946838,0.0568034686148166,-0.0090090185403823
1772650330590302500,0.615302490234375,0.8503887486010789,-1.8461679649114608,1.367439276561141,0.4371260702610016,-0.1652104258537292,-0.2124380320310592
1772650330600274400,0.6252744140625,0.8372522036522626,-1.9397554724082349,1.1836068499937653,0.3513746857643127,-0.3085722029209137,-0.458940178155899
1772650330610247400,0.635247314453125,0.378935604211688,-1.944836428934336,0.9472238597169518,0.3017418682575226,-0.3377644419670105,-0.6855725049972534
1772650330620219600,0.6452197265625,-0.4067161760628223,-1.748237459774315,0.7213251463145017,0.2886444926261902,-0.2920767068862915,-0.8376630544662476
1772650330630191900,0.65519189453125,-1.205095920485258,-1.4006485954627397,0.5731501624532044,0.2956832349300384,-0.1884733289480209,-0.8952245712280273
1772650330640164900,0.665164794921875,-1.9961358235388995,-1.0932023564472797,0.3342756476216018,0.3069291710853576,-0.0854488238692283,-0.8776838779449463
1772650330650136800,0.67513671875,-2.5723463964760303,-0.7692237925648688,-0.0489076771624386,0.3036194145679474,-0.0242025069892406,-0.840648889541626
1772650330660109800,0.68510986328125,-2.77811329921484,-0.4078738216653466,-0.382338252262026,0.3133746683597564,-0.0284692570567131,-0.7880651354789734
1772650330670081800,0.695081787109375,-2.8069851734340188,-0.0261219909891486,-0.5819912021651864,0.357420951128006,-0.0900359451770782,-0.6845113039016724
1772650330680054800,0.7050546875,-2.9055250426411625,0.2611053436011076,-0.5027801566757262,0.4362576007843017,-0.1859635561704635,-0.4811156392097473
1772650330690027800,0.71502783203125,-3.103877869731188,0.5820765423610806,-0.3280029970929026,0.5345112085342407,-0.2337286919355392,-0.1560483276844024
1772650330699999700,0.724999755859375,-3.3515058921217915,0.8858867629617452,-0.1391504042759537,0.6397595405578613,-0.1651945114135742,0.2651860117912292
1772650330709972700,0.73497265625,-3.451693528535962,1.1367255640923977,-0.0449376044876873,0.7260337471961975,-0.0165962558239698,0.7061234712600708
1772650330719944700,0.74494482421875,-3.1643308771282435,1.2799395645454523,0.0058097091920673,0.7664918303489685,0.142911210656166,1.0681427717208862
1772650330729917700,0.754917724609375,-2.464207508796453,1.2415814845785498,-0.0978293828502297,0.7467735409736633,0.2645889222621918,1.322321534156799
1772650330739890700,0.764890625,-1.4223229593932627,0.9677709731832146,-0.0775027802668511,0.7008350491523743,0.359662115573883,1.46894633769989
1772650330749863000,0.77486279296875,-0.351439694520831,0.7440966578319669,0.1938087539196014,0.6592192053794861,0.3953476846218109,1.5087742805480957
1772650330759835600,0.784835693359375,0.6727309190154075,0.7109285477235913,0.6097397714428603,0.622830331325531,0.3506480157375335,1.45082688331604
1772650330769808000,0.794807861328125,1.548977162450552,0.7394570153325796,1.0286091805055737,0.6079911589622498,0.2091257870197296,1.3110122680664062
1772650330779780900,0.80478076171875,2.169314461883902,0.7385770176276564,1.4200639284200969,0.6055325865745544,0.0247921049594879,1.1307454109191897
1772650330789752800,0.8147529296875,2.5023990000247958,0.6193354289144277,1.8146701261028648,0.6076130270957947,-0.1618835031986236,0.9152677059173584
1772650330799725800,0.824725830078125,2.5559786145210266,0.5336079872682691,1.95915137001276,0.5998693704605103,-0.3297278881072998,0.6798591017723083
1772650330809698800,0.83469873046875,2.4095757548987864,0.5719365488797425,1.6944465406149625,0.569105863571167,-0.441563069820404,0.4171214699745178
1772650330819670800,0.8446708984375,2.038743962165713,0.6749950645551085,1.1597170019708574,0.5187246799468994,-0.4722773432731628,0.1463970690965652
1772650330829643800,0.854643798828125,1.3709773875594138,0.6896846841648221,0.5500513186775148,0.43702232837677,-0.4291737973690033,-0.1409481614828109
1772650330839615700,0.86461572265625,0.7708008326232433,0.6248685131222009,0.007619388962537,0.3512105345726013,-0.268661618232727,-0.3582849204540252
1772650330849589000,0.874589111328125,0.1174707796484231,0.5894526240870356,-0.4930453829944133,0.2637012004852295,-0.0492735989391803,-0.4597279131412506
1772650330859560700,0.884560791015625,-0.5746352864444255,0.7482377031594515,-0.8424278527244925,0.1833217293024063,0.1541269421577453,-0.4491552114486694
1772650330869533700,0.89453369140625,-0.9762801505923272,1.0670517238855362,-1.045145889286697,0.115877166390419,0.2833214104175567,-0.3482938408851623
1772650330879507000,0.9045068359375,-1.01368662892282,1.3420710265487432,-1.045220415827632,0.0568787083029747,0.3343332409858703,-0.1965150684118271
1772650330889478700,0.914478759765625,-0.7079635604381561,1.4528297413378952,-0.8080775470942259,0.014431120827794,0.3116002380847931,-0.0398077443242073
1772650330899451600,0.92445166015625,-0.2996417027443647,1.394373752976954,-0.4481520560398697,-0.0171990171074867,0.2575792670249939,0.0969615206122398
1772650330909423900,0.934423828125,0.1370844116568565,1.3439154853716493,-0.1696811516180634,-0.023936016485095,0.1864973753690719,0.1863760948181152
1772650330919396900,0.94439697265625,0.6515326481640339,1.3814470513865351,0.1068994090124964,-0.00655173137784,0.1550175249576568,0.2257390171289444
1772650330929369600,0.95436962890625,1.117444525039196,1.4100833632841705,0.2933464019924402,0.0337336398661136,0.1553160697221756,0.210039421916008
1772650330939341800,0.964341796875,1.4829524924010038,1.316682610531151,0.405899891243875,0.0819940716028213,0.1819211691617965,0.1516392529010772
1772650330949314800,0.974314697265625,1.7911457503914832,1.1629969004243612,0.4285509181868284,0.1301123350858688,0.2392483800649643,0.07809579372406
1772650330959286800,0.984286865234375,1.9229992756575345,0.9336296341285109,0.3973630221102386,0.1707192659378051,0.3067735731601715,0.0068957316689193
1772650330969259800,0.994259765625,1.9412357740938664,0.7334820325762033,0.2849582206144929,0.1958190202713012,0.3470496237277984,-0.0416789948940277
1772650330979231700,1.004231689453125,1.9228028763026,0.5769345032975077,0.0906195976018905,0.1938211321830749,0.325430691242218,-0.0866371989250183
1772650330989205000,1.014205078125,1.9149387187987563,0.4034928301021456,0.0543224687527865,0.1562476456165313,0.2348118424415588,-0.1121508181095123
1772650330999177700,1.024177734375,1.7452847474485635,0.1878431235134601,0.19427754047513,0.1160186305642128,0.1158976033329963,-0.0908569619059562
1772650331009149700,1.034149658203125,1.452654969292879,-0.0049871407628059,0.3178110542286187,0.0828644037246704,0.0097349546849727,-0.0388659313321113
1772650331019123000,1.044123046875,1.1658341696769,-0.0896031140357255,0.278707489656657,0.0486598275601863,-0.0671358630061149,0.0100811030715703
1772650331029094700,1.0540947265625,0.9715291566729544,-0.1490320390820503,0.2124208076700568,0.0269353576004505,-0.1073333472013473,0.029775446280837
1772650331039067600,1.064067626953125,0.9070674981564284,-0.2897600679382681,0.1833463966161012,0.0036929929628968,-0.1301082670688629,0.0086093749850988
1772650331049041000,1.074041015625,0.9855752176821232,-0.4531953109040856,0.1484183641631156,-0.0343577191233634,-0.1594030410051345,-0.0512536913156509
1772650331059012900,1.084012939453125,1.0331529614150523,-0.6110527537375688,0.1775524695150554,-0.0706843882799148,-0.206608772277832,-0.1167246326804161
1772650331068985600,1.093985595703125,0.9651450085937976,-0.7015311893031001,0.1892200378898531,-0.1043091863393783,-0.2299782782793045,-0.1747828722000122
1772650331078957800,1.103957763671875,0.7856161244392394,-0.7051689612835645,0.1855680912535637,-0.1259839981794357,-0.2203406244516372,-0.2194482535123825
1772650331088930800,1.113930908203125,0.5344979218453169,-0.6746437668994069,0.1449205121099948,-0.1440897732973098,-0.1922019273042678,-0.2492953687906265
1772650331098902800,1.12390283203125,0.2769166607171296,-0.6471764987811446,0.0531005988076329,-0.1625299155712127,-0.1456508338451385,-0.2637307941913605
1772650331108875800,1.133875732421875,0.0477864180475473,-0.6652461162179708,-0.0074734046205878,-0.1783685237169265,-0.1094579473137855,-0.2459549903869629
1772650331118848800,1.143848876953125,-0.1300362467110156,-0.7428945885658264,0.0042580227706581,-0.2000128179788589,-0.1001428663730621,-0.1941607892513275
1772650331128821000,1.153821044921875,-0.2599678640037774,-0.7961986009910702,0.0860273013755679,-0.2178770303726196,-0.1122730299830436,-0.1176303252577781
1772650331138793700,1.163793701171875,-0.3207031954735517,-0.7687859856694936,0.1632920351028442,-0.2273419350385666,-0.1382946521043777,-0.0325793251395225
1772650331148765700,1.173765625,-0.278823955643177,-0.7353367205321788,0.2516026251100003,-0.234704241156578,-0.1536219418048858,0.0445221178233623
1772650331158739000,1.183739013671875,-0.2474117492914199,-0.7765399607971311,0.372288713543117,-0.2322801649570465,-0.1640409380197525,0.1175940930843353
1772650331168710700,1.193710693359375,-0.1522054084211588,-0.8039803409084677,0.4708434149932116,-0.231047123670578,-0.1979821175336837,0.1606251895427703
1772650331178683600,1.20368359375,0.0470341383755207,-0.8166480993017554,0.5712568960525095,-0.2226863801479339,-0.244372934103012,0.1724369376897812
1772650331188657000,1.213656982421875,0.2677829216688871,-0.8321011044993996,0.6806803436499088,-0.2102584838867187,-0.2843374013900757,0.1548915058374405
1772650331198628900,1.22362890625,0.4290922585219144,-0.8507938222706317,0.752242554886639,-0.205143928527832,-0.3183028995990753,0.1073375418782234
1772650331208601600,1.2336015625,0.5064478854030371,-0.8575771988004446,0.7638020597770809,-0.1992897689342498,-0.3293318450450897,0.0454470105469226
1772650331218573800,1.24357373046875,0.467025391075015,-0.8348463115543127,0.7032856317549944,-0.1956673562526703,-0.3050232529640198,-0.0255173705518245
1772650331228546800,1.253546875,0.3494038047790527,-0.8571174723342061,0.6309963483527302,-0.1837092339992523,-0.2706245481967926,-0.0966147184371948
1772650331238519800,1.263519775390625,0.1955623195886612,-0.8737856985405087,0.587784690874815,-0.1714715510606765,-0.2579622268676758,-0.135846272110939
1772650331248491800,1.27349169921875,-0.0496206477373838,-0.8813628557965159,0.587422871825099,-0.1689636409282684,-0.2616666853427887,-0.1224364712834358
1772650331258464800,1.28346484375,-0.369466934120655,-0.905723390071094,0.6099762836124748,-0.1774493306875229,-0.2829003930091858,-0.0701770186424255
1772650331268437000,1.29343701171875,-0.6453577589213848,-0.9151365305826068,0.578711815168336,-0.1897637844085693,-0.2930643558502197,0.00947040412575
1772650331278409700,1.30340966796875,-0.8696955066174268,-0.9366577497780324,0.6083605920441448,-0.1984822452068328,-0.2968579828739166,0.1192682683467865
1772650331288381700,1.313381591796875,-1.0810533612310886,-1.0154799420803784,0.8054599850069731,-0.1997086256742477,-0.3248528838157654,0.2475394159555435
1772650331298355000,1.32335498046875,-1.0579162312716246,-1.0769567395672202,1.0195141660325229,-0.225924402475357,-0.3965093791484833,0.3222900927066803
1772650331308327700,1.33332763671875,-0.7411842775166034,-0.962816857907176,1.0913896079368888,-0.2647764682769775,-0.4928209781646728,0.3272547423839569
1772650331318299600,1.343299560546875,-0.3713508481711149,-0.9113897452697156,1.051041742392257,-0.2945494055747986,-0.5759443640708923,0.2432549446821212
1772650331328273000,1.35327294921875,-0.0458066424071788,-0.944726489943266,1.0246781977321953,-0.3231794536113739,-0.6397350430488586,0.0684586316347122
1772650331338244600,1.36324462890625,0.2224123325914144,-0.9412912547975778,0.8680426248438656,-0.3625055253505707,-0.669710099697113,-0.1868722289800644
1772650331348217600,1.373217529296875,0.3618453532010316,-0.8196949196517467,0.501996532017365,-0.4059579372406006,-0.6457017064094543,-0.508658766746521
1772650331358190800,1.38319091796875,0.169859138533473,-0.6354033511400222,-0.019281185183674,-0.4359540045261383,-0.5222036838531494,-0.8152176737785339
1772650331368162800,1.393162841796875,-0.4708791438937187,-0.4502542890161276,-0.5187735523603856,-0.4515598714351654,-0.3372181355953216,-1.0194523334503174
1772650331378135800,1.4031357421875,-1.2412012530893086,-0.2169908920645713,-0.8826903780732304,-0.4618739485740661,-0.1470465809106826,-1.0874196290969849
1772650331388107800,1.413107666015625,-2.001235192504525,0.0791238055974245,-1.139229582802579,-0.4736688137054443,0.0105137545615434,-1.0055564641952517
1772650331398080800,1.423080810546875,-2.6780805611014364,0.3560723227575421,-1.3413875743292272,-0.4657050371170044,0.1294564008712768,-0.7791600227355957
1772650331408052700,1.433052734375,-3.130622668793797,0.6090545656576752,-1.2802061065271495,-0.4398619830608368,0.199229896068573,-0.4372943043708801
1772650331418025700,1.443025634765625,-3.2700241252213718,0.8085913418352604,-1.1095947613868862,-0.4038903415203094,0.1987406313419342,-0.0418737567961216
1772650331427998700,1.452998779296875,-3.001080343079567,0.9591188801720738,-0.912323153662309,-0.3836793601512909,0.1552046090364456,0.3447099030017853
1772650331437971000,1.462970947265625,-2.455880994477868,0.9959867215812206,-0.6856869197655469,-0.3843337297439575,0.10385213047266,0.6608385443687439
1772650331447943700,1.472943603515625,-1.7199392937898634,0.9529533432796596,-0.4691554619062691,-0.3801341950893402,0.0602455288171768,0.8798017501831055
1772650331457916000,1.482916015625,-0.8799614645659923,0.9545768528282642,-0.2477908117368817,-0.3660041391849518,0.0130269788205623,0.996316373348236
1772650331467889000,1.492888916015625,-0.1104354741841554,1.006726726782322,-0.0203268217790871,-0.3386262953281402,-0.0131364464759826,1.0310828685760498
1772650331477862000,1.50286181640625,0.4889607440292834,1.0667287755414845,0.1793083732716739,-0.3067241311073303,-0.0251032430678606,1.0115967988967896
1772650331487833900,1.512833740234375,0.9354209014594554,1.109771798454225,0.3532525160964578,-0.2688563764095306,-0.0586960911750793,0.950530469417572
1772650331497806800,1.522806884765625,1.2192577168285843,1.0982838974952698,0.5130117739632726,-0.2206948697566986,-0.1153504997491836,0.8703691959381104
1772650331507778800,1.53277880859375,1.4266203643262385,1.0187871669322253,0.6006580548427999,-0.1800065636634826,-0.1770836412906646,0.7615271210670471
1772650331517751800,1.542751708984375,1.5652011520206928,0.9373398868232964,0.5512981769334524,-0.1551116555929184,-0.2507362961769104,0.6257921457290649
1772650331527723800,1.552723876953125,1.654236110779643,0.8327703820630907,0.3317568697337061,-0.1491592228412628,-0.30998095870018,0.4598356187343597
1772650331537696800,1.56269677734375,1.6489444341123105,0.7102317976310849,-0.0348371392991393,-0.1723445802927017,-0.3430225253105163,0.2576857507228851
1772650331547669800,1.572669677734375,1.566411112332344,0.6123474697232246,-0.5493154786836355,-0.2198497802019119,-0.3464281857013702,0.03007522970438
1772650331557641700,1.582641845703125,1.3754711918473244,0.5124363121628761,-1.141058917121589,-0.2909778356552124,-0.2994191646575928,-0.2072235643863678
1772650331567614700,1.59261474609375,1.064349479189515,0.3917088688060641,-1.6123361204221844,-0.3726018369197845,-0.181897833943367,-0.4066703617572784
1772650331577587000,1.6025869140625,0.6458686310529709,0.3084443101420998,-1.8245650587819515,-0.4423115253448486,-0.0162727329879999,-0.5202189087867737
1772650331587559700,1.6125595703125,0.1384451786160469,0.3410314054921269,-1.832353666831553,-0.4968085885047912,0.1288735419511795,-0.5457679033279419
1772650331597532000,1.622531982421875,-0.2058627643287181,0.5244909070938826,-1.59399265448004,-0.5163900256156921,0.212376207113266,-0.4968964159488678
1772650331607505000,1.6325048828125,-0.3351946621626615,0.702018096037209,-1.1379600012581794,-0.4876260161399841,0.2298297733068466,-0.3945250511169433
1772650331617478400,1.642478515625,-0.2486269703000783,0.8216720649436116,-0.5370222526911645,-0.4248067140579223,0.1943915784358978,-0.2823947966098785
1772650331627450000,1.6524501953125,0.0563724600851535,0.8735305547356605,-0.0035394992377609,-0.3587041199207306,0.122600220143795,-0.1920755803585052
1772650331637423400,1.66242333984375,0.3378168273597955,0.8902323909506201,0.3538271741792559,-0.2813560366630554,0.0532925985753536,-0.1291610300540924
1772650331647395300,1.672395263671875,0.5694540844142436,0.8718246276006102,0.577198707191646,-0.1921558380126953,0.0088441716507077,-0.0924118012189865
1772650331657368300,1.682368408203125,0.7019757182002068,0.8177423242792486,0.6658492697428912,-0.1057847291231155,0.0001047421246767,-0.0813130736351013
1772650331667341300,1.69234130859375,0.7828840691268444,0.6968757647126913,0.6532251312956213,-0.0246600490063428,0.0024744230322539,-0.0784083679318428
1772650331677313300,1.702313232421875,0.8220347607761621,0.6094745446354151,0.5665344706404953,0.0379751063883304,0.0101383980363607,-0.0901563167572021
1772650331687286300,1.712286376953125,0.8417623745530843,0.5113736513674259,0.3854007085725665,0.0827550962567329,0.0229114517569541,-0.110414981842041
1772650331697258200,1.72225830078125,0.7824573681473731,0.3339540144518018,0.1747200225681066,0.1133545115590095,0.0449077561497688,-0.123695395886898
1772650331707231200,1.732231201171875,0.6966068846434355,0.1518774916410446,0.0451543159782886,0.1262556612491607,0.0676956251263618,-0.1296702027320861
1772650331717203500,1.742203369140625,0.5777560488134622,-0.0277913855060935,-0.1053332556743174,0.1238570287823677,0.0910624861717224,-0.1163379251956939
1772650331727176400,1.752176513671875,0.50250703882277,-0.1297498309850692,-0.2709780644483864,0.1086879223585128,0.114506296813488,-0.0928813368082046
1772650331737149200,1.762149169921875,0.5243354242712259,-0.189359665556252,-0.3449977518398314,0.0929854661226272,0.1116998046636581,-0.0793668553233146
1772650331747121400,1.772121337890625,0.6580342851430178,-0.2588356451034546,-0.372398238332197,0.0712340995669364,0.0829208865761756,-0.089084193110466
1772650331757094400,1.782094482421875,0.8175152375251055,-0.3075894468784332,-0.3325871100127697,0.0556131079792976,0.0698892474174499,-0.1089265346527099
1772650331767066400,1.79206640625,0.8587205236166715,-0.3468979594379663,-0.2887315286081284,0.0368490070104599,0.0789234936237335,-0.1355030089616775
1772650331777039400,1.802039306640625,0.9047048606783152,-0.3613663375124335,-0.2600058579266071,0.0237120874226093,0.0828741416335105,-0.18620565533638
1772650331787012400,1.812012451171875,0.9768705177009104,-0.3170896811515092,-0.2533139590725302,0.0212145745754241,0.0983255356550216,-0.2422518879175186
1772650331796984300,1.821984375,0.9704325936079023,-0.2932265750050544,-0.1666631189711392,0.0410598814487457,0.1074736192822456,-0.2806873917579651
1772650331806957300,1.831957275390625,0.9072983843028544,-0.2485278938397765,-0.0397558910008519,0.0642781183123588,0.106166273355484,-0.3144610822200775
1772650331816929300,1.84192919921875,0.8392910160034894,-0.1757899898871779,-0.0179331315755844,0.0835616514086723,0.1154144555330276,-0.3279385566711426
1772650331826902300,1.85190234375,0.6719254478514194,-0.2153986544370651,-0.074346508193016,0.0918044000864029,0.1459699720144271,-0.3370412588119507
1772650331836874200,1.861874267578125,0.4695183769345283,-0.2941191399306058,-0.1470565742906183,0.0988542065024375,0.1711822748184204,-0.3246679008007049
1772650331846847200,1.87184716796875,0.2059340759992599,-0.3421513494327664,-0.1704783664103597,0.1254237741231918,0.2067426741123199,-0.2871223986148834
1772650331856820200,1.8818203125,-0.0168657946050167,-0.3257350521609187,-0.1940511843733489,0.1604580730199813,0.2389898002147674,-0.2276734858751297
1772650331866792400,1.89179248046875,-0.0803600693941116,-0.3417223103657364,-0.2337798951063305,0.186318963766098,0.2373026907444,-0.1641429811716079
1772650331876765200,1.90176513671875,-0.0617699352145195,-0.4107224890947342,-0.2801365726117044,0.193010002374649,0.2153324484825134,-0.1051195785403251
1772650331886737400,1.9117373046875,0.0184966106772422,-0.5633005302205681,-0.3129951053142547,0.1929231882095337,0.2091507017612457,-0.0438556894659996
1772650331896710400,1.92171044921875,0.1147895777404308,-0.6736991795256734,-0.3884758051689714,0.1841576546430587,0.2173300683498382,-0.0012970441021025
1772650331906682400,1.931682373046875,0.2724514980018139,-0.6895303703859448,-0.489376485223323,0.1773362308740615,0.2302916944026947,0.0158667620271444
1772650331916655400,1.9416552734375,0.490121604502201,-0.6835229466646909,-0.5510486591517925,0.1779752224683761,0.2488274574279785,0.0046699671074748
1772650331926628400,1.95162841796875,0.6940572001606226,-0.7607552394270897,-0.5063739433839917,0.1837561577558517,0.257640391588211,-0.0281985010951757
1772650331936600300,1.961600341796875,0.8514829735785723,-0.8427586921140551,-0.4028387501075863,0.1973917782306671,0.2645197212696075,-0.0724394395947456
1772650331946573300,1.9715732421875,0.9354331764191388,-0.9016972032949327,-0.3557448443688452,0.2074398845434188,0.2761859595775604,-0.1272688657045364
1772650331956545300,1.981545166015625,0.9335463397592304,-0.9687442021295428,-0.3416230877749621,0.2168933153152465,0.2917134463787079,-0.1861699521541595
1772650331966518500,1.9915185546875,0.8945470392793416,-1.0296405693799258,-0.3238169435799121,0.2220537215471267,0.2934820652008056,-0.2454111725091934
1772650331976491500,2.001491455078125,0.8561579796522856,-1.1538751440748571,-0.2462579030811786,0.2315389066934585,0.2777819335460663,-0.3044210076332092
1772650331986463200,2.011463134765625,0.7583540235042572,-1.2392334601476789,-0.0968738356910645,0.2361264675855636,0.2107456475496292,-0.3454369008541107
1772650331996436500,2.0214365234375,0.5921060612052679,-1.3317963007718323,-0.0207683550015091,0.2441771626472473,0.1607509851455688,-0.3539570569992065
1772650332006408400,2.031408447265625,0.2759533686429262,-1.3767664923548697,0.0563357813365757,0.2547097206115722,0.1024751514196395,-0.3192440867424011
1772650332016381200,2.041381103515625,-0.0652244595825672,-1.399177646127343,0.0438771356493234,0.2752325534820556,0.0575642101466655,-0.2601669728755951
1772650332026353400,2.051353515625,-0.3946931453138589,-1.3851602266907692,0.0131217857711017,0.2908892929553985,0.0219561494886875,-0.1829605996608734
1772650332036326400,2.061326416015625,-0.615703794413805,-1.3376318750575185,-0.0420236167371273,0.3051320612430572,-0.0132701592519879,-0.118742436170578
1772650332046299100,2.071299072265625,-0.6627502077490091,-1.3318494922637938,-0.128700321932137,0.3067715167999267,-0.0355072878301143,-0.0744897574186325
1772650332056271400,2.081271240234375,-0.6387614293962717,-1.36637778480947,-0.1839941930003464,0.3112123012542724,-0.0537343025207519,-0.0505708716809749
1772650332066244400,2.091244384765625,-0.6656798314601182,-1.4324430791303515,-0.1818425679244101,0.3084223866462707,-0.0642354115843772,-0.0177468806505203
1772650332076216300,2.10121630859375,-0.8910632888168096,-1.4712030178964135,-0.1157886717803776,0.3024760782718658,-0.0228062160313129,0.0330169647932052
1772650332086189300,2.111189208984375,-1.2703139503270386,-1.4606640882253643,-0.1414868843995034,0.2973649203777313,0.0822869166731834,0.0936118736863136
1772650332096161300,2.121161376953125,-1.6709078441172838,-1.3780810820847749,-0.2412695932745933,0.3067237138748169,0.222654715180397,0.1690561473369598
1772650332106134500,2.131134521484375,-1.961182583579421,-1.2897490108981728,-0.1216547873347997,0.334098607301712,0.3426554203033447,0.261803388595581
1772650332116107300,2.141107177734375,-2.044006997260451,-1.3149807750493288,0.3275948546834289,0.3766088783740997,0.3758208155632019,0.3615391850471496
1772650332126079200,2.151079345703125,-1.8846569777816533,-1.316356739577651,0.8181503205582499,0.4240562915802002,0.3685213327407837,0.445485770702362
1772650332136052500,2.161052490234375,-1.5894447819173334,-1.1634329537540673,1.0977598736211658,0.4711244702339172,0.3398512005805969,0.4813996255397796
1772650332146024200,2.171024169921875,-1.1346055031985045,-1.078018231318891,1.1878963638812303,0.4819451868534088,0.3033986389636993,0.4449191391468048
1772650332155997200,2.1809970703125,-0.6505693560898304,-1.1053130654796957,1.1208417662620545,0.4516606330871582,0.2468569129705429,0.3361311256885528
1772650332165970400,2.190970458984375,-0.217782334703207,-1.1086322730302811,0.9374183588869868,0.3837633430957794,0.1769044548273086,0.1691320240497589
1772650332175942400,2.2009423828125,0.114776133736968,-1.010758466516435,0.7493510712288319,0.3164194822311401,0.1067443713545799,-0.0139393657445907
1772650332185915100,2.2109150390625,0.2558884857356548,-0.7506029709860682,0.5688391673862934,0.2749999165534973,0.0741123929619789,-0.1905167996883392
1772650332195887400,2.220887451171875,0.0268202023863792,-0.3721688865557312,0.3841879717819392,0.2716905474662781,0.0903142318129539,-0.3182348608970642
1772650332205860400,2.2308603515625,-0.417300698441267,0.0790446028813719,0.2379457095488905,0.2841821014881134,0.144096240401268,-0.3742382228374481
1772650332215832300,2.240832275390625,-0.9249848476409912,0.5087105696380139,-0.0288629602603614,0.2881770431995392,0.2087061107158661,-0.3658473193645477
1772650332225805300,2.250805419921875,-1.360906075400114,0.9018865883871912,-0.3657540510773658,0.2845668494701385,0.3051935136318207,-0.3094799220561981
1772650332235778300,2.2607783203125,-1.6930799284368752,1.2583926263868808,-0.6270771290823817,0.2948510646820068,0.4230415523052215,-0.204882726073265
1772650332245750500,2.27075048828125,-1.9323679925054311,1.5410606902375816,-0.6420908660799265,0.3231018781661987,0.5336428880691528,-0.0313964150846004
1772650332255723300,2.28072314453125,-2.054104028382897,1.6844705055236815,-0.4288350688904523,0.3637254536151886,0.59745192527771,0.1841787993907928
1772650332265695200,2.2906953125,-1.9009961181640624,1.755893819746375,-0.0661884823091328,0.3887847363948822,0.5849291682243347,0.4004152119159698
1772650332275668500,2.30066845703125,-1.4482465052008628,1.7897300383746624,0.2704902809314429,0.3927984535694122,0.5177751779556274,0.5634585618972778
1772650332285641500,2.310641357421875,-0.8592471778392792,1.7796280388161538,0.5378451864466071,0.4003857970237732,0.4140554368495941,0.6487287282943726
1772650332295613200,2.32061328125,-0.344072965145111,1.7154849447295069,0.7818092795021832,0.4206098616123199,0.3194323480129242,0.666492760181427
1772650332305586400,2.33058642578125,0.0243143570452928,1.6346847303524612,1.0072096879936754,0.4487810432910919,0.2552962303161621,0.6311115622520447
1772650332315558400,2.340558349609375,0.2228483859211206,1.5532573239877818,1.1365696428783236,0.4825847148895263,0.2152139693498611,0.5656349658966064
1772650332325531100,2.35053125,0.3373655764609575,1.5247729877814649,1.1682609584324062,0.5217094421386719,0.1867285370826721,0.4860307276248932
1772650332335503400,2.36050341796875,0.4055892178595066,1.5087658558323978,1.1720365314483645,0.5508943200111389,0.1595215648412704,0.3945408165454864
1772650332345476400,2.370476318359375,0.4963029234856367,1.4600418646737932,1.072785737492889,0.5630186796188354,0.0945188626646995,0.279065877199173
1772650332355449300,2.380449462890625,0.6597779139399528,1.43634359370023,0.7779245470233261,0.5438618659973145,0.022616010159254,0.1385418623685836
1772650332365421300,2.39042138671875,0.7020283251702785,1.3787366233840583,0.2927352843567729,0.4891749322414398,-0.0008387160487473,-0.0005795519682578
1772650332375394300,2.400394287109375,0.5152344184488058,1.2547475478827952,-0.207601132428646,0.4170045554637909,0.0076928427442908,-0.1043663844466209
1772650332385366500,2.410366455078125,0.2170809084355831,1.1916899109452963,-0.6337419937990606,0.327451229095459,0.0312554277479648,-0.1559203863143921
1772650332395339300,2.42033935546875,-0.1594073026239872,1.200535772962868,-1.0140773818060755,0.2320762574672699,0.0877195671200752,-0.1302797794342041
1772650332405311200,2.430311279296875,-0.5638952812433242,1.1829627068713306,-1.3268078448347749,0.1341438293457031,0.1584675014019012,-0.0393080674111843
1772650332415284500,2.440284423828125,-0.7191834581106901,1.1848425292685627,-1.4143287457689642,0.0529056973755359,0.1818650513887405,0.0723292008042335
1772650332425257500,2.450257568359375,-0.4657978951066732,1.2435051461175084,-1.326581342602521,-0.0025314637459814,0.1501385569572448,0.1622910350561142
1772650332435229200,2.460229248046875,0.00796352622509,1.291001933568716,-1.1154065894708036,-0.0313363261520862,0.1024404391646385,0.2034560590982437
1772650332445202400,2.470202392578125,0.570596824708581,1.269999769811332,-0.8562899354688823,-0.0351843275129795,0.0611273497343063,0.2030643075704574
1772650332455174400,2.48017431640625,1.0573527521699666,1.1835779161602258,-0.6371145389720797,-0.0294631719589233,0.0219470951706171,0.1490791290998459
1772650332465147100,2.490147216796875,1.4087094445824622,1.1279819934055209,-0.5189249435298144,-0.0189625956118106,0.00885552726686,0.0790326669812202
1772650332475120400,2.500120361328125,1.602017847764492,1.065059965546429,-0.4754765546865761,-0.0066709690727293,0.0170144103467464,0.0051192501559853
1772650332485092400,2.51009228515625,1.6126497164160012,0.9159501850530504,-0.4622910560294985,0.0042921993881464,0.0220320709049701,-0.0423047244548797
1772650332495065300,2.5200654296875,1.5547235971480606,0.7141556930765509,-0.432471525696665,-0.000337173230946,0.0149917379021644,-0.0774544551968574
1772650332505037300,2.530037353515625,1.4339011689841747,0.5440928486645221,-0.3805382171027362,-0.0150601929053664,-0.0085300989449024,-0.0877220034599304
1772650332515010300,2.54001025390625,1.3083295004665851,0.3771270934849977,-0.3208446497708558,-0.0235911682248115,-0.0312412921339273,-0.0729866921901702
1772650332524982500,2.549982421875,1.1486714379519225,0.280985517591238,-0.291382992964983,-0.0344006717205047,-0.0683937221765518,-0.0511767342686653
1772650332534955300,2.559955322265625,1.0783815116733313,0.2064005244672298,-0.227030932302773,-0.0527658239006996,-0.1386125534772873,-0.0494096763432025
1772650332544928300,2.56992822265625,1.0826076049357651,0.1206423954218626,-0.1849222676306962,-0.0688497200608253,-0.2022306770086288,-0.0659931823611259
1772650332554900500,2.579900390625,1.0282780488550662,0.0146484108164906,-0.1769846064992249,-0.0832314863801002,-0.2299800664186477,-0.0935080200433731
1772650332564873200,2.589873291015625,0.941598713311553,-0.1095513848260045,-0.1711513703010976,-0.1075171157717704,-0.2545919120311737,-0.1311760246753692
1772650332574845400,2.599845458984375,0.8368471299827098,-0.1758747455611825,-0.2497499829806387,-0.1489926129579544,-0.2760532200336456,-0.1758646368980407
1772650332584818400,2.609818359375,0.6960644483298063,-0.2744651759117841,-0.3968152520343661,-0.1982885152101516,-0.256716787815094,-0.2076633125543594
1772650332594790100,2.6197900390625,0.47462534468472,-0.3707552203655243,-0.4686236200518905,-0.2425211519002914,-0.2329911291599273,-0.2266904264688491
1772650332604763400,2.629763427734375,0.3370060954988003,-0.4163584491550922,-0.4559624375298619,-0.2872188687324524,-0.2245667576789856,-0.2480817437171936
1772650332614736400,2.639736328125,0.2690349675565958,-0.4101289071157574,-0.4078611083142459,-0.3213708698749542,-0.2394530028104782,-0.2618503272533417
1772650332624707600,2.64970751953125,0.2112806977242231,-0.4244835956826805,-0.3267297622866928,-0.3503788411617279,-0.2378367334604263,-0.253532737493515
1772650332634680600,2.6596806640625,0.1219651684582233,-0.4625292486995458,-0.2233639342278242,-0.372520387172699,-0.2400576919317245,-0.218512937426567
1772650332644652500,2.669652587890625,-0.0179530053198337,-0.4040487104192375,-0.14350275426656,-0.3914195001125335,-0.2505265772342682,-0.1560516953468322
1772650332654625500,2.67962548828125,-0.0768166976988315,-0.3461921492561697,-0.0128759943164885,-0.3967903554439544,-0.2657629549503326,-0.0944945737719535
1772650332664598500,2.6895986328125,0.0279664498120546,-0.309286898446083,0.1616010132759809,-0.3847403526306152,-0.2842561900615692,-0.0438614897429943
1772650332674570500,2.699570556640625,0.1762736817508935,-0.2959960397183895,0.3224005009107291,-0.3609606325626373,-0.2991044819355011,-0.0167448613792657
1772650332684543500,2.70954345703125,0.3497235382527113,-0.3325470702633261,0.4327461048543453,-0.3373730182647705,-0.3073006272315979,-0.0010655012447386
1772650332694515500,2.719515380859375,0.4996376208662986,-0.3956412398189306,0.4365576259665191,-0.3175242245197296,-0.3150665462017059,0.0001650460762903
1772650332704488400,2.729488525390625,0.5737427215188742,-0.4705287230208516,0.4258015464134514,-0.3051423728466034,-0.3193467855453491,-0.0022331303916871
1772650332714460700,2.739460693359375,0.611695727816224,-0.5738102337971329,0.4035211794137954,-0.2902020812034607,-0.3178741335868835,0.0045507103204727
1772650332724433700,2.74943359375,0.5961708264261484,-0.6819885767042636,0.4447324568547308,-0.2754383087158203,-0.3200424611568451,0.0238658171147108
1772650332734406400,2.759406494140625,0.5267863245546818,-0.7364373752504587,0.4953580438509583,-0.2609306573867798,-0.3269747793674469,0.059024803340435
1772650332744378600,2.769378662109375,0.411940632712841,-0.818537858571112,0.5215605527304112,-0.2578206062316894,-0.3273106217384338,0.1080091223120689
1772650332754351600,2.7793515625,0.315527254140377,-0.8779948406681418,0.5073289060212671,-0.2503026723861694,-0.3294347822666168,0.163527250289917
1772650332764323600,2.789323486328125,0.2715735461235046,-0.9114131261453032,0.5322608104430139,-0.2464482933282852,-0.346267819404602,0.2050243616104126
1772650332774296600,2.799296630859375,0.3629910161048174,-0.8861652876421808,0.5773714334100485,-0.2409821152687072,-0.3698314726352691,0.2272152304649353
1772650332784269600,2.80926953125,0.4832306759446859,-0.8966101092889904,0.6260346342921257,-0.235431283712387,-0.4061599373817444,0.2190854102373123
1772650332794241500,2.819241455078125,0.6393728392928838,-0.9378291316449642,0.6879555953498929,-0.2428180277347564,-0.426596999168396,0.1777062267065048
1772650332804214500,2.829214599609375,0.7029658982813358,-0.9763608146131038,0.6564628711078315,-0.2579943239688873,-0.4125858545303345,0.1239689663052558
1772650332814186500,2.8391865234375,0.5938666411370038,-1.014240755674243,0.5661424025829881,-0.2683129608631134,-0.3783612251281738,0.0698375850915908
1772650332824159700,2.84915966796875,0.4402086958199739,-1.015012324568629,0.5078163972772658,-0.2871601581573486,-0.3484890758991241,0.0266586821526289
1772650332834131500,2.85913134765625,0.3617646891802549,-0.9752484694570304,0.4754583614427596,-0.3121985793113708,-0.3282651305198669,-0.0279693491756916
1772650332844104400,2.8691044921875,0.2797200277000665,-0.9414113740459084,0.4352712394177913,-0.3454811573028564,-0.2985975444316864,-0.0748234093189239
1772650332854077700,2.87907763671875,0.102254505816102,-0.9715931618198752,0.3628752807706594,-0.3734984099864959,-0.2547264099121094,-0.0962895974516868
1772650332864049400,2.88904931640625,-0.1433271054387092,-0.9759230077177286,0.3854851719856262,-0.3917338848114013,-0.2311704754829406,-0.0940213873982429
1772650332874022400,2.8990224609375,-0.3222065857738256,-0.8799950745746493,0.503280215152353,-0.3884640634059906,-0.2314230948686599,-0.0599571391940116
1772650332883994600,2.90899462890625,-0.4305483025491237,-0.7974734432324767,0.7084682950899005,-0.3809150755405426,-0.2562634646892547,0.0054122796282172
1772650332893967600,2.918967529296875,-0.50577100905478,-0.8441194590732455,1.003915687949583,-0.3816351294517517,-0.327757328748703,0.076638750731945
1772650332903939600,2.928939697265625,-0.3826934954404831,-0.8736699632063507,1.165977669800818,-0.39617520570755,-0.4186073243618011,0.102845050394535
1772650332913912600,2.93891259765625,-0.1524263576954603,-0.7961544695883989,1.1358001928757877,-0.4128843247890472,-0.4903162121772766,0.0645948722958564
1772650332923885600,2.948885498046875,0.1118950253427028,-0.7357321495905518,1.0347492906957865,-0.4375755488872528,-0.5596153736114502,-0.0451979376375675
1772650332933857500,2.958857421875,0.303348740568757,-0.8460229546070098,0.9793827197175472,-0.4662585854530334,-0.6208691596984863,-0.2140966802835464
1772650332943830500,2.96883056640625,0.3913578634113073,-0.8467521456643938,0.8367070639248937,-0.4971376955509186,-0.6528294682502747,-0.4268574118614197
1772650332953802500,2.978802490234375,0.3548983105421066,-0.6775000331133604,0.5758205507062375,-0.5200450420379639,-0.6238313913345337,-0.6489951610565186
1772650332963775700,2.988775634765625,0.0386725527435541,-0.4957306765556335,0.2015442435424774,-0.5388759970664978,-0.5184341073036194,-0.8247203826904297
1772650332973748500,2.99874853515625,-0.5398118103444576,-0.2453174073606729,-0.1178321603067219,-0.5573201179504395,-0.4012036323547363,-0.9087255001068116
1772650332983720400,3.008720458984375,-1.1707149274557829,-0.0145575176626443,-0.3721091191925108,-0.5831874012947083,-0.2919884622097015,-0.8761257529258728
1772650332993693700,3.018693603515625,-1.75605222517848,0.2197813995659351,-0.5440849576190113,-0.593450129032135,-0.2058443874120712,-0.7441323399543762
1772650333003665400,3.02866552734375,-2.1933412341594694,0.449087875585258,-0.5603617002896965,-0.5744713544845581,-0.148944079875946,-0.5326464772224426
1772650333013638400,3.038638427734375,-2.442012628123164,0.6104159171387553,-0.4606141357932239,-0.5295051336288452,-0.1118884459137916,-0.2815167605876922
1772650333023610600,3.048610595703125,-2.510357850074768,0.7137634788885712,-0.3801354815207421,-0.4846639037132263,-0.0822607800364494,-0.0180028472095727
1772650333033583600,3.05858349609375,-2.3841478836536405,0.7587696185678243,-0.3788304633367806,-0.4608238935470581,-0.0458985306322574,0.2211770266294479
1772650333043556400,3.068556396484375,-2.058030261915922,0.7300099725514649,-0.3943350525911897,-0.4517190754413605,-0.0194283090531826,0.4097852706909179
1772650333053528600,3.078528564453125,-1.5636112524807453,0.6903942937389016,-0.3078954440876841,-0.4408380687236786,0.0027406690642237,0.5421774387359619
1772650333063501600,3.08850146484375,-1.091852987664938,0.6870666106209159,-0.1282367960736155,-0.4195596873760223,0.0275714509189128,0.6218206286430359
1772650333073473500,3.0984736328125,-0.6656026745706797,0.7595780123412609,0.0414441363487392,-0.3824993371963501,0.041005115956068,0.6512573957443237
1772650333083446500,3.108446533203125,-0.3334451881468296,0.8232356609985232,0.1735133501920849,-0.3364679217338562,0.0366814732551574,0.6675223708152771
1772650333093418500,3.11841845703125,-0.1162906299531459,0.8498226391509175,0.342537645336613,-0.2919764220714569,0.0135347265750169,0.6729629039764404
1772650333103391700,3.128391845703125,0.0743628748059272,0.7999649677872658,0.4721703527480363,-0.2550937831401825,-0.0239561889320611,0.6538355350494385
1772650333113364500,3.138364501953125,0.2929623711109161,0.7325172791972756,0.5309989738136529,-0.2219622433185577,-0.0924945771694183,0.5844820141792297
1772650333123336400,3.14833642578125,0.5754769979655743,0.6411643988847732,0.4893970165546983,-0.195936769247055,-0.1951357275247573,0.468652069568634
1772650333133309700,3.158309814453125,0.7639058124125003,0.4926999305576086,0.3002672872968018,-0.1963415145874023,-0.304225206375122,0.3101642429828644
1772650333143281400,3.168281494140625,0.7712386395186185,0.3538645835801959,-0.0912362681955099,-0.2221342325210571,-0.3661855161190033,0.1269443482160568
1772650333153254400,3.17825439453125,0.5966589022040367,0.2912938533768057,-0.6180030112668872,-0.2746009528636932,-0.3616424798965454,-0.064443752169609
1772650333163227600,3.1882275390625,0.2266045235842466,0.2684399242728948,-1.1466378862977027,-0.3386049568653106,-0.266739934682846,-0.2230656147003173
1772650333173199600,3.19819970703125,-0.2879302221626043,0.2138426571667194,-1.5475214106842874,-0.3888483643531799,-0.1048557609319686,-0.3067163527011871
1772650333183172400,3.20817236328125,-0.7468488791495561,0.2084709010004997,-1.6475103096559642,-0.4245325922966003,0.0413661636412143,-0.3060356676578522
1772650333193144600,3.21814453125,-1.0021288775980473,0.3287497238069772,-1.4970036679767071,-0.4339541494846344,0.1325017064809799,-0.2414747923612594
1772650333203117600,3.22811767578125,-0.9940355875134468,0.4898851653978228,-1.1889825516827404,-0.409515380859375,0.1693287044763565,-0.1231537386775016
1772650333213089500,3.238089599609375,-0.7867571111679077,0.5774442063853145,-0.7686317449558526,-0.3792530596256256,0.1677508503198623,0.0065795136615633
1772650333223062500,3.2480625,-0.468883001640439,0.5948161969467998,-0.4027309788841754,-0.3463917970657348,0.14698326587677,0.1248827278614044
1772650333233035500,3.258035400390625,-0.0289689048528671,0.6086416009426117,-0.1417406399648636,-0.2909417450428009,0.1224734038114547,0.2158280313014984
1772650333243007700,3.2680078125,0.4136421759337186,0.6580053513094782,0.0828464063171297,-0.2215504348278045,0.0865321829915046,0.2808722853660583
1772650333252980500,3.27798046875,0.8737357219189404,0.6689627986535429,0.2456648325588554,-0.1558578908443451,0.0647804290056228,0.2967098951339721
1772650333262952400,3.287952392578125,1.3098743918210267,0.6259156840875745,0.3153193835433572,-0.097844123840332,0.0632203519344329,0.2842548191547394
1772650333272925700,3.29792578125,1.6168191110551355,0.5226677833199501,0.3172865188978612,-0.0436653494834899,0.0676200166344642,0.2552133500576019
1772650333282898400,3.3078984375,1.8358546606898307,0.4571510627925396,0.2628566442478448,-0.008305761963129,0.0609871447086334,0.212119922041893
1772650333292870400,3.317870361328125,2.015844148093462,0.3981853713437914,0.0612320289455354,0.0017029303126037,0.0682336091995239,0.1599661707878112
1772650333302843600,3.32784375,2.0968267333000896,0.2504340197220444,-0.0944782457914203,-0.0019365455955266,0.0773575976490974,0.1008993983268737
1772650333312815400,3.3378154296875,2.121634426820278,0.0891837195798754,-0.221209240411967,-0.0208927355706691,0.0699729695916175,0.0350346192717552
1772650333322788400,3.347788330078125,2.1245576207906005,-0.075952189823985,-0.3153839732121676,-0.0475155599415302,0.0590385645627975,-0.0325859673321247
1772650333332760600,3.357760498046875,2.1161615483671428,-0.1959928199604153,-0.3466120551686734,-0.0732224136590957,0.0476914644241333,-0.08897415548563
1772650333342733600,3.367733642578125,2.076322289931774,-0.2183312007576227,-0.3002162877619266,-0.0975810140371322,0.0281246863305568,-0.1294115930795669
1772650333352706600,3.37770654296875,1.9521862071752547,-0.186200324742496,-0.2702943930331617,-0.1172964721918106,0.009040786884725,-0.170269563794136
1772650333362678500,3.387678466796875,1.8033634269297123,-0.1534942791879177,-0.2304029660191386,-0.1315654069185257,0.0058026490733027,-0.2110982090234756
1772650333372651500,3.397651611328125,1.6683125669270753,-0.1732891129821538,-0.1579337960053235,-0.1302146315574646,0.0112719293683767,-0.2646432816982269
1772650333382623500,3.40762353515625,1.5637930387884378,-0.1565413917988538,-0.0832064718011766,-0.1166255846619606,0.0070161991752684,-0.3197299540042877
1772650333392596500,3.417596435546875,1.4177315399497747,-0.1401879306301474,0.0132517688263207,-0.0978983491659164,0.0169542226940393,-0.3747463226318359
1772650333402568700,3.427568603515625,1.2057938396215435,-0.1619721846759319,0.0916298706229776,-0.0632476955652237,0.0384989269077777,-0.4181108176708221
1772650333412541700,3.437541748046875,0.9774673145502804,-0.1704910066962242,0.1387407274965196,-0.0241156220436096,0.062616541981697,-0.4455642700195312
1772650333422514400,3.447514404296875,0.7823013008028268,-0.1560629606321454,0.1690308710157871,0.0142626594752073,0.0842368826270103,-0.4689491987228393
1772650333432486700,3.457486572265625,0.5979536181896925,-0.1939122142940759,0.1451079244408756,0.0524099729955196,0.1072364524006843,-0.4660162329673767
1772650333442459600,3.467459716796875,0.3701385497719049,-0.2944406269699335,0.1001129637427628,0.076815977692604,0.1393957138061523,-0.4401548206806183
1772650333452431400,3.477431396484375,0.1607891123712062,-0.4110238101288676,-0.0136319272503256,0.0882956087589263,0.1603953093290329,-0.3841943740844726
1772650333462404600,3.487404541015625,-0.0371077876448631,-0.5314119385287165,-0.0869582986153662,0.0940938368439674,0.1613559126853943,-0.308891087770462
1772650333472377600,3.497377685546875,-0.1808726999789476,-0.6430076886638999,-0.0583640722937881,0.1042181178927421,0.1498885303735733,-0.2096504867076873
1772650333482349600,3.507349609375,-0.2783808880507946,-0.7084580659568309,-0.0065621349945664,0.1176588237285614,0.1379650235176086,-0.0979101061820983
1772650333492322600,3.517322509765625,-0.2988356470584869,-0.7544312971025705,0.0342643809124827,0.1346928179264068,0.1351188719272613,-0.0068097952753305
1772650333502294500,3.52729443359375,-0.1863075845092535,-0.7871019790828228,0.0872952754847705,0.1446256041526794,0.1274542957544326,0.0505837239325046
1772650333512267500,3.537267578125,0.0353366863191127,-0.8346987197771668,0.0803058549888432,0.1525415182113647,0.1191255003213882,0.0624907575547695
1772650333522239500,3.547239501953125,0.2850841850817203,-0.9702420394718646,0.0999842227965593,0.1692946702241897,0.1243162751197815,0.0537878163158893
1772650333532212500,3.55721240234375,0.4915525140881538,-1.0460530672594903,0.1735334431320428,0.1852913200855255,0.1365836858749389,0.0323506854474544
1772650333542185500,3.567185546875,0.6062251874506474,-1.0923831490188836,0.2670500773496925,0.2046695500612259,0.1304227262735366,0.007018432021141
1772650333552157700,3.57715771484375,0.657897507020831,-1.0781383505672215,0.348398865520209,0.2322731912136078,0.1115010976791381,-0.0054528634063899
1772650333562130400,3.58713037109375,0.6465104360878468,-1.0619821655362844,0.4615047279573976,0.2724775671958923,0.0840604156255722,0.0066794333979487
1772650333572102700,3.5971025390625,0.6025695875525474,-1.0081710803717374,0.5522919372111559,0.3194772005081177,0.0385763272643089,0.0328225307166576
1772650333582075600,3.60707568359375,0.5779103625923395,-0.9029045332580804,0.6722969115123152,0.3646864891052246,-0.028938265517354,0.0478936247527599
1772650333592048600,3.617048583984375,0.5710533363044261,-0.8549833829149603,0.6735166625656187,0.4051898121833801,-0.08135936409235,0.0394349321722984
1772650333602020600,3.6270205078125,0.5955629236608744,-0.8586573952525853,0.6001026129171252,0.4388348758220672,-0.1224591359496116,0.0304185338318347
1772650333611993600,3.63699365234375,0.535336710757017,-0.8341881399065255,0.4939649089921265,0.4555115103721618,-0.1678074598312378,0.0286201443523168
1772650333621966300,3.64696630859375,0.332694662040472,-0.8326064236730336,0.3027413492601364,0.442982405424118,-0.1625410616397857,0.0420856215059757
1772650333631939300,3.656939208984375,0.0267599966317415,-0.9204378518611191,0.0534082765173166,0.4002522826194763,-0.0973936021327972,0.0548005923628807
1772650333641911300,3.666911376953125,-0.3380933062136173,-1.081501689520478,-0.1529874256443232,0.3486407697200775,-0.0013379144947975,0.0732805356383323
1772650333651884300,3.67688427734375,-0.635778614193201,-1.1516647745490074,-0.1816981179524213,0.3270328342914581,0.1078599914908409,0.0966076925396919
1772650333661857300,3.686857177734375,-0.8770815252155065,-1.0867620942667129,0.0404410237208008,0.3487043082714081,0.2427610903978347,0.1140961349010467
1772650333671829200,3.696829345703125,-0.9297703283518552,-0.966834276854992,0.4017093076862394,0.4118884801864624,0.3743591010570526,0.1122924089431762
1772650333681802200,3.70680224609375,-0.7542845821082591,-0.9252060891762376,0.8661757349934428,0.4936408698558807,0.3896235227584839,0.0997411981225013
1772650333691774500,3.7167744140625,-0.4454588714331388,-1.0060150713816285,1.307771866583824,0.5580386519432068,0.3313091993331909,0.0955542400479316
1772650333701747200,3.726747314453125,-0.2892301988452673,-1.0743111934944989,1.4992822804331778,0.5910607576370239,0.2478694170713424,0.0882752910256385
1772650333711719200,3.73671923828125,-0.2384288168907165,-1.107149633257091,1.5350652492150665,0.608942985534668,0.1397044360637664,0.048930000513792
1772650333721692400,3.7466923828125,-0.1554120955079793,-1.1762968192413448,1.5454381746694446,0.6002277731895447,-0.0118283675983548,-0.0622375346720218
1772650333731665400,3.75666552734375,-0.102636783131957,-1.2494313212960957,1.5059820703327655,0.580202579498291,-0.1414830386638641,-0.2070478051900863
1772650333741637000,3.76663720703125,-0.2467740359097719,-1.2582576018303633,1.282495678769052,0.5484910011291504,-0.1826043725013733,-0.3509610295295715
1772650333751610400,3.7766103515625,-0.673890025922656,-1.1760405063927173,0.8864869938772171,0.5130172371864319,-0.1299444735050201,-0.4342364966869354
1772650333761582300,3.786582275390625,-1.2806868757814167,-0.9303986893832684,0.3697589028045535,0.4684721231460571,-0.026494788005948,-0.4272329211235046
1772650333771555000,3.79655517578125,-1.8816560424000024,-0.5590700530439615,-0.0758103702004998,0.4106962978839874,0.0624746605753898,-0.3461953997611999
1772650333781528300,3.8065283203125,-2.194639457276464,-0.1487663738831877,-0.3782156924393027,0.3611548244953155,0.0987170934677124,-0.2249248921871185
1772650333791500300,3.816500244140625,-2.181658979672193,0.2913257098197936,-0.505897192717716,0.335487812757492,0.078507088124752,-0.1380890011787414
1772650333801473300,3.826473388671875,-1.8357874406725168,0.7287889063239097,-0.4783909077633172,0.3557305037975311,0.0600316748023033,-0.0708537697792053
1772650333811445200,3.8364453125,-1.5876508842378854,0.9875029708743096,-0.3061003773644566,0.4100675582885742,0.0744522362947464,0.0027861217968165
1772650333821418200,3.846418212890625,-1.5455278987795114,1.1378206658527257,-0.0331309199031442,0.4754787683486938,0.1276909559965133,0.0913162603974342
1772650333831390500,3.856390380859375,-1.526083778119087,1.345345518174767,0.1941006495382636,0.5324709415435791,0.1998037695884704,0.1893104612827301
1772650333841363200,3.86636328125,-1.4339257189035417,1.52361651122272,0.2829438851173967,0.5838904976844788,0.2892146110534668,0.2839858531951904
1772650333851336200,3.876336181640625,-1.244147243413329,1.5879931218042969,0.3772884945917874,0.6220937371253967,0.3449050486087799,0.3651669025421142
1772650333861308400,3.886308349609375,-0.9392103568702936,1.5578025662019848,0.5131733212005347,0.6584504246711731,0.3545882999897003,0.4353348016738891
1772650333871281400,3.896281494140625,-0.6189701027333736,1.4889856350854038,0.7154431756038219,0.6727513670921326,0.2999539375305176,0.4787587523460388
1772650333881253000,3.906253173828125,-0.3286708133518695,1.4636898657873272,0.8466624946195632,0.6748337149620056,0.1932735741138458,0.5009199976921082
1772650333891226400,3.916226318359375,-0.0774397980332374,1.402290225189924,1.0244769030064345,0.6811688542366028,0.0869164317846298,0.4974622130393982
1772650333901198300,3.9261982421875,0.0524503182053565,1.326599608911574,1.1414349838923663,0.6892371773719788,-0.0220867469906806,0.4616173803806305
1772650333911171000,3.936171142578125,0.1519154855638742,1.2560761661380528,1.0886104255471378,0.6859138011932373,-0.1092833653092384,0.3864504098892212
1772650333921144300,3.946144287109375,0.2111380743831395,1.2766311706498263,0.8340047461636364,0.6674258708953857,-0.152340829372406,0.274541437625885
1772650333931116300,3.9561162109375,0.2072311300724744,1.2377072734937071,0.4318409727081656,0.6272141337394714,-0.1615842878818512,0.146662026643753
1772650333941089300,3.96608935546875,0.1626595824182033,1.164767124967277,0.0057194005601108,0.5627741813659668,-0.1475803256034851,0.0211778748780488
1772650333951061200,3.976061279296875,0.0361649538367986,1.112109009230137,-0.4756511075358837,0.469534695148468,-0.1109098717570304,-0.0780893266201019
1772650333961034200,3.9860341796875,-0.1655114647179842,1.0652122334986924,-0.8790655386395752,0.3629685640335083,-0.0552924238145351,-0.1327211409807205
1772650333971007200,3.99600732421875,-0.3941775970071554,1.0406842337027191,-1.1450564623251556,0.2586168348789215,0.0012294254265725,-0.1544660031795501
1772650333980979200,4.005979248046875,-0.5263911877572536,1.0996525554999708,-1.2806677326895295,0.1711559444665908,0.0387903824448585,-0.1631830632686615
1772650333990952200,4.0159521484375,-0.5583224495470523,1.1804364032641053,-1.2951561306387185,0.1157326400279998,0.0678801536560058,-0.1736927479505539
1772650334000924400,4.02592431640625,-0.4759259058892726,1.2282000249579548,-1.1625125509735197,0.0901154279708862,0.0819874554872512,-0.1900195181369781
1772650334010897400,4.0358974609375,-0.3024415625959634,1.2156360192000866,-0.9723826316971332,0.0755594670772552,0.0948962867259979,-0.2084712237119674
1772650334020869400,4.045869384765625,-0.1251420449286699,1.1435519029811023,-0.8284885400254279,0.0632127821445465,0.1262579262256622,-0.2153560370206833
1772650334030842400,4.05584228515625,0.012433949637413,1.040551839494705,-0.7485198080364615,0.046346865594387,0.1654654890298843,-0.2172210663557052
1772650334040815400,4.0658154296875,0.1552566126853227,0.950669908517599,-0.7330461984422058,0.0213184803724288,0.1843859255313873,-0.2175672799348831
1772650334050787300,4.075787353515625,0.3545475974082946,0.8493895084306597,-0.7326928549598902,-0.0037102834321558,0.1760268956422805,-0.2139309495687484
1772650334060760300,4.08576025390625,0.5122252997606992,0.7555103245109319,-0.7076360820494592,-0.0231449678540229,0.1581885069608688,-0.2010127454996109
1772650334070732300,4.095732177734375,0.6052420216321945,0.672743193975091,-0.6002070231396704,-0.027855422347784,0.1377932727336883,-0.1671454161405563
1772650334080705300,4.105705322265625,0.5714350290983915,0.5958344340786338,-0.4778270633354782,-0.0255019851028919,0.1147284284234047,-0.0997434705495834
1772650334090677200,4.11567724609375,0.4770101939946413,0.5390124766603112,-0.4121021799501031,-0.0312655232846736,0.1092710345983505,-0.0217386782169342
1772650334100650200,4.125650146484375,0.4518377588152885,0.5201315428406,-0.5070177211802452,-0.0554398335516452,0.1053758934140205,0.0441005229949951
1772650334110623200,4.135623291015625,0.5146680167376995,0.373599796141684,-0.5778939959794283,-0.0749414712190628,0.1032238900661468,0.0951802805066108
1772650334120595200,4.14559521484375,0.6445967114210128,0.1970002434372901,-0.5423999271415174,-0.0909337550401687,0.0960892811417579,0.1210350468754768
1772650334130568200,4.155568115234375,0.8904010255157947,0.0693368633374571,-0.4549701385568827,-0.1107672005891799,0.0586333721876144,0.1123861148953437
1772650334140540400,4.16554052734375,1.179838145110011,-0.0804530083745718,-0.3770264095894992,-0.1285134404897689,-0.0073166154325008,0.0750419348478317
1772650334150513400,4.175513427734375,1.4038923996895551,-0.2217611752063036,-0.2420625702831894,-0.1581979393959045,-0.0886469110846519,0.0136171532794833
1772650334160486100,4.185486083984375,1.509232012039423,-0.4161868919804692,-0.1199489332649856,-0.1959242820739746,-0.1542078256607055,-0.05392886698246
1772650334170458400,4.195458251953125,1.4378975451439615,-0.5495405926764011,-0.0794553756393492,-0.233493760228157,-0.1953271627426147,-0.1166890859603881
1772650334180431400,4.205431396484375,1.2863959010779855,-0.5289142764940857,-0.1146857520397752,-0.2638785541057586,-0.2144816815853119,-0.1805048137903213
1772650334190403300,4.2154033203125,1.0925398008853195,-0.5298512650832533,-0.1610723862919956,-0.2976792752742767,-0.1855519115924835,-0.2413464784622192
1772650334200376300,4.225376220703125,0.8363403495043515,-0.5819888640776276,-0.2124213921919465,-0.3402256667613983,-0.1247050762176513,-0.3019392490386963
1772650334210348300,4.235348388671875,0.6191957281827927,-0.6308125162184238,-0.28359518863298,-0.3679943382740021,-0.070579245686531,-0.3468868434429168
1772650334220321300,4.2453212890625,0.4152203850358724,-0.6187380475431681,-0.2487222473680972,-0.3898828625679016,-0.0395550243556499,-0.3572073876857757
1772650334230294300,4.255294189453125,0.2225835975050926,-0.5929539102062583,-0.1849015901688486,-0.4097144901752472,-0.0377831794321537,-0.3352600932121277
1772650334240266200,4.265266357421875,0.0662614014148712,-0.5382248334139585,-0.062274377605319,-0.4210185408592224,-0.0569784455001354,-0.2959182858467102
1772650334250239500,4.275239501953125,-0.0461766447633504,-0.4920215929046272,0.0582118043415248,-0.4160877764225006,-0.0969561710953712,-0.236002504825592
1772650334260211200,4.285211181640625,-0.1591062738507986,-0.4524333866208792,0.1444699187982827,-0.3990014791488647,-0.1436533629894256,-0.1617216169834137
1772650334270184200,4.29518408203125,-0.2620861713320017,-0.4748538927435874,0.2479983900729566,-0.3930508494377136,-0.1946687400341034,-0.0622376576066017
1772650334280157400,4.305157470703125,-0.421148021519184,-0.548039540463686,0.3404386272307485,-0.3922774791717529,-0.2302075624465942,0.0527483187615871
1772650334290129200,4.315129150390625,-0.5259685784310102,-0.6417550582543015,0.399852939229831,-0.4002718031406402,-0.250412106513977,0.1712787598371505
1772650334300102100,4.32510205078125,-0.5006827460050582,-0.6722109867945313,0.4693486463908106,-0.4114829003810882,-0.2591927945613861,0.253935307264328
1772650334310074400,4.335074462890625,-0.4018529539406299,-0.6673524408474564,0.4987076465398073,-0.4143849015235901,-0.2574250698089599,0.2941582798957824
1772650334320047400,4.34504736328125,-0.1773497865498065,-0.6861033185467124,0.5347269082956015,-0.4190563559532165,-0.2550825476646423,0.2886157035827636
1772650334330019300,4.355019287109375,0.0676706836909055,-0.7311965519875288,0.6204748082078992,-0.427878588438034,-0.2574613392353058,0.248222529888153
1772650334339992300,4.364992431640625,0.2756675374388694,-0.7855389675498008,0.7106744268320501,-0.440549373626709,-0.2532151937484741,0.1835154443979263
1772650334349965300,4.37496533203125,0.365309814441204,-0.7880112028822303,0.7264624361377209,-0.4496497809886932,-0.2424475401639938,0.1134953051805496
1772650334359937300,4.384937255859375,0.3743669811218977,-0.7243126376926898,0.7734264318864792,-0.4522407948970794,-0.232546180486679,0.0541038811206817
1772650334369910300,4.39491015625,0.2980658317297697,-0.6641244187116623,0.8409323534697294,-0.4606192111968994,-0.2399113178253173,0.0259655211120843
1772650334379882200,4.40488232421875,0.1718254701703786,-0.6269359670460224,0.9017670536607504,-0.4726183414459228,-0.2597406804561615,0.0242595002055168
1772650334389855500,4.41485546875,-0.0029670331120491,-0.5744172597795725,0.9620410512290896,-0.4856739044189453,-0.2824781835079193,0.0348391272127628
1772650334399827200,4.4248271484375,-0.1303442897468805,-0.5130474297985435,1.01305936386995,-0.4910460114479065,-0.277862936258316,0.0652385801076889
1772650334409800200,4.43480029296875,-0.3012029607117176,-0.4513955680057406,1.1434396017130464,-0.484052300453186,-0.2648195028305053,0.1278707534074783
1772650334419773400,4.4447734375,-0.3788841662853956,-0.4002963721483946,1.381648711438477,-0.4815601110458374,-0.3130171298980713,0.1856791824102401
1772650334429745200,4.4547451171875,-0.2323153024464845,-0.3172831578969955,1.5924283277727662,-0.4797567129135132,-0.4034243524074554,0.2106836140155792
1772650334439718100,4.46471826171875,-0.0614770897477865,-0.2735407545432448,1.6808879708617923,-0.4777588248252868,-0.4521048069000244,0.1767536103725433
1772650334449690400,4.4746904296875,0.1747749676257372,-0.2492553313314914,1.7643708484515546,-0.4651965200901031,-0.4730265140533447,0.0448036417365074
1772650334459663400,4.484663330078125,0.5034545488059521,-0.2061994489371776,1.671428945381939,-0.4447945654392242,-0.5050792098045349,-0.1874983012676239
1772650334469636000,4.494635986328125,0.8210200307756662,-0.1443891817122697,1.4748771763645112,-0.4205682277679443,-0.5398322343826294,-0.5033625960350037
1772650334479608300,4.5046083984375,0.8572118726193905,-0.1742234712228179,1.127349613786116,-0.4058156609535217,-0.535594642162323,-0.8297348618507385
1772650334489581300,4.514581298828125,0.3543061898678541,-0.2222998121276497,0.6161386786997318,-0.4065900146961212,-0.4626973569393158,-1.0587999820709229
1772650334499553300,4.52455322265625,-0.5837678564488887,-0.2178098072320222,0.0224487458365038,-0.4511755704879761,-0.3470365405082702,-1.169042944908142
1772650334509526300,4.5345263671875,-1.5740607503026722,-0.1414730020046234,-0.5810907096615061,-0.5143190026283264,-0.2073276787996292,-1.169123291969299
1772650334519498200,4.544498291015625,-2.4919302129805088,-0.0217579505607485,-1.062221819511056,-0.569280743598938,-0.0800629407167434,-1.0842046737670898
1772650334529471500,4.554471435546875,-3.121210697326064,0.1768228400662541,-1.3021908515810965,-0.5771836042404175,0.0430083647370338,-0.8978843688964844
1772650334539444200,4.5644443359375,-3.544912494981289,0.3659478200837969,-1.1768299762699752,-0.5403459072113037,0.189744547009468,-0.6194260716438293
1772650334549416200,4.574416259765625,-3.785436238324642,0.5379951163113117,-0.8936818738173693,-0.4679834842681885,0.2808957099914551,-0.2704097926616668
1772650334559389400,4.584389404296875,-3.673156013056636,0.7497127441480755,-0.5299135897297412,-0.3769025802612304,0.328305035829544,0.1143104806542396
1772650334569361200,4.594361083984375,-3.26952318996191,0.9630749243214726,-0.2260045849297195,-0.2848061919212341,0.3578501641750335,0.500982403755188
1772650334579334100,4.604334228515625,-2.628901227390766,1.1132374287381768,-0.039015301766619,-0.2166002094745636,0.3552242815494537,0.8222730755805969
1772650334589306400,4.614306396484375,-1.6603572240084408,1.1706991453647613,0.0074121028874069,-0.1667127162218094,0.302476555109024,1.0498871803283691
1772650334599279400,4.624279296875,-0.6200187350034714,1.224290742559731,0.0652973056230694,-0.1173060238361358,0.2230996936559677,1.1800824403762815
1772650334609252000,4.634252197265625,0.3903443024545908,1.258709437251091,0.1461472043607384,-0.0739884451031684,0.1453223079442978,1.2106037139892578
1772650334619224300,4.644224365234375,1.2269359963715076,1.1988900515824557,0.1009319519754499,-0.047383464872837,0.0722885876893997,1.1458370685577393
1772650334629197300,4.654197265625,1.9209154551208016,1.072190255817771,0.0232511117279529,-0.0477361157536506,-0.0196397416293621,1.0139092206954956
1772650334639169300,4.664169189453125,2.4051895026385783,0.8759738562345504,-0.1081280009593814,-0.0688413977622985,-0.1096647009253501,0.8367440104484558
1772650334649142300,4.674142333984375,2.641778244620561,0.7146323706775903,-0.2592632228657603,-0.0991683676838874,-0.1905054152011871,0.6411561369895935
1772650334659115300,4.684115234375,2.631689396804571,0.5768497476235032,-0.4902465460561215,-0.1346954703330993,-0.257414698600769,0.4470777809619903
1772650334669087500,4.69408740234375,2.3383827423006296,0.5172042572170495,-0.7815927141420542,-0.1732074469327926,-0.2810071408748626,0.2769204676151275
1772650334679060200,4.704060302734375,1.876020082339644,0.4717217321977019,-1.125916146916896,-0.2220255732536316,-0.2614379823207855,0.1188208684325218
1772650334689032200,4.7140322265625,1.375316878068447,0.3849026959225535,-1.4141551427677272,-0.2683507800102234,-0.226335197687149,-0.0169505793601274
1772650334699005400,4.72400537109375,0.92159286711514,0.3146098470345139,-1.554494610697776,-0.3140564858913421,-0.1870892643928527,-0.1139165386557579
1772650334708978200,4.733978271484375,0.4557341817319393,0.2758390946134925,-1.567632763081789,-0.3593960404396057,-0.1498730629682541,-0.1742485761642456
1772650334718950100,4.7439501953125,0.0488221908360719,0.2253665062218904,-1.5006290188670155,-0.4034852087497711,-0.1089895367622375,-0.2041508108377456
1772650334728923400,4.75392333984375,-0.2986298953533172,0.2193690193727612,-1.357616386204958,-0.4362309277057647,-0.0604215487837791,-0.200245052576065
1772650334738895000,4.76389501953125,-0.4944499890953302,0.2951736174196004,-1.126116053403169,-0.4365379810333252,-0.0059457896277308,-0.1598672717809677
1772650334748868400,4.773868408203125,-0.5833230352908373,0.4404503956213593,-0.7993957165319472,-0.3970823884010315,0.0257886555045843,-0.079472541809082
1772650334758840300,4.78384033203125,-0.5331313096672297,0.5836851466014981,-0.3941842459436506,-0.3302189409732818,0.038020022213459,0.0141181237995624
1772650334768813300,4.793813232421875,-0.3740092537254095,0.7368959326729178,-0.0398478801332414,-0.2481125295162201,0.0547054074704647,0.0968415513634681
1772650334778786300,4.803786376953125,-0.1431394739121198,0.7951376937612891,0.202802134649083,-0.1588124781847,0.0687469244003295,0.1502802819013595
1772650334788758300,4.81375830078125,0.1681651940971613,0.8101166517063975,0.3474770745001733,-0.0568241439759731,0.0715446919202804,0.1788727194070816
1772650334798731300,4.823731201171875,0.4845259764522314,0.7811883711248636,0.4540019511118531,0.0421929806470871,0.0643171444535255,0.191112607717514
1772650334808703200,4.833703125,0.7597130368977785,0.7405380885675549,0.482035036419332,0.1316585689783096,0.0599692314863204,0.1944862604141235
1772650334818676200,4.84367626953125,0.9959808763623236,0.714672118166089,0.4270096800941974,0.2034163773059845,0.0618941709399223,0.1866080909967422
1772650334828648400,4.8536484375,1.1516530841112136,0.661599576409161,0.2908023435328155,0.251488983631134,0.067719742655754,0.1751562505960464
1772650334838621400,4.863621337890625,1.2252800458580255,0.5185924967050553,0.1786164454847574,0.2863902449607849,0.0903688594698906,0.1575213372707367
1772650334848594200,4.87359423828125,1.3065607372283934,0.3866711668998003,0.1051703932628035,0.3090590834617615,0.123178131878376,0.1380627453327179
1772650334858566400,4.88356640625,1.3930354901105164,0.2886196657314896,0.0237323193736374,0.3187955915927887,0.1444746255874633,0.1084358692169189
1772650334868539400,4.893539306640625,1.5077069944292305,0.1352683021456003,-0.0483955629218369,0.3105994760990143,0.1524117887020111,0.0510734841227531
1772650334878511000,4.903510986328125,1.6542074692070483,0.0717713970080018,-0.0657433688901364,0.2955675423145294,0.1338229179382324,-0.0397389754652977
1772650334888484400,4.913484375,1.880059713119268,-0.0235527250230312,-0.0178204649813473,0.2719866931438446,0.0923808440566062,-0.1648423671722412
1772650334898456300,4.923456298828125,2.078909383815527,-0.1694368214681744,0.1129944379519671,0.2450298815965652,0.0733379125595092,-0.3118821680545807
1772650334908429300,4.93342919921875,2.0943109510868787,-0.3511632156670093,0.1842606619168073,0.220614343881607,0.0663312152028083,-0.4625627100467682
1772650334918402300,4.94340234375,1.99298291246593,-0.4884750063389539,0.2206334863506257,0.20177061855793,0.0708002671599388,-0.6054123044013977
1772650334928374300,4.953374267578125,1.7893916002005337,-0.5487219697698951,0.2470169778201729,0.1922727227210998,0.0873586684465408,-0.7228336334228516
1772650334938347300,4.96334716796875,1.5124533121734858,-0.5595844323068857,0.1843783700123429,0.1943683624267578,0.1106027364730835,-0.813730776309967
1772650334948319200,4.9733193359375,1.21419341917634,-0.5821712349072098,0.086678897152096,0.1923540979623794,0.1298925280570984,-0.8712234497070312
1772650334958292200,4.983292236328125,0.8215273957759142,-0.6648796209931374,-0.0597408405397087,0.1898477971553802,0.1518484205007553,-0.8886660933494568
1772650334968265200,4.99326513671875,0.4826835634559392,-0.7753709170177578,-0.1333982704900205,0.1869757175445556,0.1452741026878357,-0.8654358983039856
1772650334978237400,5.003237548828125,0.1922626935213804,-0.8615557470425963,-0.0993196944732218,0.1836704760789871,0.11382856965065,-0.8184779286384583
1772650334988210200,5.013210205078125,-0.039159459477663,-0.925132439418137,-0.0295855023812502,0.1983629167079925,0.0766133666038513,-0.7295579314231873
1772650334998182400,5.023182373046875,-0.3573988951861858,-0.9827157365977764,0.1034730878256261,0.2262992113828659,0.0570897310972213,-0.5991724729537964
1772650335008155400,5.0331552734375,-0.6935410673320292,-0.977703169132769,0.1067735906757414,0.2551765739917755,0.0677965432405471,-0.4499230086803436
1772650335018127000,5.043127197265625,-0.8385919278234243,-0.9306669849306344,0.0200962278936058,0.2798795104026794,0.0745500475168228,-0.2982064485549927
1772650335028100400,5.053100341796875,-0.8178986838847399,-0.9279930895462633,-0.0480489414412528,0.3010549545288086,0.078624852001667,-0.1613967269659042
1772650335038073300,5.0630732421875,-0.6533598635911941,-0.9948235230207444,-0.0824527308244258,0.3090665340423584,0.0938078016042709,-0.0629841387271881
1772650335048045300,5.07304541015625,-0.3891355111867189,-1.1249091618314384,-0.1171789570949971,0.3067974150180816,0.1091383844614029,-0.0068409098312258
1772650335058018300,5.083018310546875,-0.0974906524151563,-1.2675149672582744,-0.1845186552658677,0.2897100448608398,0.1429067403078079,0.0045142765156924
1772650335067990300,5.092990234375,0.1761561928510665,-1.3635364239037036,-0.2608810333259403,0.2706528604030609,0.1848586201667785,-0.0154186710715293
1772650335077963300,5.10296337890625,0.3806616973519325,-1.3989368231087922,-0.3735409786265343,0.2456079721450805,0.2389144003391266,-0.04031603038311
1772650335087935200,5.112935302734375,0.4769558334589004,-1.44320704972893,-0.4421745160002261,0.2172142565250396,0.286642849445343,-0.0550840720534324
1772650335097908200,5.122908203125,0.4697212060302496,-1.4617565596371889,-0.4438710907850414,0.1855993270874023,0.3005932867527008,-0.0450857654213905
1772650335107881200,5.132881103515625,0.4796978256434202,-1.4348428337484598,-0.3169768684267997,0.1687159240245819,0.2915793657302856,-0.030938658863306
1772650335117853400,5.142853515625,0.4706523494005203,-1.3465364815250038,-0.1391506234716624,0.1714938580989837,0.2670980095863342,-0.0056961518712341
1772650335127826200,5.152826171875,0.4474000686287879,-1.219143150538206,0.0441265803657472,0.185108944773674,0.2468067407608032,0.0177594702690839
1772650335137798400,5.16279833984375,0.4229115240603685,-1.130995788268745,0.1610848073821514,0.2007281184196472,0.2410519123077392,0.0276576410979032
1772650335147771400,5.172771484375,0.3508972582072019,-1.086582353785634,0.1894475630354136,0.2161668986082077,0.2439934313297271,0.0089199002832174
1772650335157744400,5.182744384765625,0.2999947539657354,-1.0516709071412682,0.1883114716775715,0.2242048531770706,0.242528423666954,-0.0406330078840255
1772650335167716400,5.19271630859375,0.2209901908338069,-1.0388143481776118,0.1878469229057431,0.2335673868656158,0.237955629825592,-0.1172114610671997
1772650335177689300,5.202689453125,-0.0041243864536285,-1.0442109465241431,0.2328969747919589,0.2677682340145111,0.2707402110099792,-0.1891695410013198
1772650335187661300,5.212661376953125,-0.3163163586914539,-0.9843924376383424,0.2892062334477901,0.3131798803806305,0.3209550380706787,-0.2420716285705566
1772650335197634300,5.22263427734375,-0.6844371389001608,-0.8963993891477584,0.3427195047095417,0.3640513122081756,0.3755394518375397,-0.2735398113727569
1772650335207606300,5.232606201171875,-1.1395032121121882,-0.9085644587159156,0.4189773994818329,0.4250386953353882,0.4530201554298401,-0.234649658203125
1772650335217579300,5.242579345703125,-1.711169127357006,-0.9869044204592704,0.5257398111764341,0.4846024513244629,0.5416027903556824,-0.1094485968351364
1772650335227552300,5.25255224609375,-2.21169229888618,-1.136244210316241,0.6952802391495555,0.5460342168807983,0.5468617677688599,0.0930293947458267
1772650335237524200,5.262524169921875,-2.3128718689471484,-1.1913634554699062,0.9163822928600012,0.5895734429359436,0.4553201794624328,0.3165458142757416
1772650335247497200,5.272497314453125,-1.9329530989170076,-1.2034154200524092,1.1485486883550882,0.6268534064292908,0.2811693251132965,0.5063304901123047
1772650335257469200,5.28246923828125,-1.2737725663483142,-1.2482120086342097,1.331653385169804,0.6433423757553101,0.0455767884850502,0.6095828413963318
1772650335267442200,5.292442138671875,-0.5578074857622385,-1.2891317557826638,1.2614958530992268,0.6050637364387512,-0.2103485912084579,0.5786608457565308
1772650335277415200,5.302415283203125,0.1647159304261207,-1.25425362688601,0.8489292705077678,0.5191959738731384,-0.412097156047821,0.3888216614723205
1772650335287387400,5.312387451171875,0.6198275963455439,-1.222913901248574,0.2012893919985741,0.3702142238616943,-0.5162582397460938,0.068491905927658
1772650335297360100,5.322360107421875,0.6099129360526799,-1.1873141800791025,-0.6076024671532213,0.1976709514856338,-0.4831397235393524,-0.2919773459434509
1772650335307331300,5.332331298828125,0.056297056761384,-1.0152432107150553,-1.2099893916152418,0.0265583265572786,-0.3366890251636505,-0.6142414212226868
1772650335317304300,5.34230419921875,-0.7758440874874591,-0.6164075587689877,-1.4693947994306682,-0.1016592904925346,-0.1190603524446487,-0.8413370847702026
1772650335327276300,5.3522763671875,-1.6749615034222602,-0.0329649887517094,-1.4640078456953167,-0.143915981054306,0.1478123366832733,-0.9255691766738892
1772650335337249300,5.362249267578125,-2.58016145414114,0.6373574078172445,-1.112902351564914,-0.080870434641838,0.4142176806926727,-0.84182208776474
1772650335347221200,5.37222119140625,-3.2856583322048185,1.3011711531445382,-0.5427379269242286,0.097966693341732,0.6403892636299133,-0.5803329944610596
1772650335357194200,5.3821943359375,-3.6512218291461465,1.8441826363131404,0.2636844733741134,0.3534996807575226,0.7924389839172363,-0.18384850025177
1772650335367167200,5.392167236328125,-3.4736475861907,2.244387823046744,1.0757874765921382,0.6010878682136536,0.8053562045097351,0.2510011792182922
1772650335377139500,5.402139404296875,-2.764558821114897,2.422237960334122,1.5044231504529717,0.7812363505363464,0.7160132527351379,0.6297570466995239
1772650335387112400,5.412112548828125,-1.6908195822894572,2.341065405513346,1.6112598694927989,0.887678861618042,0.5888534784317017,0.891912043094635
1772650335397084200,5.422084228515625,-0.5907254205018282,2.0440733404949305,1.4896717176534235,0.9363641142845154,0.42006316781044,1.001059651374817
1772650335407057400,5.432057373046875,0.4528098187178373,1.6791194998845458,1.3212357437908648,0.9356381297111512,0.2320467978715896,0.9780247807502748
1772650335417030400,5.442030517578125,1.2199684954464436,1.3549097575947642,1.1542176739022134,0.898051917552948,0.0801685824990272,0.8528301119804382
1772650335427002000,5.452002197265625,1.6740993336349723,1.037488068009913,0.9337962228670716,0.8311172723770142,-0.0270032305270433,0.6514115929603577
1772650335436975400,5.461975341796875,1.8968430901378392,0.7918015350759029,0.7080148522339761,0.7464072108268738,-0.1016212776303291,0.4174875020980835
1772650335446947300,5.471947265625,1.8467852200269697,0.6833832459330559,0.4629262851931154,0.6599959135055542,-0.128096804022789,0.1818659007549286
1772650335456920300,5.48192041015625,1.6349474729418754,0.7150134789496659,0.1671140776090323,0.5689594745635986,-0.143784150481224,-0.0514885373413562
1772650335466892300,5.491892333984375,1.2367664855122569,0.7784411182433366,-0.2002230779413134,0.4614887237548828,-0.1263923794031143,-0.2794503271579742
1772650335476865300,5.501865234375,0.7096709488779306,0.8557938225150108,-0.6032624651875347,0.3491600453853607,-0.0725608319044113,-0.473059207201004
1772650335486838300,5.51183837890625,0.1687649135559797,0.962279682290554,-0.913205197193846,0.2295231521129608,0.002624140586704,-0.6063838005065918
1772650335496810200,5.521810302734375,-0.4311439303547144,1.0586936453849076,-1.0157980681188403,0.1414215266704559,0.0755279138684272,-0.6201654076576233
1772650335506783200,5.531783203125,-1.080167810568213,1.1612635007604957,-0.9033189592778682,0.095949038863182,0.1320380270481109,-0.5035276412963867
1772650335516755500,5.54175537109375,-1.5503221473187208,1.383480018518865,-0.6908461291596293,0.0959732830524444,0.1602134704589843,-0.2901560068130493
1772650335526728400,5.551728515625,-1.6295967595636844,1.6698843462884423,-0.4521982626907527,0.1349437236785888,0.1366787552833557,-0.0239549297839403
1772650335536700200,5.5617001953125,-1.3603753295242786,1.817996347916126,-0.2203685518041253,0.1811884641647339,0.0694184973835945,0.2194220423698425
1772650335546673400,5.57167333984375,-0.7812275340914726,1.7669734321653845,-0.0506810435105115,0.2042922973632812,-0.0226447507739067,0.3869761228561401
1772650335556646400,5.581646484375,0.0671732555627822,1.5375482982024549,-0.0131735159583389,0.2087618857622146,-0.1083189100027084,0.4585603177547455
1772650335566618000,5.5916181640625,0.9484691836029292,1.32222387804538,-0.0771383308686316,0.1841564774513244,-0.1870816200971603,0.4189388155937195
1772650335576591400,5.60159130859375,1.7498942870706318,1.0699205573201178,-0.1785630347970873,0.1413496136665344,-0.2552028894424438,0.2814142405986786
1772650335586563300,5.611563232421875,2.3008774797707794,0.7536483300313354,-0.1642516739152371,0.0747061818838119,-0.2637824416160583,0.0945522487163543
1772650335596536300,5.621536376953125,2.413731705534458,0.4465557267591357,-0.2629592278394848,-0.0129738673567771,-0.1994596421718597,-0.1022649407386779
1772650335606509300,5.63150927734375,2.118991218835115,0.2392731587603688,-0.5847201156724244,-0.1047402322292327,-0.0672445371747016,-0.241915225982666
1772650335616481300,5.641481201171875,1.5791764858812092,0.1261933075472712,-0.898190656478703,-0.1978043913841247,0.0714174658060073,-0.3222180604934692
1772650335626454000,5.6514541015625,1.0502268458127977,0.0730564683824777,-1.0240350775230675,-0.2907969653606415,0.1525671035051345,-0.3628781735897064
1772650335636426200,5.66142626953125,0.737552058494091,0.0474532405704259,-1.029712465572357,-0.3635278940200805,0.177579253911972,-0.377672016620636
1772650335646399200,5.671399169921875,0.6019838966190815,-0.0360936421662569,-0.8725061070587485,-0.4125570058822632,0.1652973294258117,-0.3572857975959778
1772650335656371200,5.68137109375,0.4747755668103695,-0.1490022284656763,-0.6186755037009716,-0.4441234767436981,0.1046017557382583,-0.2982232868671417
1772650335666344200,5.69134423828125,0.3132937959998846,-0.2080816094219684,-0.2909232664987444,-0.4525007605552673,0.0263769216835498,-0.2135859131813049
1772650335676317200,5.701317138671875,0.199050161704421,-0.1624286962717771,-0.0261938141163438,-0.4393817782402038,-0.0415126457810401,-0.1198961734771728
1772650335686289200,5.7112890625,0.0865109932392835,-0.1155158461883664,0.1330404700282961,-0.4085482060909271,-0.0685150399804115,-0.0373019091784954
1772650335696262100,5.72126220703125,0.0025835867524147,-0.1563677887976169,0.1820362638656049,-0.3808079361915588,-0.0845435410737991,0.0140574192628264
1772650335706234000,5.731234130859375,0.0097480715543031,-0.179452604047954,0.1053292370863258,-0.3674989640712738,-0.0762069001793861,0.0382016971707344
1772650335716207400,5.741207275390625,0.0891062704294919,-0.2366986320972442,-0.0783872349511832,-0.3617388010025024,-0.0458303540945053,0.0478162392973899
1772650335726180000,5.75118017578125,0.1876543229430914,-0.3408165936976671,-0.2048329098243266,-0.3767974972724914,-0.0208583772182464,0.0418376214802265
1772650335736152000,5.761152099609375,0.3238543529808521,-0.4411898158118128,-0.2466835811473429,-0.3911237120628357,-0.0324889346957206,0.0294912047684192
1772650335746125300,5.771125244140625,0.4738549448341131,-0.4977247729822993,-0.2286350795637816,-0.3948403298854828,-0.0590737238526344,0.0133878774940967
1772650335756097000,5.781096923828125,0.5561994660437106,-0.5427569238856434,-0.1519804405588656,-0.3787801563739776,-0.0922436639666557,0.0202836003154516
1772650335766070000,5.791070068359375,0.5520663117617368,-0.5456202043622732,-0.0656116322692483,-0.3478789031505584,-0.1208716258406639,0.0490848943591117
1772650335776042200,5.801042236328125,0.5027975462019443,-0.5379939472675324,-0.0137485393673181,-0.3276324868202209,-0.1615671217441558,0.0894855856895446
1772650335786015200,5.81101513671875,0.452429879489541,-0.5379936550065875,-0.0628895138289779,-0.3199524581432342,-0.2030679583549499,0.1255397200584411
1772650335795988000,5.820988037109375,0.3748819449067115,-0.5581169901028276,-0.1448870482318103,-0.317537248134613,-0.2171856462955474,0.1557522267103195
1772650335805960200,5.830960205078125,0.347554962041974,-0.6351853244751692,-0.2235537577114999,-0.3223803043365478,-0.2274582684040069,0.1888038665056228
1772650335815933200,5.84093310546875,0.3024742958217859,-0.6649950640663504,-0.2406887246467172,-0.3256163299083709,-0.2331808805465698,0.2241386920213699
1772650335825905200,5.8509052734375,0.2505143914818764,-0.6769163880065083,-0.2394697773110121,-0.3370928764343261,-0.2490002959966659,0.2523407340049743
1772650335835878100,5.860878173828125,0.2681137610584497,-0.6663669369414449,-0.1881162413664162,-0.3585550189018249,-0.2625917494297027,0.2541687190532684
1772650335845850000,5.87085009765625,0.3412140685826539,-0.687989570684731,-0.1381624892171472,-0.3752817809581756,-0.2759894728660583,0.2362968772649765
1772650335855823400,5.8808232421875,0.3512017941117286,-0.7074582412645221,-0.0967422452006489,-0.3967972099781036,-0.2826351225376129,0.2174563556909561
1772650335865796000,5.890796142578125,0.2605857036411762,-0.6919310017868876,-0.0633103695895522,-0.4076679646968841,-0.2806424498558044,0.1967142671346664
1772650335875768000,5.90076806640625,0.1216904431700706,-0.6331663858681916,-0.0160959792762994,-0.4192428588867187,-0.2861376106739044,0.1779576241970062
1772650335885741300,5.9107412109375,-0.003768997144699,-0.5449190703555942,-0.0007968494661152,-0.4341464638710022,-0.296507865190506,0.165789395570755
1772650335895713000,5.920713134765625,-0.119666243866086,-0.5265858335465192,0.0453581679873168,-0.4470968842506408,-0.3077067136764526,0.152540698647499
1772650335905686000,5.93068603515625,-0.2308306168466806,-0.4803317396327853,0.1305618780203163,-0.466889888048172,-0.308787852525711,0.1395836919546127
1772650335915659300,5.9406591796875,-0.3993512002527714,-0.4129343199253082,0.1548430634483694,-0.4856140315532684,-0.2766954302787781,0.1405541598796844
1772650335925631200,5.95063134765625,-0.5923778638839722,-0.3646867141067981,0.1541700595576316,-0.5011876225471497,-0.2267520874738693,0.1620209664106369
1772650335935604000,5.96060400390625,-0.7947323278307914,-0.3063829936981201,0.1953014766953885,-0.5115801095962524,-0.1634921580553054,0.2175782322883606
1772650335945576200,5.970576171875,-0.9250012142539024,-0.2640940040230751,0.3371535411454737,-0.5106118321418762,-0.10947135835886,0.2991285026073456
1772650335955549200,5.980549072265625,-0.9564140051275491,-0.3136518156573176,0.6429132883787155,-0.4946379959583282,-0.1231304481625557,0.4008940160274505
1772650335965521200,5.990521240234375,-0.8194669561147689,-0.4008694958612323,1.0241426295507698,-0.4748499989509582,-0.2036153376102447,0.4771539568901062
1772650335975494100,6.000494140625,-0.4694277760416269,-0.4285574209928512,1.358570910450816,-0.4306021332740783,-0.3192705512046814,0.4988283812999725
1772650335985467100,6.010467041015625,-0.0351367798328399,-0.3890533858612179,1.494595583921671,-0.4270363748073578,-0.5089936852455139,0.4447722434997558
1772650335995439000,6.020439208984375,0.4074602724283933,-0.5780009634852409,1.4220456037566065,-0.4359289109706878,-0.6936296224594116,0.2981534898281097
1772650336005412000,6.030412109375,0.8040069366544484,-0.7376537653028965,1.138255477073416,-0.4877704977989197,-0.8720755577087402,0.0393652319908142
1772650336015384300,6.04038427734375,0.9759417124181984,-0.8194263318434357,0.5751689549297094,-0.5770477056503296,-0.9736892580986024,-0.3052888214588165
1772650336025357300,6.050357421875,0.6688327425330877,-0.8219555580601096,-0.2535004215553402,-0.6743207573890686,-0.9169377088546752,-0.6241699457168579
1772650336035330000,6.060330078125,-0.1575409242302179,-0.7604667778745293,-1.1413761663772166,-0.7841620445251465,-0.7150312066078186,-0.851166844367981
1772650336045302300,6.07030224609375,-1.1741823113054035,-0.5320984594881534,-1.821797201503813,-0.9098623394966124,-0.4501376152038574,-0.9714624285697936
1772650336055275300,6.080275146484375,-2.0744021355241538,-0.1967120741456746,-2.284787637974321,-1.0244109630584717,-0.1626613438129425,-0.993546187877655
1772650336065247000,6.0902470703125,-2.6984745298326014,0.1438110895633697,-2.314888177205622,-1.0835143327713013,0.0943903774023056,-0.8989313244819641
1772650336075220200,6.10022021484375,-3.052242959561944,0.4369216369733214,-1.9580885630868372,-1.055392146110535,0.2905332744121551,-0.6822871565818787
1772650336085192200,6.110192138671875,-3.1545155855566263,0.7787745879814029,-1.2924161842808126,-0.9734729528427124,0.4055757820606231,-0.377591073513031
1772650336095165200,6.120165283203125,-2.847739208626747,1.156357900801301,-0.6616849896702915,-0.8739202618598938,0.4477570652961731,-0.0390636287629604
1772650336105138200,6.13013818359375,-2.2267677029430866,1.467552678695321,-0.2181653426714241,-0.8019137978553772,0.4327157437801361,0.2682671248912811
1772650336115110100,6.140110107421875,-1.4468477443188428,1.6180559593737125,0.0670812664303928,-0.7455488443374634,0.369360476732254,0.4962568879127502
1772650336125083100,6.150083251953125,-0.5896399633526802,1.6370008983403443,0.250945768636465,-0.6922688484191895,0.2913727760314941,0.6283130645751953
1772650336135055000,6.16005517578125,0.1736830807358026,1.6231524057298898,0.49386283685714,-0.6132102608680725,0.2315723001956939,0.691618800163269
1772650336145028000,6.170028076171875,0.7347779176056385,1.5938462317466735,0.7907679542444646,-0.5127290487289429,0.2126586735248565,0.6861767768859863
1772650336155000300,6.180000244140625,1.1128349854171276,1.5245160904109476,0.9708207161426544,-0.4066169857978821,0.1943856626749038,0.6500389575958252
1772650336164973300,6.189973388671875,1.361437990319729,1.400823075246811,1.058261975969374,-0.3132241070270538,0.1727198213338852,0.6063088774681091
1772650336174946000,6.199946044921875,1.476366684269905,1.2203285609304904,1.1027959680922328,-0.236830785870552,0.1400340497493744,0.5706550478935242
1772650336184918300,6.209918212890625,1.4176070367872715,0.935985257343948,1.0071123650990426,-0.1776344627141952,0.0822639167308807,0.5505709052085876
1772650336194891300,6.219891357421875,1.2990163131982086,0.6562538314670324,0.8245096264570951,-0.1394721567630767,-0.0429344847798347,0.5550082921981812
1772650336204863000,6.229863037109375,1.2518541645288466,0.4126122483640909,0.6280072495393455,-0.1289404183626175,-0.1752211451530456,0.554803729057312
1772650336214836200,6.239836181640625,1.2708861972570418,0.2345627891123294,0.2550669402197003,-0.1517935395240783,-0.295153945684433,0.5041658878326416
1772650336224809200,6.249809326171875,1.3134861525774002,0.073729253077507,-0.2759682739511132,-0.2014869451522827,-0.4133392572402954,0.4026120007038116
1772650336234781200,6.25978125,1.371853585872054,-0.0918929785385727,-0.8206378995902835,-0.263328492641449,-0.5282567739486694,0.2776263952255249
1772650336244754200,6.269754150390625,1.350734225475788,-0.2799906613349914,-1.2986331590995193,-0.3587560355663299,-0.6074170470237732,0.1493292152881622
1772650336254726100,6.27972607421875,1.235298166525364,-0.4491781842172145,-1.6734775484748183,-0.4963312149047851,-0.6118626594543457,0.0208607148379087
1772650336264699100,6.28969921875,1.0698813943535088,-0.6069339202418923,-1.9810192106887696,-0.6633260250091553,-0.5465549826622009,-0.1230067536234855
1772650336274672400,6.29967236328125,0.9326093511700628,-0.7103197681754827,-2.0742779246225957,-0.8110334873199463,-0.4325058758258819,-0.2709552049636841
1772650336284644000,6.30964404296875,0.90523677559793,-0.6907485140040517,-1.8628886519573629,-0.8879445791244507,-0.2828262448310852,-0.4170860350131988
1772650336294617000,6.3196171875,0.9435603687733412,-0.5894575925230979,-1.4168934816904366,-0.9015583992004396,-0.1240642890334129,-0.5536550879478455
1772650336304589300,6.32958935546875,1.0562678795427085,-0.4729103574603795,-0.8870962848819792,-0.8607223629951477,-0.0273896362632513,-0.682500422000885
1772650336314562000,6.33956201171875,1.195205810111761,-0.3076034754037857,-0.4504859058149159,-0.7838568687438965,-0.0092513794079422,-0.7604367733001709
1772650336324534300,6.3495341796875,1.2237427532881495,-0.1950546623274683,-0.0252956231676042,-0.6817774772644043,-0.0549092404544353,-0.7724705338478088
1772650336334507300,6.35950732421875,1.0210153643757105,-0.1758656854718923,0.3308937500983476,-0.5687686204910278,-0.1549165248870849,-0.7043660283088684
1772650336344480300,6.369480224609375,0.6439554909080266,-0.1600578754872083,0.4739245029389858,-0.4599567055702209,-0.2715014219284057,-0.5846083164215088
1772650336354452200,6.3794521484375,0.2340057397514581,-0.1659179996922612,0.4292350279934704,-0.3676344752311706,-0.3474856615066528,-0.4225558340549469
1772650336364425200,6.38942529296875,-0.1747989330232143,-0.2505079617410898,0.2467811963029205,-0.2970325648784637,-0.3514808118343353,-0.2533439397811889
1772650336374397200,6.399397216796875,-0.4610533309280872,-0.3589090074881911,-0.0061364569284021,-0.2616505920886993,-0.3102886378765106,-0.1053587421774864
1772650336384370200,6.4093701171875,-0.5368552986264229,-0.4029714365765452,-0.2651518425129354,-0.2457578480243683,-0.2560217380523681,0.0084711574018001
1772650336394342100,6.419342041015625,-0.4904565355449914,-0.4943114574074745,-0.4821159927010536,-0.2473115473985672,-0.1976098120212555,0.0715995281934738
1772650336404315100,6.429315185546875,-0.2957762594878673,-0.6096037239730357,-0.4968338154919445,-0.2561073303222656,-0.1447053551673889,0.0994660556316375
1772650336414288400,6.439288330078125,-0.0775111097037792,-0.6739803345546126,-0.327925840203464,-0.2492214739322662,-0.1226061880588531,0.1064051911234855
1772650336424260000,6.449260009765625,0.0840291132956743,-0.6285094999730587,-0.0940353973947465,-0.2175464928150177,-0.1181520149111747,0.1108669489622116
1772650336434233000,6.459233154296875,0.2046849527209997,-0.5111427652209997,0.1543815834164619,-0.1788747310638427,-0.1080525070428848,0.1191078349947929
1772650336444205300,6.469205322265625,0.266253812405467,-0.4115297138243913,0.3300681129291653,-0.1363435387611389,-0.1001472622156143,0.1332659125328064
1772650336454178000,6.479177978515625,0.3388590298891067,-0.3908943375527858,0.4712738422997296,-0.0986723229289054,-0.1088448762893676,0.1345351785421371
1772650336464151000,6.489151123046875,0.4788485153377055,-0.3844207576245069,0.5645386937133967,-0.0674983188509941,-0.1258684396743774,0.0981861650943756
1772650336474123300,6.499123291015625,0.6615782413601875,-0.3607034896895289,0.5856403723224998,-0.0331387482583522,-0.1375290900468826,0.0435990802943706
1772650336484096000,6.509095947265625,0.7365531105846166,-0.3875102480724454,0.5444360360790044,-0.0066774245351552,-0.1224973052740097,-0.020598217844963
1772650336494068200,6.519068115234375,0.725627227422595,-0.3900233999371528,0.4579241660568863,0.0112648252397775,-0.0930890813469886,-0.0788239762187004
1772650336504041200,6.529041259765625,0.617650836828351,-0.3506538048401474,0.3241488789480179,0.023070640861988,-0.0483183339238166,-0.1203191354870796
1772650336514013000,6.539012939453125,0.424393287050724,-0.3321677155569195,0.1978298991944641,0.040366806089878,0.0235702376812696,-0.1319126784801483
1772650336523986200,6.548986083984375,0.1703904689311981,-0.3742746266633271,0.1177092645794153,0.0601812191307544,0.0965050160884857,-0.1083591133356094
1772650336533959200,6.558959228515625,0.032460254099965,-0.3958838164031505,0.0914398279435932,0.0802302956581115,0.1417564004659652,-0.0619905516505241
1772650336543931100,6.56893115234375,0.0211298817902803,-0.3999322150111198,0.1049031206287443,0.1012152880430221,0.1574029326438903,0.0005681739421561
1772650336553904000,6.578904052734375,0.0666173752456903,-0.4417611859589815,0.1651319638811051,0.1280548870563507,0.1656118631362915,0.0586181618273258
1772650336563876000,6.5888759765625,0.2287076333433389,-0.5072440042167902,0.2056936913721263,0.1494688242673874,0.1527631878852844,0.0921233966946601
1772650336573849000,6.59884912109375,0.5061866041183471,-0.5961486145943403,0.1901831107683479,0.1658278256654739,0.1323652267456054,0.0889467746019363
1772650336583821000,6.608821044921875,0.7221317865222692,-0.6958686334967613,0.1259954468876123,0.1799874901771545,0.1403697282075882,0.0724376440048217
1772650336593794000,6.6187939453125,0.7809493016719817,-0.7934186148837208,0.0552918252415955,0.1905232220888137,0.17796690762043,0.06290964782238
1772650336603767000,6.62876708984375,0.7607511477738619,-0.8476432492852211,-0.0315532222576439,0.1957419067621231,0.2130580395460128,0.0602930076420307
1772650336613739300,6.6387392578125,0.7546972545623779,-0.8361670387640595,-0.1147001458913087,0.2001041620969772,0.2404763549566269,0.0676459893584251
1772650336623712000,6.6487119140625,0.7488619725376368,-0.8562585174173116,-0.1539968218825757,0.2120419293642044,0.2423671036958694,0.088364340364933
1772650336633684200,6.658684326171875,0.7485340557575225,-0.8783876393780111,-0.064824792740494,0.2343765348196029,0.2158161848783493,0.1242344602942466
1772650336643657000,6.668656982421875,0.7425520587384701,-0.8395750936418771,0.0641097763389349,0.2614576816558838,0.1649603992700576,0.1806069761514663
1772650336653630000,6.6786298828125,0.8308978661894798,-0.7664882301211356,0.1657594481296837,0.2884349822998047,0.1018919497728347,0.221600204706192
1772650336663602200,6.688602294921875,0.9737392339378594,-0.6856427152976393,0.1367298991307616,0.3125259280204773,0.0543824136257171,0.2474603503942489
1772650336673575000,6.698574951171875,1.0168325257331132,-0.638247926916182,0.0590896100893616,0.345120370388031,0.0416077636182308,0.2612318098545074
1772650336683547100,6.708547119140625,0.9717062668055296,-0.6215624573141336,0.0147156308338046,0.3810032308101654,0.0565871708095073,0.2719289064407348
1772650336693520100,6.71852001953125,0.8852303448796272,-0.6026198564350604,-0.0192380766943097,0.4076833128929138,0.0868409499526023,0.2711382210254669
1772650336703491800,6.728491943359375,0.8055413066148758,-0.6027171793296933,-0.1342813369348645,0.4261772632598877,0.1221569702029228,0.2529498338699341
1772650336713465000,6.738465087890625,0.7165232989907264,-0.634314679120481,-0.231132960794121,0.4496359825134277,0.1625696569681167,0.2324522882699966
1772650336723438000,6.74843798828125,0.5828577558666468,-0.7422785024940967,-0.2665016496866941,0.4629794955253601,0.1954727470874786,0.2091610729694366
1772650336733410000,6.75841015625,0.4208282880455255,-0.8643217046245932,-0.3077776629269123,0.4570374488830566,0.2245118468999862,0.1753610372543335
1772650336743383000,6.768383056640625,0.1684358277320861,-0.9882961670786142,-0.4192500789433717,0.4571794867515564,0.2625331282615661,0.1559493094682693
1772650336753355000,6.77835498046875,-0.1744903054654598,-1.0662523902013896,-0.4053764518916606,0.4721634984016418,0.3318938314914703,0.1751829236745834
1772650336763328000,6.788327880859375,-0.6898486425548791,-1.19678372695297,-0.2292057921238243,0.4869726598262787,0.4082103371620178,0.2391216307878494
1772650336773301200,6.79830126953125,-1.0461369461506604,-1.3317816877245905,0.0509634406484663,0.4870099425315857,0.4116080105304718,0.3032319247722626
1772650336783273000,6.80827294921875,-1.0669336504638194,-1.38903794490695,0.3725910574905574,0.4972012341022491,0.3242510557174682,0.3335875272750854
1772650336793246000,6.818245849609375,-0.976800959596038,-1.384517252612114,0.6778127523243427,0.5231220126152039,0.2077931314706802,0.3341001868247986
1772650336803218200,6.82821826171875,-0.7879641488701105,-1.3904536569237709,0.9824380887001752,0.5541179180145264,0.127137690782547,0.3187636733055115
1772650336813191000,6.83819091796875,-0.6660130089372396,-1.3984119224518536,1.126948558704555,0.5705211162567139,0.0621152818202972,0.287532776594162
1772650336823163100,6.8481630859375,-0.4816343466639518,-1.2707789374902845,1.012231315547973,0.5684765577316284,-0.0811952427029609,0.2441976964473724
1772650336833136000,6.85813623046875,-0.2382476151049136,-0.9741329094305634,0.6274379252187907,0.5388017296791077,-0.2759676575660705,0.1446764320135116
1772650336843109000,6.868109130859375,-0.0094920509666204,-0.623904344265163,0.0269832109283655,0.4754520952701568,-0.4975898563861847,-0.0207056812942028
1772650336853081000,6.8780810546875,0.079600190937519,-0.4091296669453382,-0.5243299443785101,0.3852587938308716,-0.6934227347373962,-0.2308479994535446
1772650336863054000,6.88805419921875,-0.1302455055475234,-0.2522378542736173,-0.9669796036098152,0.283145546913147,-0.8022962808609009,-0.4686858654022217
1772650336873026000,6.898026123046875,-0.7234516369491815,-0.0406312855958938,-1.3310130414396524,0.1636037230491638,-0.7632766962051392,-0.6982349157333374
1772650336882999000,6.9079990234375,-1.5278490342259403,0.2469298109933733,-1.559726081610471,0.0762383043766021,-0.5385351777076721,-0.8556969165802002
1772650336892972000,6.917971923828125,-2.482889997434616,0.6119385966613888,-1.592237627506256,0.0521204471588134,-0.2159877568483352,-0.8860217928886414
1772650336902944000,6.927944091796875,-3.391384313523769,1.074552601034939,-1.3427452725484967,0.0995247140526771,0.1648858338594436,-0.7599786520004272
1772650336912917200,6.937917236328125,-4.101190286958217,1.4421619245901702,-0.818924592866376,0.2221962958574295,0.4644117951393127,-0.4721138477325439
1772650336922889000,6.947888916015625,-4.371150552666187,1.7722513725683091,-0.1040614821728318,0.3913926482200622,0.6436267495155334,-0.0756080150604248
1772650336932862000,6.957862060546875,-4.058348339575529,2.099238178355992,0.6929402518946677,0.5555946230888367,0.735628068447113,0.3314063549041748
1772650336942834200,6.967834228515625,-3.2520506616353986,2.24900203884393,1.301458737914264,0.6872473955154419,0.6519032120704651,0.6611546874046326
1772650336952807000,6.977806884765625,-2.0293699846208093,2.200999932219088,1.50243475311473,0.8017963767051697,0.4212045073509216,0.8752453923225403
1772650336962780000,6.98777978515625,-0.8707330329716205,2.012731276769936,1.6236641546443105,0.8911621570587158,0.1270001679658889,0.9909048080444336
1772650336972752100,6.997752197265625,0.0594762713193893,1.755636045593023,1.5113693163290618,0.9031866192817688,-0.1588920354843139,1.0041178464889526
1772650336982725000,7.00772509765625,0.6577747574239969,1.4840315198093652,1.0653307453118264,0.8304446339607239,-0.3344188630580902,0.9158090353012084
1772650336992697000,7.017697021484375,0.9731979666680096,1.1930158988520505,0.4003646881442517,0.67620450258255,-0.3699944317340851,0.7244859337806702
1772650337002670000,7.027670166015625,1.0830647010535002,0.8483563659906387,-0.2706299085978418,0.4848546385765075,-0.3135707974433899,0.4505545794963836
1772650337012642000,7.03764208984375,1.1155828228205442,0.5962967908933758,-0.8253078641626983,0.2869173288345337,-0.2158104479312896,0.1336746215820312
1772650337022615000,7.047614990234375,1.009611926829815,0.5251444025665521,-1.1631745220135896,0.1175888180732727,-0.1030290052294731,-0.179228737950325
1772650337032588000,7.057588134765625,0.7076835744529962,0.6355933207541704,-1.3040350181430578,-0.0271790195256471,0.0068828491494059,-0.4215191304683685
1772650337042560000,7.06756005859375,0.2031277864068746,0.8531234342619777,-1.192869914510101,-0.1357530057430267,0.1060841009020805,-0.5623699426651001
1772650337052533200,7.077533203125,-0.4172749794781207,1.0779761457428336,-0.9580063158202916,-0.2056644558906555,0.1745861917734146,-0.5905719995498657
1772650337062505000,7.0875048828125,-0.940291137844324,1.3305188281819225,-0.6531961974620819,-0.2308742403984069,0.2160302400588989,-0.5088188052177429
1772650337072478000,7.09747802734375,-1.2699153063982724,1.6145920826554296,-0.3437982398569583,-0.2099023908376693,0.2359432280063629,-0.3488563597202301
1772650337082451200,7.107451171875,-1.3353396724671125,1.7899138705089688,-0.0944381329767406,-0.1681839972734451,0.2098130136728286,-0.1630228608846664
1772650337092423000,7.1174228515625,-1.1015794319093226,1.8781012725278732,0.1466902982614934,-0.1163538247346878,0.1437628865242004,0.0074245049618184
1772650337102396000,7.12739599609375,-0.6180319451004266,1.8537720101743933,0.2718528745215386,-0.0900249034166336,0.0670931711792945,0.1176439970731735
1772650337112368000,7.1373681640625,0.0100362408459186,1.732470566321909,0.33377529688403,-0.0741652473807334,0.0006539598107337,0.1587932854890823
1772650337122341000,7.147341064453125,0.7286088735818862,1.5674138596341014,0.3508177632302046,-0.073752261698246,-0.0359556674957275,0.1116979494690895
1772650337132313000,7.15731298828125,1.38536364030838,1.412538355220854,0.2475561992634087,-0.0777627155184745,-0.0336791984736919,0.0048476597294211
1772650337142286000,7.1672861328125,1.821816198465228,1.2286556597709657,0.1128692772023379,-0.1060975715517997,0.0257788281887769,-0.1336736977100372
1772650337152259000,7.177259033203125,1.8862679201096293,0.9715440619811416,-0.1177503272421658,-0.1421157568693161,0.104553535580635,-0.2366757094860077
1772650337162231000,7.18723095703125,1.6702064178496598,0.7374667182981968,-0.2830012413278222,-0.1837199330329895,0.1633175909519195,-0.2882281541824341
1772650337172204000,7.1972041015625,1.3961071526408195,0.6436465710893273,-0.3175604404684156,-0.2217107266187667,0.1821791678667068,-0.2815684080123901
1772650337182176000,7.207176025390625,1.1696516821384428,0.6259437411382794,-0.3155403328176587,-0.2547316253185272,0.1640740185976028,-0.2326963990926742
1772650337192149000,7.21714892578125,0.9661316815435884,0.5513885586306453,-0.2344279837515205,-0.2723316848278045,0.1224410906434059,-0.1505085974931717
1772650337202121000,7.227120849609375,0.7739782936155796,0.4685983394801616,-0.1598461324326694,-0.2745639085769653,0.0586602687835693,-0.0571015365421772
1772650337212094000,7.237093994140625,0.7007979065924882,0.3887216696888208,-0.0235846545312553,-0.2787301540374756,-0.0174811072647571,0.0301518756896257
1772650337222067200,7.247067138671875,0.7156272269338368,0.2683209740683436,0.1416189863465726,-0.2800496220588684,-0.0913485214114189,0.0863609611988067
1772650337232039000,7.257038818359375,0.8308031736433505,0.1693719395384192,0.1827823329925537,-0.2809676229953766,-0.1442506164312362,0.0916129797697067
1772650337242012000,7.267011962890625,0.9917536140561104,0.1019876715734601,0.1483609348874539,-0.28349170088768,-0.1694401800632476,0.0529786944389343
1772650337251984100,7.276984130859375,1.132962412166595,-0.0176265498444437,0.0878504251495003,-0.288796991109848,-0.1806981563568115,-0.0158195421099662
1772650337261956900,7.286956787109375,1.2135066059559585,-0.1839133828490972,0.0079101155374199,-0.3041809201240539,-0.1860616654157638,-0.0928914323449134
1772650337271929900,7.296929931640625,1.166194235160947,-0.3074439009279012,-0.0719585170779377,-0.3308966755867004,-0.1826176643371582,-0.161953866481781
1772650337281902000,7.306902099609375,1.0849503686696291,-0.3975266151741147,-0.1493754456922411,-0.3579752445220947,-0.1840900033712387,-0.2186113446950912
1772650337291875000,7.316875,0.91446871432364,-0.4551195569649338,-0.1431604436349123,-0.3782525360584259,-0.1910291463136673,-0.2573275566101074
1772650337301847000,7.326846923828125,0.730155518501997,-0.4876446929946541,-0.1071783720843493,-0.3812039792537689,-0.1931521147489547,-0.2742681503295898
1772650337311820000,7.336820068359375,0.5527928724706173,-0.4908949269622564,-0.0637367783080786,-0.3720810413360595,-0.1995186656713485,-0.282356709241867
1772650337321792000,7.3467919921875,0.4440378987193107,-0.493288544100523,-0.0071723758473992,-0.3696286976337433,-0.2233928143978119,-0.2905360460281372
1772650337331765000,7.356764892578125,0.4000906204432249,-0.5137210912764072,0.0562228224813938,-0.3699024617671966,-0.2556490302085876,-0.2886912524700165
1772650337341738000,7.366738037109375,0.1916974608540534,-0.6200842014551162,0.0215778447534889,-0.3703811764717102,-0.2503175437450409,-0.2734715640544891
1772650337351710200,7.376710205078125,-0.0848264011532068,-0.7054740817099809,-0.0650968876801431,-0.3769794404506683,-0.232637345790863,-0.2353548109531402
1772650337361683200,7.38668310546875,-0.3110539081186056,-0.7225523500218987,-0.1072956417884677,-0.3806292414665222,-0.2346252501010894,-0.1848319321870803
1772650337371655000,7.396655029296875,-0.430379960244894,-0.703847649551928,-0.0615760931428521,-0.3790044486522674,-0.2523291409015655,-0.120507538318634
1772650337381628200,7.406628173828125,-0.5546189188539982,-0.7225412441059946,0.0556667229685932,-0.3736748099327087,-0.2701591849327087,-0.0571613311767578
1772650337391601200,7.41660107421875,-0.6156453422248364,-0.7507724823340773,0.1456442963398992,-0.3588908016681671,-0.2794725000858307,0.0076285838149487
1772650337401572900,7.42657275390625,-0.663462739932537,-0.7213257308363914,0.213047853527218,-0.3407206237316131,-0.2857996821403503,0.0721736773848533
1772650337411546000,7.436546142578125,-0.6211492003381252,-0.663291182757914,0.2376676963251084,-0.3241568207740783,-0.2878420352935791,0.1100193262100219
1772650337421518000,7.44651806640625,-0.4628039739876985,-0.6262821793124079,0.2415850889645516,-0.3144671320915222,-0.29338139295578,0.1292290538549423
1772650337431491000,7.456490966796875,-0.307584186181426,-0.6510989329218864,0.1975170338530093,-0.3135539293289184,-0.3044503033161163,0.1207418218255043
1772650337441463000,7.466463134765625,-0.1191618014752864,-0.6981678503498434,0.1544223538182675,-0.3254576623439789,-0.3131001889705658,0.0918909087777137
1772650337451436000,7.47643603515625,-0.0226490541815757,-0.7102472874611616,0.0517205426260828,-0.3379036784172058,-0.3130154907703399,0.063406802713871
1772650337461409000,7.486408935546875,-0.07536474532485,-0.7522232656642794,-0.0205491592928767,-0.3528291583061218,-0.2923399209976196,0.0529291443526744
1772650337471381000,7.496381103515625,-0.1813210282683372,-0.763594846767187,0.0331299700550734,-0.3574188351631164,-0.2896687686443329,0.0586200542747974
1772650337481354000,7.50635400390625,-0.2799135044455528,-0.7012804294124245,0.1658783983342349,-0.3459295928478241,-0.2981828451156616,0.0871252417564392
1772650337491326200,7.516326171875,-0.3212386175245046,-0.657513476139307,0.298049318986386,-0.3298717737197876,-0.3116107881069183,0.1174799501895904
1772650337501299200,7.52629931640625,-0.2933101616352796,-0.6913084859743714,0.4209023031298071,-0.3161470592021942,-0.3527511358261108,0.1548956930637359
1772650337511272000,7.53627197265625,-0.2930728457480669,-0.7366144853830338,0.5090001271691174,-0.303790271282196,-0.3940439820289612,0.1944364458322525
1772650337521244200,7.546244140625,-0.3177835086345672,-0.7866510204449295,0.5332141656450927,-0.2898545861244201,-0.3938008546829223,0.2392304390668869
1772650337531217200,7.556217041015625,-0.3851169231951236,-0.8541358261749148,0.5841084865801036,-0.278510570526123,-0.3834363520145416,0.3050656616687774
1772650337541188900,7.56618896484375,-0.388318349584937,-0.979810662806034,0.7080979274075478,-0.2798116207122803,-0.4142467081546783,0.3618675768375397
1772650337551162000,7.576162109375,-0.2351426348268985,-1.0574003907039762,0.8422753655765205,-0.2875534296035766,-0.4936136901378631,0.3801499307155609
1772650337561134000,7.586134033203125,0.0381096581637859,-0.9825929870009422,0.834892854109779,-0.3097504675388336,-0.5872944593429565,0.3342706263065338
1772650337571107000,7.596107177734375,0.3625988019168377,-0.9711375270068644,0.7112341065414249,-0.3601718246936798,-0.6734285354614258,0.1969979703426361
1772650337581080000,7.606080078125,0.6825017869234085,-1.0270555213227868,0.3720044532416388,-0.4492331445217132,-0.7320191264152527,-0.0494190119206905
1772650337591052000,7.616052001953125,0.8672095350205897,-1.0713120116785169,-0.1138419946920126,-0.5637181997299194,-0.7282547354698181,-0.3570972084999084
1772650337601025000,7.62602490234375,0.714211514917016,-1.080851116657257,-0.5974594414645805,-0.682089626789093,-0.6379024386405945,-0.6269415616989136
1772650337610997000,7.6359970703125,0.1454682091206312,-0.9092141547963024,-0.9265729936152696,-0.7688652276992798,-0.4787705838680267,-0.7617289423942566
1772650337620970000,7.645969970703125,-0.642332273620367,-0.5368766336753964,-0.9311331411376595,-0.8224380612373352,-0.3179618716239929,-0.7501576542854309
1772650337630942700,7.655942626953125,-1.2524591446846722,-0.0639598464742302,-0.7270612788137049,-0.8305942416191101,-0.2094796150922775,-0.624635636806488
1772650337640916000,7.665916015625,-1.5499866317540407,0.3222752670958638,-0.5326541571421548,-0.7903567552566528,-0.1580846458673477,-0.4164316356182098
1772650337650888700,7.675888671875,-1.5344254900068044,0.5972650514036416,-0.2367112358504906,-0.7235625386238098,-0.1803002059459686,-0.1924861669540405
1772650337660860700,7.685860595703125,-1.2056436174958944,0.7554758377194404,0.0494063108669593,-0.6568406224250793,-0.2728280425071716,-0.016846464946866
1772650337670834000,7.695833984375,-0.6601198592454195,0.8800678475499153,0.1495892711060121,-0.6074360609054565,-0.3910713195800781,0.077188953757286
1772650337680805600,7.7058056640625,-0.1459784967303276,0.8581362939879298,0.119128045336157,-0.5799457430839539,-0.4609960913658142,0.1019104197621345
1772650337690778600,7.715778564453125,0.0820224496483802,0.7682613772735,0.0458105879299342,-0.5637734532356262,-0.439569890499115,0.0968187227845192
1772650337700752000,7.725751953125,-0.0504044915914535,0.7000000342130661,-0.0774779015539214,-0.5572065114974976,-0.3332074582576751,0.0909556299448013
1772650337710723800,7.735723876953125,-0.3600532090872526,0.7689727404132485,-0.146383789595589,-0.5474202036857605,-0.1772822886705398,0.1172085404396057
1772650337720696600,7.745696533203125,-0.6652864482283591,0.9514934998601674,-0.1295250457858666,-0.5113651156425476,-0.046323038637638,0.1796034723520279
1772650337730668800,7.755668701171875,-0.7987538384318351,1.1401558308020234,0.0483601628148928,-0.4576813578605652,0.0315408669412136,0.2682233452796936
1772650337740641800,7.765641845703125,-0.7650111433058977,1.2260150821343063,0.3235587675677612,-0.3932341635227203,0.0158157031983137,0.3747320473194122
1772650337750613800,7.77561376953125,-0.562860677498579,1.252023091354966,0.5387054565377533,-0.3369554281234741,-0.0787339732050895,0.4778869152069092
1772650337760586800,7.785586669921875,-0.3028220863461494,1.240359249307215,0.6350146440833807,-0.2942705750465393,-0.2166860550642013,0.5532847046852112
1772650337770559700,7.795559814453125,-0.1320189449608325,1.1634367531463503,0.5584871020568535,-0.2731610238552093,-0.3370188772678375,0.5722240209579468
1772650337780532000,7.805531982421875,-0.0039969606816768,1.0816168403327464,0.2994074190644547,-0.2690896689891815,-0.406302660703659,0.529544472694397
1772650337790504700,7.815504638671875,0.0560702622681856,0.971445862303674,-0.1097994047703221,-0.2849858105182647,-0.4436351358890533,0.4167816936969757
1772650337800476700,7.8254765625,0.0841828425526619,0.8322428510576486,-0.4680063284037634,-0.3318045735359192,-0.465423971414566,0.2350883185863495
1772650337810450000,7.835449951171875,0.0513578467935323,0.6467708405897021,-0.8965847556520253,-0.4126528203487396,-0.4447479844093323,-0.0060398746281862
1772650337820423000,7.8454228515625,-0.148750884053111,0.4602975441247224,-1.439947609541565,-0.5030980110168457,-0.3466677367687225,-0.2538728713989258
1772650337830394600,7.85539453125,-0.5009913735628128,0.3388020390048623,-1.8103604462102052,-0.5979033708572388,-0.1769239753484726,-0.4602281451225281
