time,seconds_elapsed,acc_z,acc_y,acc_x,gyro_z,gyro_y,gyro_x
1772650342981559800,0.064559814453125,-0.9142319829583168,-0.4181412409186363,1.1911086039260028,-0.1468337774276733,-0.2507442235946655,-0.0404779948294162
1772650342991532800,0.07453271484375,-0.8006523655295371,-0.4479825446918606,0.9886936419636012,-0.1199474185705185,-0.2165870815515518,0.0003551513655111
1772650343001505000,0.084505126953125,-0.6659177318692207,-0.5266092144221067,0.96178342320621,-0.1043929606676101,-0.1945595443248748,0.0231273081153631
1772650343011477800,0.094477783203125,-0.5100128844082356,-0.6700073392704129,1.0987161514326929,-0.0866508707404136,-0.2130034416913986,0.0316230431199073
1772650343021450800,0.10445068359375,-0.2277829197138547,-0.7391124396786093,1.241943742019683,-0.0597862303256988,-0.2630681991577148,0.0094247981905937
1772650343031423000,0.114423095703125,0.036011224579811,-0.7817512657046317,1.3439346284635365,-0.0277399942278862,-0.2870852351188659,-0.0291777085512876
1772650343041396000,0.12439599609375,0.072136430928111,-0.8163982161939144,1.296241733918339,-0.0004548439756035,-0.2611266076564789,-0.0769263207912445
1772650343051367700,0.13436767578125,-0.0342564898669719,-0.8632119898170232,1.1985169804863631,0.0175707302987575,-0.1821752786636352,-0.1154619231820106
1772650343061341000,0.1443408203125,-0.1696849510103464,-0.8226943937286734,1.1539511319205165,0.0469422005116939,-0.0750743746757507,-0.1279252469539642
1772650343071314000,0.15431396484375,-0.2327221296817064,-0.7766653407424687,1.114222786513716,0.0947066321969032,-0.002828441793099,-0.1213497593998909
1772650343081285600,0.16428564453125,-0.2091927855342626,-0.7331684365823864,1.1009819044075906,0.1494095623493194,-0.0023501380346715,-0.0824223384261131
1772650343091259000,0.1742587890625,-0.2260141564756631,-0.737723615668714,1.0940559045366942,0.1910549104213714,-0.0411845855414867,-0.009401798248291
1772650343101230800,0.18423095703125,-0.3117266928136348,-0.7790922756284475,1.0315922879695891,0.2092038094997406,-0.0953839123249054,0.0944178029894828
1772650343111203800,0.194203857421875,-0.3182628165841102,-0.7765063507884741,0.9096186439439654,0.1969204246997833,-0.1750527173280716,0.1992250680923462
1772650343121175800,0.20417578125,-0.2988718874156474,-0.7897773357719182,0.750582804980874,0.1518051475286483,-0.2497264146804809,0.2829375267028808
1772650343131148800,0.214148681640625,-0.2440507484257221,-0.8117688028275967,0.6720265701383352,0.0990912616252899,-0.2866826057434082,0.3339211344718933
1772650343141121800,0.224121826171875,-0.1075648871839046,-0.7355141229256987,0.6711489105209708,0.060083944350481,-0.3012234568595886,0.3396245837211609
1772650343151093800,0.23409375,0.1020855789899825,-0.6502540065303445,0.6494206244461238,0.0297428164631128,-0.2968651950359344,0.2861360609531402
1772650343161066800,0.244066650390625,0.1669856289237737,-0.5954334520623088,0.5826346146352589,0.003466737922281,-0.281509667634964,0.1995225846767425
1772650343171039000,0.2540390625,0.0389618910789489,-0.4597878410369158,0.499576392198354,-0.0209875181317329,-0.2758856117725372,0.1194670796394348
1772650343181012000,0.264011962890625,-0.2447252866864204,-0.2908227287337184,0.4380841048814356,-0.0367901846766471,-0.2697611451148987,0.0716574788093566
1772650343190984700,0.273984619140625,-0.6169008952438831,-0.1020209893211722,0.3963806600093841,-0.0459021031856536,-0.2571406066417694,0.0494753308594226
1772650343200957000,0.28395703125,-0.9169237062603236,0.0844563987970352,0.3760714469522238,-0.0486944280564785,-0.2584998905658722,0.057642713189125
1772650343210930000,0.293929931640625,-1.1520371149927378,0.2731549700960516,0.3296380509488284,-0.0413498058915138,-0.2653989791870117,0.09702879935503
1772650343220901600,0.303901611328125,-1.3579992480427026,0.434063324932754,0.2883554618373513,-0.0215859524905681,-0.268627256155014,0.1714561581611633
1772650343230875000,0.313875,-1.444665139582753,0.5161997563496231,0.1861805971287191,0.0053847869858145,-0.2603372037410736,0.267808735370636
1772650343240846800,0.323846923828125,-1.3413590788871048,0.5526707073956728,0.0906599296122789,0.0239068064838647,-0.2409488558769226,0.3474505543708801
1772650343250819600,0.333819580078125,-1.109219717529416,0.5543018157288432,-0.0473586941547691,0.0336227007210254,-0.214624598622322,0.4106665253639221
1772650343260792800,0.343792724609375,-0.8196955041736363,0.5129819633468985,-0.1888558076873421,0.0460239760577678,-0.1945579499006271,0.4467757940292358
1772650343270764800,0.353764892578125,-0.3834370072841644,0.427050815822184,-0.2316340421840548,0.0500331446528434,-0.19452466070652,0.4398388564586639
1772650343280737800,0.36373779296875,0.1552595352947711,0.3189274179726838,-0.2711361776195466,0.0444700643420219,-0.2344425171613693,0.3719705939292907
1772650343290709800,0.373709716796875,0.5932791966378689,0.1628045438468456,-0.3320980113215744,0.0236030109226703,-0.2940003275871277,0.2572526931762695
1772650343300682800,0.383682861328125,0.8850380371779203,0.0157493577957153,-0.3888536255054176,-0.012055916711688,-0.3577492237091064,0.1049675792455673
1772650343310655700,0.39365576171875,0.990605613064766,-0.0681295333743095,-0.3835528887487948,-0.0526174902915954,-0.4325246214866638,-0.0337556153535842
1772650343320627700,0.403627685546875,0.8817845883399248,-0.0379047832414507,-0.4127357286132871,-0.0838893875479698,-0.5317031145095825,-0.1359504163265228
1772650343330600700,0.4136005859375,0.5772048446714878,-0.0230059047952294,-0.4302830757416784,-0.0954358279705047,-0.6206003427505493,-0.1738357841968536
1772650343340573000,0.423572998046875,0.2569061383455991,0.0036734278157353,-0.4213175328671932,-0.0830614566802978,-0.7154117822647095,-0.1642502695322036
1772650343350546000,0.4335458984375,-0.0082844287425279,0.0925379984438419,-0.4275669486507773,-0.0505159944295883,-0.8370975852012634,-0.1006505414843559
1772650343360517600,0.443517578125,-0.1739537143707275,0.1422004394963383,-0.4205212679229676,0.0080240154638886,-0.9602906107902528,0.0027810395695269
1772650343370491000,0.453490966796875,-0.2543751585632562,0.1531248613536358,-0.4960960027366876,0.0629628896713256,-1.0387592315673828,0.1322849243879318
1772650343380463900,0.4634638671875,-0.2864461210846901,0.1180693300634622,-0.7695658109355717,0.0905905216932296,-1.0324792861938477,0.2434684336185455
1772650343390435600,0.473435546875,-0.3023065380394458,-0.0164963767707347,-1.1411270869869738,0.0525398552417755,-0.9715260863304138,0.3095942139625549
1772650343400408800,0.483408935546875,-0.3558960894078016,-0.2616553786993026,-1.3801245706111192,-0.0307569000869989,-0.9370783567428588,0.3468824625015259
1772650343410380800,0.493380859375,-0.5743927098602056,-0.3781625740125775,-1.476491771954298,-0.1242539435625076,-0.8902691602706909,0.4210706949234009
1772650343420353800,0.503353759765625,-0.8999462679743766,-0.3322697146266699,-1.4699439577460287,-0.1949451565742492,-0.8071540594100952,0.5576969385147095
1772650343430325800,0.51332568359375,-1.1215630662739275,-0.1075365378722548,-1.4343682019740345,-0.2352605015039444,-0.7151174545288086,0.7412304878234863
1772650343440298800,0.523298828125,-1.110156121596694,0.1390346689417958,-1.36139824283123,-0.2588310837745666,-0.6285713315010071,0.9286728501319884
1772650343450271700,0.533271728515625,-0.8206471058100462,0.3153729403614997,-1.1332016277499497,-0.2702874839305877,-0.5373196005821228,1.0853232145309448
1772650343460243700,0.54324365234375,-0.4809089549988508,0.32516368201375,-0.904852744716406,-0.2850685715675354,-0.4691021740436554,1.194554090499878
1772650343470216700,0.553216796875,-0.1706096646398305,0.3145867584198713,-0.8014103442899883,-0.2914027869701385,-0.4213472306728363,1.24869704246521
1772650343480189000,0.56318896484375,0.1773269901961088,0.4559498703092336,-0.6863057092510163,-0.2957570552825928,-0.3488072454929352,1.2638022899627686
1772650343490162000,0.573161865234375,0.4905126496464014,0.6743886230945587,-0.4864159549172967,-0.2660668492317199,-0.2718581557273865,1.254081130027771
1772650343500134700,0.583134765625,0.7163952886968851,0.8218319316804409,-0.2720098917141557,-0.1995783746242523,-0.203957125544548,1.223099946975708
1772650343510107000,0.59310693359375,0.93399525257051,0.8419967678308486,-0.1038774308428168,-0.1421810835599899,-0.1998747587203979,1.1468929052352903
1772650343520080000,0.603079833984375,1.3172563187658786,0.7254249828487634,-0.0785354112502187,-0.1253741383552551,-0.2323932945728302,0.969111979007721
1772650343530051600,0.613051513671875,1.6772534137517212,0.5006751472204923,-0.2675174756657332,-0.1559188812971115,-0.2369601726531982,0.7289358377456665
1772650343540024800,0.62302490234375,1.917294926536083,0.3272030788868665,-0.5004155464362353,-0.2013851702213287,-0.2260135114192962,0.4529180824756622
1772650343549996800,0.632996826171875,2.0438591132223607,0.2690034033745527,-0.6996820543050766,-0.2517998218536377,-0.2107918858528137,0.1632785648107528
1772650343559969800,0.6429697265625,2.0572598620653157,0.1968342392206191,-0.8006307382196187,-0.2875913679599762,-0.1918988823890686,-0.1125948205590248
1772650343569942800,0.65294287109375,1.849977294066548,0.196976278039813,-0.7733695871327072,-0.3072476387023926,-0.1221570894122123,-0.3582408130168915
1772650343579914800,0.662914794921875,1.4339859246581792,0.2601280230015516,-0.6213228764045983,-0.3160009086132049,-0.0110998060554265,-0.5304256081581116
1772650343589887700,0.6728876953125,0.9857698634713888,0.3011988690584898,-0.4635101494956761,-0.3001876473426819,0.1027669608592987,-0.6234053373336792
1772650343599859700,0.682859619140625,0.6116086340546608,0.3101677729338407,-0.271504353344813,-0.2756399810314178,0.2087543755769729,-0.6620081067085266
1772650343609832700,0.692832763671875,0.4274526746213435,0.3218190477609634,-0.0546198442641645,-0.2392838597297668,0.2782569527626037,-0.6587567329406738
1772650343619805700,0.7028056640625,0.3804197052896023,0.306263751232624,0.2048397048912942,-0.1888846009969711,0.3006967604160309,-0.6351398229598999
1772650343629777200,0.712777099609375,0.4412006294667721,0.2542915719330311,0.3915487828735262,-0.1408564746379852,0.2709243595600128,-0.6127609610557556
1772650343639750100,0.722750244140625,0.5260077413976192,0.1538707112848758,0.428072852346301,-0.1026896387338638,0.2103278785943985,-0.5921694040298462
1772650343649722000,0.73272216796875,0.594075315451622,0.0457020129889249,0.4242356853362172,-0.0682038739323616,0.1338458061218261,-0.5672622323036194
1772650343659695000,0.742695068359375,0.6545856059938668,-0.0226163209557533,0.403861371153593,-0.0491204634308815,0.0310754887759685,-0.544347882270813
1772650343669667300,0.752667236328125,0.6616437078118323,-0.0821978062152862,0.4251956894747912,-0.0364305712282657,-0.074933260679245,-0.5198765397071838
1772650343679640300,0.762640380859375,0.4593851054549216,-0.1650929470449686,0.3670212214689701,-0.0323048010468483,-0.1301973164081573,-0.4801523089408874
1772650343689613000,0.772613037109375,0.1428419522702693,-0.2088701294511556,0.2489392511196434,-0.0201093070209026,-0.1314230263233184,-0.431194543838501
1772650343699585300,0.782585205078125,-0.0055289925545454,-0.1851443859487772,0.1973160313881933,-0.0075303986668586,-0.1021133288741111,-0.3988763093948364
1772650343709558300,0.792558349609375,-0.0342711029142141,-0.2553057174116372,0.1729340159341693,0.0054245446808636,-0.0596273206174373,-0.3864777386188507
1772650343719530000,0.802530029296875,-0.1536450858354568,-0.4138184092834591,0.1032191861297935,0.0161301847547292,0.0173971578478813,-0.3721986711025238
1772650343729503200,0.812503173828125,-0.2490221070975065,-0.5228019310936332,0.0068390522398054,0.0196181274950504,0.1124722734093666,-0.3575246632099151
1772650343739475200,0.82247509765625,-0.1907119569480419,-0.574155101712048,-0.0189147630240768,0.0227800980210304,0.1555081605911255,-0.3399792015552521
1772650343749448200,0.8324482421875,-0.0248819278001785,-0.6434843662649393,0.0933035759888589,0.0256262198090553,0.1367597728967666,-0.3227288424968719
1772650343759421200,0.842421142578125,0.061953475087881,-0.7283429161220788,0.2136380014400929,0.0318265929818153,0.0828973427414894,-0.2942253053188324
1772650343769393200,0.85239306640625,0.007211831074953,-0.7269038232296705,0.2129253231260925,0.0392316505312919,0.0417670607566833,-0.2480507642030716
1772650343779366100,0.8623662109375,-0.1034638816058635,-0.7088894431114197,0.1782693125475198,0.0580396950244903,0.0123897287994623,-0.1768053472042083
1772650343789338000,0.872338134765625,-0.172501761996746,-0.7057666349157691,0.2119767902296036,0.0697516724467277,-0.0195554420351982,-0.0974697321653366
1772650343799311000,0.88231103515625,-0.1404495041757822,-0.6911667394161224,0.2079873552672564,0.070727989077568,-0.0240761581808328,-0.0297772381454706
1772650343809284000,0.8922841796875,-0.0718354021549224,-0.7496993001446127,0.1652401734959334,0.0671765208244323,0.0239509791135787,0.0314052477478981
1772650343819256300,0.90225634765625,0.1053717610538005,-0.7700044215485453,0.2112681305035948,0.0645208060741424,0.065075509250164,0.0702716931700706
1772650343829229000,0.91222900390625,0.3565940085440874,-0.7824161593541502,0.2794397494539618,0.0678291395306587,0.0927542522549629,0.0859779119491577
1772650343839201300,0.922201171875,0.5701408976346254,-0.8284414129480719,0.3490404513593763,0.0656061992049217,0.1173605322837829,0.0760552436113357
1772650343849174300,0.93217431640625,0.7545487860023975,-0.9219964794799684,0.265138544639945,0.0589445754885673,0.1410292387008667,0.0473797544836998
1772650343859146200,0.942146240234375,0.9154542182296516,-0.9981029830828309,0.1806167524565011,0.0518472492694854,0.1628240048885345,0.0122268265113234
1772650343869119200,0.952119140625,1.0094611201822756,-1.093675526916981,0.175580000398308,0.0345707088708877,0.1615314930677414,-0.0184060279279947
1772650343879092200,0.96209228515625,1.101722055250406,-1.1695222105398773,0.2274209545336663,0.0149983391165733,0.1385002136230468,-0.0363666526973247
1772650343889064200,0.972064208984375,1.112573119610548,-1.2189987736314534,0.2711851313278078,-0.0050837560556828,0.1040247306227684,-0.0439560748636722
1772650343899037200,0.982037109375,1.1405097588062283,-1.2443962497383356,0.2960922666344791,-0.0115216821432113,0.0666685700416565,-0.0487702712416648
1772650343909009200,0.992009033203125,1.202380816307664,-1.2207166834652423,0.359722735023871,-0.0015365025028586,0.0142208533361554,-0.0469662547111511
1772650343918982100,1.001982177734375,1.2398089219480752,-1.233112346918881,0.4430178349565714,0.0301511213183403,-0.0530106462538242,-0.0437840446829795
1772650343928955400,1.011955322265625,1.2606944735884666,-1.2417404745325444,0.4843569765608757,0.0804472640156745,-0.1123320311307907,-0.0379350259900093
1772650343938927000,1.021927001953125,1.2027262687444686,-1.302676881532371,0.3881879281383008,0.1269665658473968,-0.1613693535327911,-0.024512693285942
1772650343948900000,1.031900146484375,1.0684551609426736,-1.4326067452594635,0.168645451894775,0.1523327678442001,-0.1912838220596313,0.0096317334100604
1772650343958872300,1.041872314453125,0.8201654597729444,-1.6089587529435754,-0.0747508512102067,0.1418694704771042,-0.1790308803319931,0.0522151440382003
1772650343968845000,1.051844970703125,0.546034630382061,-1.819997750866413,-0.3122217828541994,0.0892889350652694,-0.1333236247301101,0.088996946811676
1772650343978817300,1.0618173828125,0.379521295145154,-1.998933929824829,-0.3917545345786958,0.0295518357306718,-0.0786036476492881,0.1308570504188537
1772650343988790300,1.071790283203125,0.2829752301037311,-2.0792998444378377,-0.3088065675832331,-0.0198977068066597,-0.0114547573029994,0.1648050844669342
1772650343998763300,1.08176318359375,0.2812146501719951,-2.019824157640338,-0.2206148547153919,-0.0557169541716575,0.0680826753377914,0.1730459779500961
1772650344008735200,1.0917353515625,0.3768172968834638,-1.9677967410221693,-0.1555577875889837,-0.076645016670227,0.13051538169384,0.1418489962816238
1772650344018708200,1.101708251953125,0.4719634319990873,-1.931636171099544,-0.053386210815981,-0.0805012732744216,0.1647476553916931,0.0776191353797912
1772650344028680400,1.111680419921875,0.4389695094138384,-1.874045567396283,0.0477376835349947,-0.0723849907517433,0.1736329048871994,0.0051475828513503
1772650344038653200,1.121653076171875,0.2599690330475568,-1.7529633192524312,0.163691921140626,-0.0644852519035339,0.1725394129753112,-0.0509889237582683
1772650344048626200,1.131626220703125,-0.0764437727332115,-1.6039496926099062,0.1964598529502749,-0.0577085800468921,0.1837713718414306,-0.1001344099640846
1772650344058598400,1.141598388671875,-0.4544745370596647,-1.4321113629579545,0.2161134516429156,-0.041925624012947,0.1991274207830429,-0.1382378488779068
1772650344068571400,1.1515712890625,-0.851084329649806,-1.3146549040958284,0.2658592601299285,-0.0191102810204029,0.2381640970706939,-0.1675800085067749
1772650344078543000,1.161543212890625,-1.2967360933065413,-1.1950552957251668,0.3225386672724038,0.0133627066388726,0.3000138998031616,-0.1543313115835189
1772650344088516400,1.171516357421875,-1.7280933741509914,-1.0359773711860178,0.3289535758160054,0.050104085355997,0.3685669004917145,-0.0937431529164314
1772650344098488300,1.18148828125,-2.1165052472382784,-0.8426233752965927,0.3228626385297626,0.0913809537887573,0.4582728147506714,0.0120879355818033
1772650344108461000,1.1914609375,-2.381404137903452,-0.6789096076503396,0.2759125251758843,0.1332291811704635,0.562106728553772,0.1594260782003402
1772650344118434300,1.201434326171875,-2.5844927613437174,-0.587585076649487,0.3109895376455038,0.1714703142642974,0.6579374074935913,0.3432518243789673
1772650344128406300,1.21140625,-2.4940379989147186,-0.5275932570233941,0.5486900402616709,0.2086638808250427,0.6728016138076782,0.5492066740989685
1772650344138379300,1.221379150390625,-2.060259043881297,-0.4248264177709818,0.9059309684071688,0.2534036338329315,0.6330763101577759,0.7527198195457458
1772650344148351200,1.231351318359375,-1.3784697891414164,-0.3655608665928244,1.3539447119548915,0.3163121342658996,0.5251691937446594,0.8999922871589661
1772650344158324200,1.24132421875,-0.5689075564473867,-0.3621224165767431,1.723379789632559,0.3872113525867462,0.3381135165691376,0.95311039686203
1772650344168297200,1.251297119140625,0.2851017207384109,-0.3924795609176159,1.9157861294083296,0.4380931258201599,0.0922086015343666,0.9037010669708252
1772650344178269200,1.261269287109375,0.993496073809266,-0.3788017486989498,1.8544949176214636,0.4486698508262634,-0.1335339844226837,0.7243033647537231
1772650344188242200,1.2712421875,1.486706291976571,-0.3739274206608534,1.5331731518581508,0.4145354032516479,-0.2954156100749969,0.4176874160766601
1772650344198214400,1.28121435546875,1.5688929922759531,-0.3265647809833288,1.0732252979539334,0.3626623749732971,-0.3170332908630371,0.0200750585645437
1772650344208187100,1.291187255859375,1.167211887770891,-0.1994680948555469,0.5251549239605665,0.3067851066589355,-0.1933219581842422,-0.3710774779319763
1772650344218159000,1.3011591796875,0.415226814776659,0.0119879594355821,-0.0241893424261361,0.2506270110607147,0.0317463167011737,-0.6451470851898193
1772650344228132400,1.31113232421875,-0.4972165311992168,0.447481901693344,-0.3921636999014765,0.2126265168190002,0.2746868431568146,-0.7547910213470459
1772650344238105300,1.321105224609375,-1.2146271344184876,1.0454928030282258,-0.5962883883912116,0.1934698522090912,0.4425514638423919,-0.709202229976654
1772650344248077000,1.3310771484375,-1.5366285530090331,1.5116525171846151,-0.5513024147171527,0.1918970942497253,0.5482121109962463,-0.6127844452857971
1772650344258050300,1.34105029296875,-1.4780144514769316,1.850522068467736,-0.4252664166234433,0.2011715471744537,0.6013554930686951,-0.5794496536254883
1772650344268022300,1.351022216796875,-1.1791858186811208,1.9674097875311969,-0.2277051052372902,0.2487219721078872,0.6268479824066162,-0.6065165400505066
1772650344277995000,1.3609951171875,-1.0498907457262276,1.8971730527445676,0.1742244941361248,0.344320148229599,0.6517762541770935,-0.6292857527732849
1772650344287967200,1.37096728515625,-1.2085738257288932,1.850565323087573,0.6024972529686987,0.4707088470458984,0.6752528548240662,-0.5699548125267029
1772650344297940200,1.380940185546875,-1.5389631334364413,1.9389698749884965,0.7659735585972667,0.5946142673492432,0.7186040282249451,-0.4092743098735809
1772650344307913200,1.390913330078125,-1.8743635473042728,2.076369051682949,0.7300199094235896,0.702640175819397,0.8161311149597168,-0.1560890525579452
1772650344317885200,1.40088525390625,-2.0465987673193213,2.088521261769533,0.6230575181774795,0.7921951413154602,0.9372453093528748,0.1502660810947418
1772650344327858200,1.410858154296875,-1.855015288233757,1.9963965203017,0.5974637888461352,0.8656291961669922,1.0087155103683472,0.4429323375225067
1772650344337830400,1.420830322265625,-1.1436585782259705,1.8029378949940205,0.8053747178763151,0.9193862080574036,0.9709287285804749,0.6788372993469238
1772650344347803100,1.43080322265625,-0.1600485231369733,1.599194022515416,1.0095252714596687,0.9578301310539246,0.8422180414199829,0.8024513721466064
1772650344357776100,1.440776123046875,0.8087970935404301,1.3507459159135815,1.1956051846928897,0.9733878374099731,0.6429853439331055,0.8048197031021118
1772650344367748400,1.450748291015625,1.5824340263724326,1.0608072765380143,1.3598603657394648,0.9499396085739136,0.4078023433685303,0.696418821811676
1772650344377721300,1.460721435546875,2.10846397960186,0.761177848753333,1.3694707823887466,0.8857055306434631,0.1763139814138412,0.5056781768798828
1772650344387693000,1.470693115234375,2.304346617186069,0.538531707406044,1.184873801189661,0.7871862053871155,-0.0023135524243116,0.260944664478302
1772650344397666300,1.480666259765625,2.113645181632042,0.461527378180623,0.8565510706230998,0.6699565052986145,-0.0862739607691764,-0.0050084330141544
1772650344407638300,1.49063818359375,1.5847434723585845,0.5075497091650962,0.3938347749188542,0.5611829161643982,-0.0832445472478866,-0.2848768830299377
1772650344417611000,1.500611083984375,0.9199754950463772,0.6350374404370784,-0.0028415070362389,0.4560745656490326,-0.002513752086088,-0.5762115120887756
1772650344427584300,1.510584228515625,0.2311100183099508,0.7302350134789943,-0.3237392021685839,0.3703073561191559,0.1493427902460098,-0.8371149897575378
1772650344437556200,1.52055615234375,-0.4940039988934993,0.8464619305461645,-0.5222495579078793,0.310784101486206,0.3604142963886261,-1.0190478563308716
1772650344447529200,1.530529296875,-1.172387244582176,0.9250567438334226,-0.6912126243844628,0.2541057169437408,0.5818455219268799,-1.0881367921829224
1772650344457501200,1.540501220703125,-1.6714935350507496,0.9992807946905492,-0.7523033451631664,0.2131044566631317,0.753993034362793,-1.03558087348938
1772650344467474200,1.55047412109375,-1.8801807091504332,1.0979971895083784,-0.6731180186368525,0.1848819553852081,0.85114586353302,-0.880621612071991
1772650344477446400,1.5604462890625,-1.703912288096547,1.206037877510488,-0.5134926893480122,0.1822297275066375,0.8176294565200806,-0.6703807711601257
1772650344487419100,1.570419189453125,-1.2892296631991862,1.28088561322391,-0.3104682171851396,0.1970884054899215,0.6767712235450745,-0.4532071948051452
1772650344497392000,1.58039208984375,-0.87584409237504,1.3006558970987796,-0.1422344878964126,0.2378842979669571,0.4919233620166778,-0.2441610693931579
1772650344507364400,1.5903642578125,-0.5061573780238628,1.2758584327116609,-0.0671842153482139,0.2875169813632965,0.323996901512146,-0.0570306219160556
1772650344517337300,1.60033740234375,-0.1511409940600395,1.2203022574454545,-0.1185221883974969,0.3229258358478546,0.1704425066709518,0.0808436274528503
1772650344527309000,1.61030908203125,0.2316536236673593,1.1016218097463248,-0.2617790050789714,0.3391847610473633,0.0755331143736839,0.1575570702552795
1772650344537282300,1.6202822265625,0.5246686017483473,0.875178321942687,-0.3521785301893949,0.3388987481594085,0.0652573108673095,0.1959268301725387
1772650344547255300,1.63025537109375,0.6834025351554155,0.6115291390776634,-0.4259767568498849,0.3075998723506927,0.124947004020214,0.1969688385725021
1772650344557227000,1.64022705078125,0.7972182994276285,0.3826850198730826,-0.5720654359564185,0.261594295501709,0.2136512994766235,0.1720110327005386
1772650344567200300,1.6502001953125,0.902882905948162,0.2491112466856837,-0.6070075699999928,0.2229762226343155,0.2838405072689056,0.1444731205701828
1772650344577172200,1.660172119140625,1.025069023680687,0.1844672173395752,-0.4796436112381517,0.2034699022769928,0.3063540756702423,0.1382319927215576
1772650344587145200,1.670145263671875,1.1922750173568726,0.1391571262776851,-0.2161563409365713,0.2013647556304931,0.2508108615875244,0.1417217999696731
1772650344597117200,1.6801171875,1.3844371731132268,0.0501402876973152,-0.0106992347992956,0.196109265089035,0.1451539248228073,0.1419716030359268
1772650344607090200,1.690090087890625,1.4972171645969152,-0.0891746594905853,0.1328308458656072,0.1712435930967331,0.0433023981750011,0.1195326074957847
1772650344617063200,1.700063232421875,1.668617102831602,-0.2671598213344812,0.1462030992664396,0.1259027421474456,-0.0656520500779151,0.0624237917363643
1772650344627035100,1.71003515625,1.7455851916998624,-0.3845104817345738,0.1184888706497847,0.0859614685177803,-0.1658291220664978,-0.0155883505940437
1772650344637008400,1.72000830078125,1.7222598456919191,-0.4275950057014823,0.164797471229732,0.0545167252421379,-0.2421904653310775,-0.1114405766129493
1772650344646980400,1.72998046875,1.6099655918985605,-0.3819707341238856,0.1945744775950908,0.0309778824448585,-0.2904463410377502,-0.2324311584234237
1772650344656953300,1.739953369140625,1.425788005155325,-0.3290387698814273,0.0958909621335565,0.0063782632350921,-0.2977489829063415,-0.3706481456756592
1772650344666926300,1.74992626953125,1.111084926879406,-0.3184288208007812,-0.0823749163478612,-0.0182078871876001,-0.244262158870697,-0.476388931274414
1772650344676898300,1.759898193359375,0.6366162340611219,-0.3363999462991953,-0.2152851110599934,-0.0502411872148513,-0.1491899788379669,-0.5188077688217163
1772650344686871300,1.769871337890625,0.2103039616465568,-0.3408598483175039,-0.3304800547309219,-0.0913555771112442,-0.0396442934870719,-0.5116649866104126
1772650344696843300,1.77984326171875,-0.1021831941455602,-0.3730991531431675,-0.4608259519129991,-0.1479043364524841,0.0653212666511535,-0.4637270867824554
1772650344706816500,1.78981640625,-0.2701923208981752,-0.3528790796741843,-0.4468257758721708,-0.1910723149776458,0.1143081784248352,-0.3779220879077911
1772650344716788200,1.799788330078125,-0.2506611064761876,-0.3185904411032795,-0.2277858423233032,-0.2117629498243332,0.0889149382710456,-0.2581504285335541
1772650344726761200,1.80976123046875,-0.087739073729515,-0.2883572154030203,0.1101772616393864,-0.2123810201883316,0.009433576837182,-0.1409308761358261
1772650344736734500,1.819734375,0.2094505596876144,-0.2608455236211419,0.4749985619112849,-0.196285143494606,-0.1185238510370254,-0.0500124245882034
1772650344746706200,1.8297060546875,0.4086714017838239,-0.2249891973420977,0.7688762943014502,-0.1564114391803741,-0.2216100245714187,0.0261804312467575
1772650344756679400,1.839679443359375,0.4621311892926693,-0.2318964925125241,0.9277315160006284,-0.1122828722000122,-0.257621020078659,0.0892299637198448
1772650344766651400,1.8496513671875,0.5131225408613681,-0.2304118069127202,1.0422959066830575,-0.0693304687738418,-0.2640490531921386,0.1316798627376556
1772650344776624400,1.859624267578125,0.6865121916085482,-0.2605222830161452,1.0912729958198963,-0.0399480760097503,-0.2519894540309906,0.1320588290691375
1772650344786596400,1.869596435546875,0.8975888911932707,-0.3503475153699517,1.089529951544851,-0.0160021930932998,-0.2262963205575943,0.0984827205538749
1772650344796569300,1.8795693359375,0.9529314237087964,-0.4670063941136002,1.1091297011584045,-0.0031793392263352,-0.1983903795480728,0.0523176230490207
1772650344806542300,1.889542236328125,0.933756183117628,-0.5827221467882394,1.1045483647175132,0.0177437141537666,-0.1777170896530151,0.0043634600006043
1772650344816514300,1.899514404296875,0.8908055146634578,-0.6007040859416127,1.1526403415828943,0.0375363267958164,-0.1826601773500442,-0.028683440759778
1772650344826487300,1.9094873046875,0.8983452625185251,-0.5912389229819178,1.1770504140876232,0.0499570816755294,-0.2213661521673202,-0.0583071336150169
1772650344836459500,1.91945947265625,0.8984042992293834,-0.6171168760821223,1.1712979880407453,0.0488010011613369,-0.2794736623764038,-0.0905180647969245
1772650344846432500,1.9294326171875,0.7279179687082767,-0.6443026969105005,1.1749670319423078,0.0513614453375339,-0.3050691783428192,-0.1023941040039062
1772650344856405200,1.9394052734375,0.4375818544477224,-0.6436027319476008,1.0983825355641543,0.0547724217176437,-0.2858683168888092,-0.0907385125756263
1772650344866377500,1.94937744140625,0.1315513274490833,-0.6016115561753511,0.9487114679262042,0.0500815361738204,-0.2430285066366195,-0.0745176896452903
1772650344876350500,1.9593505859375,-0.0990980876117944,-0.534212382902205,0.8307017590954899,0.0336706042289733,-0.2004120647907257,-0.0493827685713768
1772650344886322200,1.969322265625,-0.2395376549154519,-0.551027324102819,0.8452278587065637,0.0215777903795242,-0.1620179712772369,-0.0161362290382385
1772650344896295400,1.97929541015625,-0.2957867808818817,-0.5454743661507964,0.8788390364073216,0.017174519598484,-0.1434754431247711,0.0200500041246414
1772650344906267400,1.989267333984375,-0.2719195830821991,-0.5285825603216886,0.9310130218893288,0.0148281259462237,-0.1414178609848022,0.0553843304514884
1772650344916240400,1.999240478515625,-0.308953136447072,-0.4969777540072798,0.9579391688682138,0.0188529603183269,-0.151515245437622,0.1010937616229057
1772650344926213400,2.00921337890625,-0.3533984273731708,-0.5136527022153139,1.006640509803593,0.0116601465269923,-0.1695994138717651,0.1389948427677154
1772650344936185300,2.019185302734375,-0.3658890756338834,-0.5276806430459022,1.0473604965962469,0.0084624895825982,-0.186776265501976,0.1674299538135528
1772650344946158300,2.029158447265625,-0.4273761022537946,-0.5442120911300182,1.0576250663053244,0.014138638973236,-0.1687478274106979,0.1925233304500579
1772650344956130300,2.03913037109375,-0.5036135387599467,-0.562381369549036,1.1384766455434263,0.0314702242612838,-0.1324713081121444,0.2078157365322113
1772650344966103300,2.049103271484375,-0.4980681795924901,-0.5889437977820634,1.2959884898096323,0.0577890872955322,-0.0896918997168541,0.222710371017456
1772650344976075500,2.059075439453125,-0.494552864947915,-0.6947022200658917,1.4730239497132598,0.0886780247092247,-0.0564572438597679,0.2394680380821228
1772650344986048500,2.069048583984375,-0.4227712388068437,-0.841302355825901,1.619617801862955,0.1085233464837074,-0.048329297453165,0.2552918791770935
1772650344996021200,2.079021240234375,-0.2065712048590183,-0.8936597350507974,1.6528610230341552,0.1037703976035118,-0.1266307532787323,0.2317239493131637
1772650345005993500,2.088993408203125,0.102666593748331,-0.9518868830919264,1.599597050358355,0.0715292319655418,-0.230572834610939,0.1610287874937057
1772650345015966500,2.098966552734375,0.3906827406287193,-0.9977271355077624,1.3662012591987849,0.0092456126585602,-0.3272043168544769,0.0325850583612918
1772650345025938200,2.108938232421875,0.5518184744805097,-0.9332102396726608,0.9431590214308352,-0.0656499341130256,-0.3915669918060303,-0.1639501601457595
1772650345035911400,2.118911376953125,0.544902411481738,-0.7198439678460359,0.4812145868819206,-0.1335126161575317,-0.4119124710559845,-0.3976031243801117
1772650345045884400,2.128884521484375,0.2794160763174295,-0.433792983558774,0.0801166890922933,-0.1781962215900421,-0.3594970703125,-0.6242263913154602
1772650345055856000,2.138856201171875,-0.2357867779493331,-0.0887485430330038,-0.1652711531560868,-0.1945144832134246,-0.2367277443408966,-0.7822128534317017
1772650345065829400,2.148829345703125,-0.9006278204977511,0.1878150664627552,-0.1817768092118203,-0.186830848455429,-0.0807651430368423,-0.8243008852005005
1772650345075801300,2.15880126953125,-1.4771435138612985,0.4515303003013133,-0.0554039803791791,-0.1556883752346038,0.0377668291330337,-0.7392203211784363
1772650345085774300,2.1687744140625,-1.811058657607436,0.6476976000458001,0.175181429534778,-0.1066931635141372,0.0680203959345817,-0.562096893787384
1772650345095746300,2.178746337890625,-1.9172125089496368,0.7683449639037251,0.417701680457592,-0.0498751513659954,0.0310232266783714,-0.3282819986343384
1772650345105719300,2.18871923828125,-1.813403174906969,0.7715612956017255,0.5559312435615807,-0.0079264547675848,0.0054879593662917,-0.1211201325058937
1772650345115692300,2.1986923828125,-1.489405029541254,0.7610600675925612,0.5331313827324659,0.03708016872406,-0.0512102060019969,0.0169029831886291
1772650345125664300,2.208664306640625,-1.1837199549794195,0.7626917604476213,0.349492286780104,0.0826824605464935,-0.0918955355882644,0.1032146960496902
1772650345135637200,2.21863720703125,-1.0388105487853287,0.671825494608283,0.1522213366426527,0.1123892217874527,-0.084960401058197,0.1626085191965103
1772650345145609500,2.228609375,-0.9751660518705844,0.6271832198053598,0.0541516422305256,0.1265207082033157,-0.0629317983984947,0.2176495790481567
1772650345155582500,2.23858251953125,-0.9297346725165844,0.6315010830044746,0.0357219593096524,0.1308592557907104,-0.0427487678825855,0.2723434567451477
1772650345165555200,2.24855517578125,-0.8106313232302665,0.6873375365167855,0.0117610918771475,0.1528752744197845,-0.0382206887006759,0.3193853497505188
1772650345175527400,2.25852734375,-0.6115303081214427,0.7976698425874114,0.0214432585883885,0.1830299794673919,-0.0557333678007125,0.3513299524784088
1772650345185500400,2.26850048828125,-0.3540133444011211,0.872222394746542,-0.1226261165849864,0.2108308374881744,-0.0974103435873985,0.3483032286167145
1772650345195472100,2.27847216796875,-0.0683557433456182,0.8406053134724497,-0.4270357643835246,0.2093983292579651,-0.1429293602705001,0.3033495843410492
1772650345205445400,2.2884453125,0.1582265684068202,0.7514540348574519,-0.8716699484955519,0.175308346748352,-0.1727880984544754,0.2193522751331329
1772650345215417300,2.298417236328125,0.305784443283081,0.6449512239471078,-1.3532026614159345,0.1053199470043182,-0.1718157827854156,0.1009484007954597
1772650345225390300,2.308390380859375,0.3463099304169416,0.60950260168612,-1.728929532714188,0.0162935592234134,-0.1420188993215561,-0.0286718439310789
1772650345235363300,2.31836328125,0.3236877642422914,0.5991057108342647,-1.8803277164056893,-0.0716821029782295,-0.0726672634482383,-0.1447534412145614
1772650345245335300,2.328335205078125,0.1639934613704681,0.6849398277252912,-1.8042567225076256,-0.1370262652635574,0.0269101858139038,-0.2079545855522155
1772650345255308300,2.338308349609375,0.0206564190596342,0.8428405251786112,-1.550121948571503,-0.1674973517656326,0.1201120391488075,-0.2124478816986084
1772650345265280300,2.3482802734375,-0.0466179587900638,1.0115560466349125,-1.072171258856356,-0.1619510650634765,0.1710697561502456,-0.1507373750209808
1772650345275253200,2.358253173828125,0.071491118761897,1.1803148227110505,-0.5590897075925022,-0.1162011474370956,0.1743020266294479,-0.0613550320267677
1772650345285225500,2.3682255859375,0.3663280515730381,1.3176383038207888,-0.0722602765034884,-0.0467589907348156,0.1285391896963119,0.0407817438244819
1772650345295198500,2.378198486328125,0.71724401448071,1.3348600722566246,0.2860321334563195,0.0306548401713371,0.0598347038030624,0.1208944171667099
1772650345305171200,2.388171142578125,1.073361053162813,1.2930264251336454,0.3838407657794654,0.0923724919557571,-0.0158499423414468,0.1685409545898437
1772650345315143400,2.398143310546875,1.2927654361099004,1.2134279877617955,0.3692282299939542,0.138927474617958,-0.0569611601531505,0.1748771518468856
1772650345325116400,2.408116455078125,1.3434341315954923,1.032041785302758,0.2689280000507831,0.168556734919548,-0.0449672751128673,0.1557446718215942
1772650345335088000,2.418088134765625,1.3479881416380404,0.8842755283728242,0.0689319357983768,0.1731669306755066,-0.0138628873974084,0.1100847795605659
1772650345345061400,2.428061279296875,1.3627251075208189,0.7733458409309387,-0.0848018512338399,0.1661463975906372,0.019694885239005,0.0414155535399913
1772650345355033300,2.438033447265625,1.380184191843867,0.6517424915224314,-0.051555634387955,0.1627412736415863,0.0424313582479953,-0.0289576780050992
1772650345365006300,2.44800634765625,1.3768196838468312,0.5487926969185472,-0.0001567979969084,0.1637249290943145,0.0468127615749836,-0.106984868645668
1772650345374979300,2.457979248046875,1.3410545429825782,0.4828282326236367,-0.0227317640289664,0.1551018804311752,0.0439426749944686,-0.1949829161167144
1772650345384951300,2.467951416015625,1.2530144404798746,0.4204404577717184,-0.0390568028207868,0.1518905609846115,0.0480497106909751,-0.2712480425834656
1772650345394924300,2.47792431640625,1.1223603541314602,0.3852832196727395,-0.0468562245253473,0.1436115950345993,0.0563358701765537,-0.3361559212207794
1772650345404896300,2.487896240234375,0.9439081592977048,0.3641290802240371,-0.0476557774052023,0.1344038993120193,0.0713064819574356,-0.386738508939743
1772650345414869200,2.497869140625,0.8140776642918586,0.3584340834528207,-0.0340038302801549,0.1246556639671325,0.084367424249649,-0.4285184442996979
1772650345424842200,2.50784228515625,0.593234188452363,0.3290361395329236,-0.0058467532668262,0.1148111820220947,0.1084345802664756,-0.4483613669872284
1772650345434814500,2.517814453125,0.3931500075250864,0.3623094635814428,0.0245784878741949,0.1085423678159713,0.1398737281560897,-0.4524288177490234
1772650345444787200,2.527787109375,0.2798299178153276,0.4209621435582638,0.0974522931661456,0.11273904889822,0.1544106155633926,-0.4485331773757934
1772650345454759400,2.537759521484375,0.2552677234888076,0.4545400035113096,0.1961431882165372,0.1268109232187271,0.1519083082675933,-0.4405490159988403
1772650345464732400,2.547732421875,0.2732107919365167,0.4476715790465473,0.3917109876979142,0.1564313918352127,0.1380340307950973,-0.4334224164485931
1772650345474704400,2.557704345703125,0.2941641481161117,0.4564975673198699,0.6111114251222461,0.2059496790170669,0.1335031986236572,-0.4236485958099365
1772650345484677400,2.567677490234375,0.3039700873374938,0.4630915587574243,0.803238801826164,0.269116073846817,0.1232893615961074,-0.4181791841983795
1772650345494650400,2.577650390625,0.2774474065929651,0.4714493449971079,0.8713130978818983,0.3432249426841736,0.1233370304107666,-0.3977420926094055
1772650345504622300,2.587622314453125,0.2075701527684927,0.4100391830056905,0.8460876173410564,0.4076841473579407,0.1267844289541244,-0.3752202689647674
1772650345514595300,2.59759521484375,0.1391542036682367,0.2772285031452774,0.7862727617170662,0.4651354551315307,0.1237265989184379,-0.3481476306915283
1772650345524567300,2.6075673828125,0.1351969904750585,0.1655301694184541,0.649357276886329,0.5010613799095154,0.1206840574741363,-0.3242546021938324
1772650345534540300,2.617540283203125,0.1843009208619594,-0.0013882394880056,0.4353303491938859,0.5195735692977905,0.1251608282327652,-0.3139955699443817
1772650345544512300,2.62751220703125,0.2047299609065055,-0.2103086378216743,0.2353504323586821,0.5238068699836731,0.1324033588171005,-0.3116014003753662
1772650345554485200,2.6374853515625,0.1811626228362321,-0.4196697656601667,0.0419386418674141,0.5085517168045044,0.147277370095253,-0.3105782270431518
1772650345564458500,2.64745849609375,0.1398731655925512,-0.5360223549336195,-0.1641298011012375,0.4806880950927734,0.1801276952028274,-0.3042265474796295
1772650345574430200,2.65743017578125,0.1062993972927331,-0.6209156838431954,-0.2477211805667728,0.4550586342811584,0.2128315865993499,-0.291451632976532
1772650345584403200,2.6674033203125,0.1336480074673891,-0.6946317851781845,-0.2425470658645033,0.4344571828842163,0.2335750162601471,-0.2669577598571777
1772650345594375400,2.67737548828125,0.229110368925333,-0.7225242929711937,-0.174098748864606,0.4235891103744507,0.2277509570121765,-0.2530363500118255
1772650345604348400,2.687348388671875,0.3384720763981342,-0.7028764664322137,-0.1281574472270905,0.4167948961257934,0.220295250415802,-0.2491318881511688
1772650345614321200,2.697321044921875,0.3624421500504016,-0.705953097398579,-0.1005994320854544,0.4150409400463104,0.2326136827468872,-0.2512336373329162
1772650345624293400,2.70729345703125,0.291716754963994,-0.7746367575243115,-0.1023466410789638,0.4077113568782806,0.2652162313461303,-0.2550094723701477
1772650345634267000,2.717266845703125,0.2592804662615061,-0.7996586783170699,-0.1370334121219813,0.3925997912883758,0.2958055734634399,-0.2552941441535949
1772650345644238800,2.72723876953125,0.2910521535754203,-0.8047054403126239,-0.1809212152957916,0.375846803188324,0.3201384544372558,-0.2582511305809021
1772650345654212000,2.737212158203125,0.2546066292315721,-0.7887173053249716,-0.2041328717961907,0.3600281774997711,0.3356721401214599,-0.254821240901947
1772650345664183800,2.747183837890625,0.2111468422114849,-0.7779474895074963,-0.1394999483659863,0.3534065186977386,0.3330699801445007,-0.2351305335760116
1772650345674156800,2.75715673828125,0.1120353105962276,-0.7763938303247093,-0.0735867758668959,0.341838002204895,0.3280118405818939,-0.199627935886383
1772650345684130000,2.767130126953125,-0.0313642755568027,-0.7212918285667896,-0.0423841206125915,0.3330222964286804,0.3006982207298279,-0.1348671317100525
1772650345694102000,2.77710205078125,-0.1616360845893621,-0.6394140480861067,0.0312833923403173,0.3266117870807647,0.2769806385040283,-0.0533914491534233
1772650345704074800,2.78707470703125,-0.209958509209752,-0.5878785066381097,0.1066145276565104,0.3292509317398071,0.238511860370636,0.034288328140974
1772650345714047000,2.797046875,-0.1438701262742281,-0.5328913634315133,0.1809771102014929,0.3367330729961395,0.1877975612878799,0.1138982027769088
1772650345724020000,2.80702001953125,-0.0311386501073837,-0.6117398592188954,0.2391498977068811,0.349845826625824,0.1247981786727905,0.1743632107973098
1772650345733993000,2.816992919921875,0.0864203923463821,-0.7851254183128475,0.2318449084557592,0.3537135422229767,0.0673343613743782,0.223239928483963
1772650345743965000,2.82696484375,0.1890466540843248,-0.9237544290632008,0.1201850070431828,0.3446968793869018,0.0309776812791824,0.2438016682863235
1772650345753938000,2.83693798828125,0.3419669327765703,-1.0785130290985108,-0.0371364292174577,0.3122393488883972,0.0150996474549174,0.2287667989730835
1772650345763910100,2.84691015625,0.532908606827259,-1.1969222586408257,-0.2447164457928389,0.2655143141746521,0.0218967907130718,0.158184066414833
1772650345773883000,2.8568828125,0.6310019013106822,-1.3285025199234486,-0.4317554133165627,0.2210001051425933,0.0575000569224357,0.0488865971565246
1772650345783854800,2.866854736328125,0.6398170759290457,-1.416085818569362,-0.5809019456237554,0.1847923696041107,0.1065959855914115,-0.0771025344729423
1772650345793828000,2.876828125,0.5402975480347871,-1.4262757886722683,-0.7039843546088784,0.1530229896306991,0.1596512198448181,-0.199112594127655
1772650345803801000,2.886801025390625,0.246678758841753,-1.4217416523739694,-0.7900139940720051,0.1286645233631134,0.2275698632001876,-0.2995647192001343
1772650345813772800,2.896772705078125,-0.0962444517463445,-1.409866213402152,-0.7617369439408183,0.1282826215028762,0.3025490045547485,-0.355098009109497
1772650345823746000,2.90674609375,-0.4208411475270986,-1.3385048584997654,-0.6450496428202838,0.1503849327564239,0.342614471912384,-0.3631280064582824
1772650345833718000,2.916718017578125,-0.703058837261796,-1.2758294988781214,-0.4854800623066723,0.1875043362379074,0.3461982905864715,-0.3189629316329956
1772650345843690800,2.926690673828125,-0.9256330824166537,-1.2518024343416094,-0.3500729362122714,0.2290075719356537,0.3340696990489959,-0.2231325358152389
1772650345853663000,2.9366630859375,-1.136456099501252,-1.2590771015197038,-0.1203891513131558,0.2712972462177276,0.3122168779373169,-0.0765335112810134
1772650345863636000,2.946635986328125,-1.2705635411739349,-1.2908362216129898,0.1349867087252438,0.2969094216823578,0.2643412947654724,0.098453514277935
1772650345873609000,2.95660888671875,-1.0727689324885603,-1.2817854846730827,0.467585801436752,0.312250018119812,0.1557067036628723,0.2369980812072754
1772650345883581000,2.966580810546875,-0.6519266159176826,-1.281645199419558,0.7995023187115788,0.3212626576423645,0.0008464101701974,0.2930341958999634
1772650345893554000,2.976553955078125,-0.2162701765745878,-1.3042524602860213,1.1038302795760333,0.3412094712257385,-0.1311544924974441,0.2551738917827606
1772650345903526100,2.986526123046875,0.0777957718640565,-1.2792168032288551,1.2994424296557905,0.3662406206130981,-0.2196889519691467,0.1260793060064315
1772650345913499000,2.996498779296875,0.1953688428431749,-1.084380459827185,1.1858609125308692,0.3851551711559295,-0.2364647388458252,-0.0754716470837593
1772650345923472000,3.006471923828125,0.0905640680223703,-0.7590116106301545,0.824808317142725,0.3931998908519745,-0.1725890487432479,-0.3315169513225555
1772650345933444000,3.016444091796875,-0.1501741948544979,-0.4138482198998331,0.3985426603488624,0.3941863179206848,-0.0746249333024025,-0.5898891091346741
1772650345943417000,3.0264169921875,-0.5985293722510338,-0.0016267244189977,0.1389336927853524,0.4043333232402801,0.0377269275486469,-0.7792282104492188
1772650345953389000,3.03638916015625,-1.2413660882622002,0.4209384704217314,0.0600296674184501,0.4106759130954742,0.1159341186285018,-0.8651915788650513
1772650345963362000,3.046362060546875,-1.981037623128295,0.7732654691711067,0.0434977078776806,0.4364311099052429,0.203733280301094,-0.8211876153945923
1772650345973334000,3.056333984375,-2.630081961607933,1.199868248964846,0.2250627009697258,0.4952376782894134,0.2752663195133209,-0.6586501002311707
1772650345983307000,3.06630712890625,-3.0446202095985413,1.5300316389620303,0.4287019440300762,0.5758096575737,0.3106264173984527,-0.4012351036071777
1772650345993280000,3.076280029296875,-3.1458442033231258,1.7785381977528332,0.6443344072230159,0.6795168519020081,0.3434275090694427,-0.0713813155889511
1772650346003252000,3.086251953125,-2.9490140557557343,1.9583558357208968,0.7752415184844285,0.774161696434021,0.3503006100654602,0.2716566622257232
1772650346013225000,3.096224853515625,-2.441425183624029,2.0184709894657136,0.8386394202269614,0.8460827469825745,0.3124195337295532,0.5920173525810242
1772650346023197000,3.106197021484375,-1.7099527373045682,1.864905398607254,0.935563524800539,0.8748902678489685,0.2580235004425049,0.8527060747146606
1772650346033170000,3.116169921875,-0.891780497175455,1.631772057776153,1.013584337592125,0.8604170680046082,0.1834520548582077,1.0278818607330322
1772650346043142100,3.12614208984375,-0.1116822593748569,1.479309751984477,1.0689381952192634,0.8174278736114502,0.1181747540831565,1.113838791847229
1772650346053115000,3.136114990234375,0.5061187995791435,1.3330460085719824,1.2032151482399551,0.7884894013404846,0.0635892674326896,1.1222015619277954
1772650346063087900,3.146087890625,0.9178688781559466,1.2421700981214645,1.4114973217353224,0.7710489630699158,0.0069328690879046,1.0591797828674316
1772650346073060000,3.15606005859375,1.2899287513792514,1.208633739222586,1.5053648152172563,0.7514393329620361,-0.0401962958276271,0.9268488883972168
1772650346083033000,3.166033203125,1.5223235488027334,1.1655807794377206,1.3885026689864697,0.7260622978210449,-0.0906187891960144,0.7182456851005554
1772650346093005000,3.176005126953125,1.640983245974779,1.0520450011506677,1.1318925179127604,0.676809549331665,-0.1262111365795135,0.4536667466163635
1772650346102978000,3.18597802734375,1.5232055923342704,0.951775823932886,0.8517458622984587,0.617716908454895,-0.1457742899656295,0.1569155901670456
1772650346112950000,3.195949951171875,1.0774597206532954,0.8975333616137504,0.5766530560076236,0.557130753993988,-0.1321247816085815,-0.1029471307992935
1772650346122923000,3.205923095703125,0.3605482991278171,0.9174079826459288,0.342520328875631,0.4955845475196838,-0.0548445954918861,-0.2849899232387543
1772650346132896000,3.21589599609375,-0.4497708894133567,1.0027630838483572,0.1393256147123873,0.4320066273212433,0.0603935793042182,-0.3463989496231079
1772650346142868000,3.225867919921875,-1.1972919687360524,1.1346522649496793,-0.1383936676245182,0.3749952316284179,0.1715928763151168,-0.3020409047603607
1772650346152841000,3.235841064453125,-1.6608078903853891,1.299291915269196,-0.3096517131704837,0.3321630358695984,0.2622058391571045,-0.1639155447483062
1772650346162813000,3.24581298828125,-1.7186410706728696,1.4531798699498175,-0.3642022185254842,0.3013482391834259,0.3080089092254638,0.006929756142199
1772650346172786000,3.255785888671875,-1.410108789986372,1.5258721811950209,-0.3816667096760123,0.2791800796985626,0.2978319227695465,0.1654272526502609
1772650346182759200,3.26575927734375,-0.8801718924462795,1.4805755341365932,-0.3690216745711863,0.2552992701530456,0.2718330323696136,0.2648088932037353
1772650346192731000,3.27573095703125,-0.2648117969036102,1.36206985848248,-0.427421621895954,0.224799171090126,0.2628752291202545,0.2888572216033935
1772650346202704000,3.285703857421875,0.2890121721804142,1.2421435023754834,-0.4834028907064348,0.1969173103570938,0.2870948016643524,0.258956104516983
1772650346212676000,3.295676025390625,0.660780953502655,1.1030012814059853,-0.4850323916044086,0.1780791729688644,0.3213438689708709,0.202024906873703
1772650346222648800,3.30564892578125,0.9521943416059016,1.0071212790578603,-0.353400911591202,0.1611566096544265,0.3532349467277527,0.140160396695137
1772650346232621000,3.31562109375,1.1532137575566768,0.9676227968841792,-0.2070859494481235,0.1507694870233535,0.3737722039222717,0.0833330601453781
1772650346242594000,3.325593994140625,1.287743808555603,0.9192232153743504,-0.1069967319071292,0.1472842097282409,0.3877632319927215,0.0332052856683731
1772650346252567000,3.335567138671875,1.3120669334292412,0.826803874874115,-0.0339127179306,0.1538374572992324,0.3837000429630279,0.0015480255242437
1772650346262539000,3.3455390625,1.3060387591809033,0.7288207627668977,0.0263333687175065,0.1538087725639343,0.3641621172428131,-0.017152851447463
1772650346272512000,3.355511962890625,1.3276929571062326,0.6513751195147633,0.0298437879912555,0.1532428562641143,0.3254040479660034,-0.0279599595814943
1772650346282484000,3.36548388671875,1.3044903606951237,0.5540487177506089,0.0316181041873991,0.1534544080495834,0.2740473747253418,-0.0311609264463186
1772650346292457000,3.37545703125,1.2714987761974337,0.4619757064700126,0.0223913530934602,0.1554800122976303,0.2188485562801361,-0.0405536293983459
1772650346302430000,3.385429931640625,1.2415449519604445,0.3488853338629007,0.0164460348229855,0.1509647816419601,0.1665218025445938,-0.0561993680894374
1772650346312402000,3.39540185546875,1.1856190665990114,0.1851023003727197,0.0519165766548365,0.1490488946437835,0.1146793812513351,-0.0728055089712143
1772650346322375200,3.405375244140625,1.0675058973938223,0.0488955483332276,0.145244264171645,0.1489246487617492,0.0628519654273986,-0.0880782231688499
1772650346332347000,3.415346923828125,0.8850210860431194,-0.0781929544880986,0.1214871026176959,0.1467637568712234,0.0268678702414035,-0.0886792987585067
1772650346342319900,3.42531982421875,0.73856094327569,-0.1856084963291883,0.0217103120267391,0.1243773326277732,0.0143124917522072,-0.0985745564103126
1772650346352292000,3.4352919921875,0.6260720436930656,-0.2637356921046972,-0.1112662989851087,0.0968801975250244,0.011236541904509,-0.1143423318862915
1772650346362264800,3.445264892578125,0.5697843392819166,-0.3591378478080034,-0.1882170713923871,0.0576197616755962,0.0062548061832785,-0.1422152668237686
1772650346372237800,3.45523779296875,0.4780032966852188,-0.409557244707644,-0.2176369348831474,0.027712196111679,-0.0062455395236611,-0.1673802733421325
1772650346382210000,3.4652099609375,0.3766711664110422,-0.4357113844007253,-0.2334053627055138,0.0083053987473249,-0.0025359748397022,-0.1824420690536499
1772650346392183000,3.47518310546875,0.244860311242938,-0.4478451820477843,-0.203746210566163,-0.0071494579315185,0.0055339355021715,-0.1829320937395095
1772650346402155000,3.485155029296875,0.1234878479808569,-0.4502452289268374,-0.1356603702031076,-0.0192162040621042,0.0004399856552481,-0.1696117669343948
1772650346412128000,3.4951279296875,-0.0054804772377014,-0.4442600170373916,-0.0692320877887308,-0.0222817696630954,-0.0007445884402841,-0.1258520483970642
1772650346422100000,3.505099853515625,-0.1498310805052518,-0.4345338650539517,-0.0026676117740571,-0.0182215869426727,0.0190472044050693,-0.0488738603889942
1772650346432073000,3.515072998046875,-0.1624585068881511,-0.4330304747536778,0.0620299743901938,-0.0182713866233825,0.0314886942505836,0.0429679118096828
1772650346442046000,3.5250458984375,0.0767599990755319,-0.4584390567764639,0.1229087329186499,-0.0308064334094524,0.0079672411084175,0.1154532432556152
1772650346452018000,3.535017822265625,0.3980529771357775,-0.5061185073181986,0.236439323573932,-0.0424694791436195,-0.0162483509629964,0.1635174453258514
1772650346461991200,3.5449912109375,0.6481243010252714,-0.6081742756918073,0.3417687067907303,-0.0492450185120105,-0.0392823442816734,0.1704877316951751
1772650346471963000,3.554962890625,0.8301262972950935,-0.7047095270782708,0.416186818915233,-0.0591221526265144,-0.0678231716156005,0.1510764807462692
1772650346481936000,3.564935791015625,0.9590402619779108,-0.6910168095514178,0.4520478213693946,-0.0721960663795471,-0.0843814313411712,0.1104659512639045
1772650346491908000,3.574908203125,0.973137760913372,-0.6900201997295021,0.4130247746877372,-0.0871545076370239,-0.0885873585939407,0.065411128103733
1772650346501880800,3.584880859375,0.926290669542551,-0.7154998011618853,0.4059276560336351,-0.1058627143502235,-0.0870866179466247,0.0069129997864365
1772650346511853800,3.594853759765625,0.8271382213950157,-0.74659928830266,0.4397112676918506,-0.1373460590839386,-0.0930757969617843,-0.0545138753950595
1772650346521826000,3.604825927734375,0.5788222167402506,-0.803043644580245,0.4250111997533589,-0.1677194386720657,-0.0825784727931022,-0.1028221771121025
1772650346531799000,3.614799072265625,0.1689963842242956,-0.7680117864266037,0.4205586773239076,-0.1922897696495056,-0.0525457374751567,-0.1174256205558776
1772650346541771000,3.62477099609375,-0.2419108137875795,-0.7139826745972037,0.4762382597740739,-0.2067548781633377,-0.0349323637783527,-0.0974388197064399
1772650346551744000,3.634743896484375,-0.579783755248785,-0.6150365626767277,0.5127777460116892,-0.2195590883493423,-0.0292899254709482,-0.0656595826148986
1772650346561717000,3.644717041015625,-0.7859305972158909,-0.5450742609173059,0.5684641235288233,-0.2302514314651489,-0.0222396850585937,-0.0421504601836204
1772650346571689000,3.65468896484375,-0.9034031304299832,-0.4990110134005546,0.7408279383596033,-0.2189140915870666,-0.0259982049465179,-0.0091522959992289
1772650346581662000,3.664661865234375,-0.959627706477046,-0.4279720223203301,0.9403625956453382,-0.18630912899971,-0.0386887975037097,0.0128763206303119
1772650346591634000,3.674634033203125,-0.9496429035574198,-0.3760995040029287,1.0802232670824974,-0.1518970876932144,-0.0452010221779346,0.0188029203563928
1772650346601607200,3.684607177734375,-0.948777226638794,-0.3750099552005529,1.1267512095015495,-0.106575421988964,-0.0573814511299133,0.0176382660865783
1772650346611579000,3.694578857421875,-1.0029261654555797,-0.3708794312670826,1.1560923817329107,-0.0551905259490013,-0.05641445890069,0.0292118322104215
1772650346621551900,3.7045517578125,-1.1440016925752163,-0.389575363908708,1.144323544940725,-0.0051531116478145,-0.0320602357387542,0.077663317322731
1772650346631524600,3.714524658203125,-1.2417425203591586,-0.4446355723515152,1.100152394780889,0.0241387300193309,-0.0304245222359895,0.1519601792097091
1772650346641496600,3.72449658203125,-1.0876485217124223,-0.4405678845211863,0.9762984169013798,0.0267578400671482,-0.0643757358193397,0.2150001972913742
1772650346651469800,3.7344697265625,-0.8077747647553681,-0.3633306233227252,0.8302969776868819,0.0083567295223474,-0.1437296718358993,0.2409939914941787
1772650346661441500,3.744441650390625,-0.4983107561767101,-0.4333683284059166,0.6772024384062737,-0.0341374799609184,-0.1887997388839721,0.2146085500717163
1772650346671414500,3.75441455078125,-0.2220335624068975,-0.5228410940602422,0.4661746925298124,-0.0856504738330841,-0.2102871984243393,0.1299541294574737
1772650346681386800,3.76438671875,0.0784556970775127,-0.4311354547873139,0.2394795680526643,-0.1525977253913879,-0.2403213679790496,-0.0103051858022809
1772650346691359700,3.77435986328125,0.3194412127137184,-0.3090551355168223,-0.0128496908314526,-0.2189828753471374,-0.2742079496383667,-0.2008727341890335
1772650346701332500,3.78433251953125,0.3939496334701776,-0.1672705833449959,-0.2167697966597974,-0.2740530371665954,-0.2868049740791321,-0.406556636095047
1772650346711304700,3.7943046875,0.2437666707873344,-0.039291853685677,-0.3949619523178785,-0.3175075948238373,-0.2897720038890838,-0.596381425857544
1772650346721277700,3.804277587890625,-0.0807090289622545,0.15938333722651,-0.5914931900039315,-0.3509408831596374,-0.2830905318260193,-0.7200778722763062
1772650346731249700,3.814249755859375,-0.5997229659497737,0.3257993495687842,-0.7526688905399292,-0.3809517621994018,-0.2500199377536773,-0.751928985118866
1772650346741222700,3.82422265625,-1.1919926932841538,0.4604729006916284,-0.8438754211843014,-0.4140936732292175,-0.1866431385278701,-0.6767058372497559
1772650346751195600,3.834195556640625,-1.619298652911186,0.6245490719094872,-0.9013358957018702,-0.4356285035610199,-0.1138581484556198,-0.52247154712677
1772650346761168000,3.84416796875,-1.8084207103192804,0.7655994645878672,-0.8481042909257114,-0.4272417724132538,-0.0473586246371269,-0.3168239295482635
1772650346771140600,3.854140625,-1.751132304432988,0.8684557356894016,-0.6872781344797462,-0.396700918674469,-0.0121931815519928,-0.0978255271911621
1772650346781112600,3.864112548828125,-1.4978578005880117,0.8969500087678431,-0.4378532918002456,-0.3481318056583404,-0.0136950816959142,0.1187400966882705
1772650346791085800,3.8740859375,-1.1566834794938563,0.8762342607364058,-0.2355637828484177,-0.3061510622501373,-0.015382993966341,0.3181328177452087
1772650346801057500,3.8840576171875,-0.801713857281208,0.7947858115836978,-0.1666135807409882,-0.2895027101039886,0.0029310630634427,0.4775359332561493
1772650346811030500,3.894030517578125,-0.4513502675592899,0.7127581012383103,-0.1529804113816469,-0.286152184009552,0.0238344799727201,0.5820141434669495
1772650346821003800,3.904003662109375,-0.0523743303596973,0.661129620809853,-0.0767529848128557,-0.2815734446048736,0.0171964764595031,0.6414076089859009
1772650346830975700,3.913975830078125,0.3515507536798715,0.6093786830455065,0.0541845215868204,-0.2777595221996307,-0.0100098438560962,0.6389932036399841
1772650346840948500,3.923948486328125,0.7625345240592956,0.5368874473303556,0.1566307505827397,-0.273868978023529,-0.0562575012445449,0.5837964415550232
1772650346850920700,3.933920654296875,1.1144348218291995,0.4202613018125295,0.2158564812071621,-0.2799060940742492,-0.1317959278821945,0.4856765568256378
1772650346860893700,3.943893798828125,1.3459978446036576,0.28611060552001,0.1710652994528412,-0.2895343899726867,-0.2341157048940658,0.3433713316917419
1772650346870865700,3.95386572265625,1.3306208272516726,0.1822261604145169,-0.0380868618100881,-0.3066747784614563,-0.3088301420211792,0.1806572824716568
1772650346880838700,3.963838623046875,1.179343639591336,0.136757079398632,-0.287315305134654,-0.3351453244686126,-0.3544646203517914,-0.0054364097304642
1772650346890811600,3.973811767578125,0.9511427867263555,0.1577609967216849,-0.6140052468676119,-0.3686228394508362,-0.3743989169597626,-0.1988112032413482
1772650346900783900,3.983783935546875,0.5754518635243177,0.1518023805782198,-0.9661729634020476,-0.4099025726318359,-0.3553651571273803,-0.3812978565692901
1772650346910756600,3.993756591796875,0.1877098525226116,0.1702256337583065,-1.1424767480302602,-0.4475399851799011,-0.306679904460907,-0.5420100092887878
1772650346920728600,4.003728515625,-0.170935243332386,0.2213978948518633,-1.1721174146648496,-0.4759952425956726,-0.2353489249944687,-0.6629963517189026
1772650346930701800,4.013701904296875,-0.5098346052318811,0.2962769024863839,-1.0445438317403195,-0.4880796074867248,-0.1502372324466705,-0.735818088054657
1772650346940674800,4.0236748046875,-0.8356605505466461,0.3683335461765527,-0.7699115556333214,-0.4664610028266907,-0.0627518892288208,-0.7364187240600586
1772650346950646500,4.033646484375,-1.098740409091115,0.5034700386360287,-0.3572895895928144,-0.409428596496582,-0.0105137135833501,-0.6671208739280701
1772650346960619800,4.043619873046875,-1.186557808753848,0.6815063461452722,0.0974827613696455,-0.3193180859088897,0.0040212394669651,-0.5283770561218262
1772650346970591700,4.053591796875,-1.1376485241562126,0.8043494664818048,0.4609549851201474,-0.2074030041694641,0.0031269495375454,-0.3621547818183899
1772650346980564500,4.063564453125,-0.9447329196840524,0.8305266947895288,0.6415052482116967,-0.0838606655597686,0.0017926800064742,-0.1931274533271789
1772650346990536700,4.07353662109375,-0.7200333529382944,0.7481953253224491,0.650539764669165,0.0129082165658473,-0.0076144039630889,-0.043746493756771
1772650347000509700,4.083509765625,-0.4943295775860548,0.629219401808083,0.5296791233867406,0.0865202397108078,-0.0049530807882547,0.0963579192757606
1772650347010482700,4.093482666015625,-0.2114665756851434,0.5458016984090208,0.327846491356939,0.1327455341815948,0.0013716602697968,0.2185621261596679
1772650347020454700,4.10345458984375,0.1665641886413097,0.4483215673878788,0.0972758406206965,0.1466601490974426,-0.01434653904289,0.308359831571579
1772650347030427600,4.113427734375,0.5338678072482347,0.3297276289284229,-0.059197527443245,0.1467850506305694,-0.0281236041337251,0.3562288284301758
1772650347040400000,4.12339990234375,0.8319944292545318,0.1786477174058556,-0.156371295928955,0.1330631971359253,-0.0134789990261197,0.3680911362171173
1772650347050372600,4.13337255859375,1.05904318947494,0.0688709993913769,-0.2869124234221875,0.1106926426291465,0.0254225917160511,0.3420709669589996
1772650347060344600,4.143344482421875,1.2678688952624797,-0.0350952787786722,-0.3507415561888367,0.0825755968689918,0.0769973248243331,0.2897723615169525
1772650347070317800,4.15331787109375,1.4319038576871157,-0.1073199725121259,-0.3274626066058874,0.0613206401467323,0.122949905693531,0.2194678485393524
1772650347080290800,4.163290771484375,1.5975672980964182,-0.1516428061023354,-0.1868111501172185,0.0534474998712539,0.1352174133062362,0.1385740339756012
1772650347090262500,4.173262451171875,1.6401164000123738,-0.1832745004236698,-0.008033888047561,0.0624705553054809,0.1164911314845085,0.0743678882718086
1772650347100235800,4.18323583984375,1.6123697304308413,-0.1666626805797219,0.1019396677132695,0.0729567557573318,0.0889427885413169,0.0333978645503521
1772650347110207500,4.19320751953125,1.5953040293395515,-0.146910224622488,0.0735194097191095,0.0709516629576683,0.049282994121313,-0.0075431782752275
1772650347120180500,4.203180419921875,1.5496242281824348,-0.1614551750645041,-0.0748518273666501,0.0506823100149631,0.0265522357076406,-0.0644370689988136
1772650347130153700,4.21315380859375,1.4852841502189635,-0.2512818687230348,-0.2144415729079395,0.0230229832231998,0.0195577107369899,-0.1350656896829605
1772650347140125700,4.223125732421875,1.391453189355135,-0.3236389566645026,-0.2623826700605451,-0.0041833817958831,0.0212930217385292,-0.2022051364183426
1772650347150098700,4.2330986328125,1.240500995865464,-0.2996984013676643,-0.2675269741464406,-0.0314102098345756,0.0337326489388942,-0.2759518027305603
1772650347160070700,4.243070556640625,1.0191390491098165,-0.2339084168568253,-0.2453202569048851,-0.0422120280563831,0.0617308504879474,-0.323845773935318
1772650347170043600,4.253043701171875,0.6483540181279182,-0.1763932164773345,-0.1220025778591632,-0.0233597755432128,0.1120225116610527,-0.3301790356636047
1772650347180015600,4.263015625,0.2709405089169741,-0.0855322113350033,0.0305922682709991,0.0153498873114585,0.1685750782489776,-0.28183114528656
1772650347189988600,4.272988525390625,0.0435685080915689,0.0418698874801397,0.1269056936003267,0.0615964829921722,0.1970972716808319,-0.2015048563480377
1772650347199961600,4.282961669921875,0.0304085822671651,0.0639662762150168,0.1884147859215736,0.1069923639297485,0.1991364508867263,-0.1168066337704658
1772650347209933800,4.292933837890625,0.157290748861432,-0.0446150945350527,0.2587286775976419,0.1528762429952621,0.1752963662147522,-0.0385842733085155
1772650347219906600,4.302906494140625,0.3193558725178241,-0.1623480322510004,0.3045969139989465,0.1927981972694397,0.1394385248422622,0.0156007064506411
1772650347229878800,4.312878662109375,0.4465723856329918,-0.3044929421678185,0.2960672052584588,0.2213267683982849,0.115591250360012,0.0530495420098304
1772650347239851800,4.322851806640625,0.5513502724468707,-0.3742012691661715,0.2093486336831003,0.2455315291881561,0.1104088798165321,0.0704544186592102
1772650347249823500,4.332823486328125,0.5951999355673789,-0.4582032021939754,0.0114724841941148,0.2471789717674255,0.1343216747045517,0.0657765790820121
1772650347259796700,4.342796630859375,0.5805529860556126,-0.5646458073496818,-0.1985606976870447,0.2456168681383133,0.1946056187152862,0.0575732327997684
1772650347269769700,4.352769775390625,0.618396686759591,-0.6698287678331136,-0.2317442976254969,0.2435787469148636,0.2387762814760208,0.0389787778258323
1772650347279741700,4.36274169921875,0.7051946802467107,-0.7512421456724405,-0.1984888014946133,0.2418196499347686,0.2553076148033142,0.0084102069959044
1772650347289714700,4.372714599609375,0.7870002722740173,-0.7828606882512569,-0.1940949504498392,0.237102136015892,0.2587809264659881,-0.0275693647563457
1772650347299686700,4.382686767578125,0.6809697550505399,-0.846746300445497,-0.2195813469491898,0.2386986166238784,0.2929022312164306,-0.0363040603697299
1772650347309659600,4.39265966796875,0.5218178884923458,-0.9120257050856948,-0.2381527033630758,0.2327658981084823,0.319661945104599,-0.02819793112576
1772650347319633000,4.4026328125,0.3889461260944604,-0.8832584602847695,-0.2191350644864141,0.2223218977451324,0.2999687194824219,-0.0065477252937853
1772650347329604600,4.4126044921875,0.2775684026241302,-0.8080719941362738,-0.1762017124932259,0.2249046266078949,0.2743965089321136,0.0250533428043127
1772650347339577600,4.42257763671875,0.1210077216029167,-0.7639794621706009,-0.1207032587636262,0.2337587773799896,0.2621458768844604,0.061182677745819
1772650347349549800,4.4325498046875,0.008892331507802,-0.6852715438976883,-0.1422897982802242,0.2380693703889846,0.2550786435604095,0.0840704143047332
1772650347359522600,4.4425224609375,-0.0723766694247722,-0.6148489311501384,-0.196038120406866,0.2505392134189605,0.2632111608982086,0.1019199043512344
1772650347369494800,4.452494873046875,-0.2774263638049364,-0.641688715019822,-0.1477976749815046,0.2635945677757263,0.2875972092151642,0.1227817758917808
1772650347379467800,4.4624677734375,-0.4857154784977436,-0.6337061918333172,-0.0611794950406998,0.2679861187934875,0.3149521946907043,0.1223604157567024
1772650347389440800,4.472440673828125,-0.5922679737687111,-0.5755544471159577,-0.0696577658548951,0.2837424576282501,0.3431561589241028,0.1305075585842132
1772650347399412700,4.482412841796875,-0.7140332357406616,-0.5181017905786633,0.0286117619782686,0.3173917829990387,0.3942883610725403,0.158574640750885
1772650347409385700,4.4923857421875,-0.7981739927172661,-0.4445400030225515,0.1998556328684091,0.3678363263607025,0.4637007415294647,0.2009306252002716
1772650347419357700,4.502357666015625,-0.8457499828845262,-0.4363341924741864,0.435298858077079,0.4301233291625976,0.511738657951355,0.2522417306900024
1772650347429330700,4.51233056640625,-0.7469593537867069,-0.486307599171996,0.7903083739086985,0.5040478706359863,0.5155999660491943,0.3042500615119934
1772650347439302700,4.522302734375,-0.571049829173088,-0.5335504118621349,1.1414885407105086,0.5738353729248047,0.4438437819480896,0.3323278129100799
1772650347449275600,4.532275634765625,-0.293937938144803,-0.5716182767108082,1.3851871146976946,0.6144443154335022,0.3218603432178497,0.297502726316452
1772650347459249000,4.542248779296875,0.0698223087668418,-0.6810176858454943,1.4832058826401828,0.6201910972595215,0.1885239630937576,0.1756258457899093
1772650347469220600,4.552220703125,0.3726502403318881,-0.8111644071936607,1.4818870551265777,0.5971401333808899,0.058139868080616,-0.0242459923028945
1772650347479193600,4.562193603515625,0.5118903687179088,-0.9933964128270744,1.330342302571237,0.5393208861351013,-0.034968264400959,-0.309795469045639
1772650347489165800,4.572165771484375,0.5185743765264749,-0.960390215282142,0.9323347720123828,0.4562017619609833,-0.1162812337279319,-0.6681027412414551
1772650347499138600,4.582138671875,0.2730646614640951,-0.689485362200439,0.4910080319479107,0.3842005729675293,-0.1329679191112518,-1.02627694606781
1772650347509111600,4.592111572265625,-0.3216062817931175,-0.443132766573131,0.1180032790899276,0.3082067668437958,-0.0903512239456176,-1.3251919746398926
1772650347519083800,4.602083740234375,-1.1650421425163746,-0.1895855832666158,-0.2744388724267482,0.2128097414970398,0.0064684180542826,-1.516838550567627
1772650347529056800,4.612056884765625,-2.050679899153113,0.0890960412964224,-0.6195240102890879,0.1091067716479301,0.1239311322569847,-1.5694372653961182
1772650347539028700,4.62202880859375,-2.822845590388775,0.4212222557991742,-0.7853340926274657,0.0355501100420951,0.243011012673378,-1.475950002670288
1772650347549001700,4.632001708984375,-3.46270124476254,0.8461655779480933,-0.6438710274949669,0.0274146869778633,0.3911586701869964,-1.2461167573928833
1772650347558973700,4.6419736328125,-3.783766843807697,1.2292314138323068,-0.2950400541678071,0.0963120758533477,0.5333366990089417,-0.9094135761260986
1772650347568946700,4.65194677734375,-3.789214587819576,1.5082152362123131,0.0808313401676714,0.2186172157526016,0.6495858430862427,-0.5216301679611206
1772650347578919700,4.661919677734375,-3.4494624084830283,1.6065344484061002,0.5036098854981362,0.3705131709575653,0.7179056406021118,-0.1235638037323951
1772650347588891600,4.6718916015625,-2.751304787266254,1.6124778669804334,0.8591820036485791,0.5218992233276367,0.7192223072052002,0.2527752220630646
1772650347598865000,4.681864990234375,-1.780905511406064,1.5315172013446687,1.0530167687922716,0.6380136609077454,0.6428101658821106,0.5868245959281921
1772650347608836600,4.691836669921875,-0.6997229708373546,1.3839040891498329,1.0748819791197777,0.7015103101730347,0.5223639011383057,0.8266811370849609
1772650347618809600,4.7018095703125,0.3227034293800592,1.193766132697463,1.0684404017649591,0.7331121563911438,0.3688298165798187,0.9669737219810486
1772650347628781600,4.711781494140625,1.1848445750951766,0.9657862291067838,1.1482251554891467,0.7334165573120117,0.2345335185527801,1.0168983936309814
1772650347638754800,4.7217548828125,1.812970628708601,0.7566592022851109,1.2470789129510522,0.71966153383255,0.125745952129364,0.971638798713684
1772650347648727800,4.731727783203125,2.2842419867902994,0.6317994814291596,1.3432913621239364,0.689922034740448,0.0312380902469158,0.8357584476470947
1772650347658700000,4.741699951171875,2.617998140582442,0.4955903913021087,1.3995909031033515,0.6553600430488586,-0.0518852211534976,0.6246408224105835
1772650347668673000,4.751673095703125,2.7473785537332294,0.3449602693736553,1.4402712885379791,0.6317612528800964,-0.1216374039649963,0.3714581429958343
1772650347678645000,4.76164501953125,2.53129893129468,0.304320508210361,1.408435596077144,0.6219162344932556,-0.1776446998119354,0.1393180936574936
1772650347688618000,4.771617919921875,2.014031545713544,0.3859510359317064,1.2329979267589748,0.606194257736206,-0.2423238307237625,-0.0693261995911598
1772650347698591000,4.781591064453125,1.3995260211735965,0.4824342648699879,0.7210686873354017,0.5439176559448242,-0.3255694210529327,-0.2780516445636749
1772650347708563000,4.79156298828125,0.7770224836170673,0.4706687160134315,0.183737587890774,0.4484797716140747,-0.3327213525772095,-0.4521507322788238
1772650347718536000,4.801535888671875,-0.0341664734959602,0.4340045804828405,-0.2811076826661825,0.3372749984264374,-0.2700785994529724,-0.5674091577529907
1772650347728508000,4.8115078125,-0.9125006291210652,0.4633092931613325,-0.6512508355479687,0.224439263343811,-0.1781881153583526,-0.5865317583084106
1772650347738481200,4.821481201171875,-1.7420698770552872,0.5727826443150639,-0.8012942436296492,0.142331525683403,-0.0259489864110946,-0.4840242862701416
1772650347748452900,4.831452880859375,-2.2545856841951606,0.7860551003783941,-0.7354799283951521,0.093494214117527,0.1092820763587951,-0.269933819770813
1772650347758425900,4.84142578125,-2.296626252067089,1.0961392866820097,-0.535645849771425,0.0958683490753173,0.2145747244358062,0.0205195788294076
1772650347768399000,4.851399169921875,-1.8334475995481008,1.3537997505262491,-0.2459600891783833,0.1366948783397674,0.2732095420360565,0.28950896859169
1772650347778370800,4.861370849609375,-0.964939256888628,1.4025409850805997,-0.033619507137686,0.1736093312501907,0.2480109333992004,0.4557182788848877
1772650347788343800,4.87134375,0.0232464355528354,1.2080772743836043,0.0775105251818895,0.1917880624532699,0.1818811744451522,0.512779951095581
1772650347798316000,4.88131591796875,0.7821691988557576,0.9948141706705091,0.087603903042525,0.2011458426713943,0.129522904753685,0.4891030490398407
1772650347808288800,4.891288818359375,1.3227309507846832,0.8641507319718599,0.0129335697226226,0.1885932981967926,0.109065294265747,0.3978948295116424
1772650347818261000,4.901260986328125,1.6185177316665649,0.7633855879306792,-0.1827927082560956,0.1585621684789657,0.1379454135894775,0.2392990589141845
1772650347828234000,4.91123388671875,1.723231905594468,0.6689598760440946,-0.3265359932802617,0.1391104310750961,0.1949522346258163,0.061678472906351
1772650347838207000,4.92120703125,1.643821099749207,0.5766551018342375,-0.2605262285389006,0.1425024271011352,0.2807492911815643,-0.0739819407463073
1772650347848179000,4.931178955078125,1.4170195922881363,0.4904626730248331,-0.0587988104492425,0.1533313691616058,0.3574070632457733,-0.1460508108139038
1772650347858152000,4.94115185546875,1.2646072631180283,0.4855214172303676,0.0425856345340609,0.1497369408607483,0.3727518916130066,-0.180618554353714
1772650347868124000,4.9511240234375,1.0541390508204698,0.4472945624276995,0.0317772402718663,0.1441674679517746,0.3647634983062744,-0.1692330092191696
1772650347878097000,4.961096923828125,0.8198533250838518,0.3142269851967692,0.0665269204832613,0.1530662775039672,0.3445899486541748,-0.1166138127446174
1772650347888068900,4.97106884765625,0.7405816354483366,0.2148065337628126,0.2349905130051076,0.1726343780755996,0.2598593533039093,-0.0541501678526401
1772650347898041900,4.981041748046875,0.8078092515468597,0.1261301791831851,0.3110451402902603,0.185492992401123,0.1297836005687713,-0.0180102661252021
1772650347908015000,4.99101513671875,0.8679787658274173,-0.0509378678157925,0.2896073615945875,0.1695601046085357,0.0219972096383571,-0.0244497898966074
1772650347917986800,5.00098681640625,0.8457435531437396,-0.2690466579943895,0.2032439601324498,0.1356914341449737,-0.0433502234518528,-0.0777723416686058
1772650347927959800,5.010959716796875,0.7343009477436542,-0.4802569208309054,0.0777820355996489,0.1021686270833015,-0.0619769059121608,-0.1417723596096038
1772650347937932000,5.02093212890625,0.5978899053037167,-0.5627881967842578,-0.014013620044291,0.0710308328270912,-0.050795454531908,-0.2046221494674682
1772650347947904800,5.03090478515625,0.4680798685640096,-0.5503516167983412,-0.0651917263567447,0.0435283705592155,-0.0528245158493518,-0.2617757320404053
1772650347957877800,5.040877685546875,0.2887146505385637,-0.5526955495759844,-0.0750203158013522,0.0219625532627105,-0.0582776255905628,-0.2906464636325836
1772650347967850000,5.05085009765625,-0.0488040706574916,-0.5964838378980756,-0.0744496763065457,0.0140662807971239,-0.0407990328967571,-0.269477516412735
1772650347977823000,5.060822998046875,-0.3644663493543863,-0.5977294540449977,-0.0903150616973638,0.0037848772481083,0.0025951163843274,-0.1973400115966797
1772650347987795000,5.070794921875,-0.5784066216766834,-0.5839981580734253,-0.1120474394254386,-0.0080819018185138,0.0272368155419826,-0.0891845151782035
1772650347997768000,5.080767822265625,-0.5806406643390655,-0.5564771139413118,-0.0935432299636304,-0.0172532647848129,0.0294671580195426,0.0278773214668035
1772650348007740000,5.090739990234375,-0.3676566698282957,-0.5837874379321932,-0.0011845336094498,-0.0213225744664669,0.0026469957083463,0.1323890835046768
1772650348017713000,5.100712890625,-0.0647802229464054,-0.5689478884577751,0.1366565416336059,-0.0140322027727961,-0.0360308364033699,0.2089308053255081
1772650348027686000,5.110685791015625,0.2411877602100372,-0.5345347467243671,0.1890412472568452,-0.008275780826807,-0.0752797052264213,0.2279055565595626
1772650348037657900,5.120657958984375,0.4573568144977092,-0.5304881016820668,0.2078280730523169,-0.0004674731753766,-0.0857546031475067,0.2201727479696273
1772650348047631000,5.130631103515625,0.545803159713745,-0.5956830429092049,0.2602262226790189,-0.0037671299651265,-0.0877908617258071,0.187771663069725
1772650348057602800,5.140602783203125,0.5288730677008628,-0.6201072900697588,0.2600141873635351,-0.0046508754603564,-0.0661863908171653,0.1528920531272888
1772650348067575800,5.150575927734375,0.4237216713994741,-0.5579416335359215,0.2592391113378107,-0.0017445678822696,-0.0490585379302501,0.1400510817766189
1772650348077549000,5.160549072265625,0.2355003622233867,-0.5394996756553649,0.3032029023572802,0.0072948466986417,-0.0383954122662544,0.1641814410686493
1772650348087520800,5.170520751953125,0.0711158557087183,-0.4602010980129242,0.3271707840524613,0.0113202147185802,-0.0264266338199377,0.1964437663555145
1772650348097493800,5.18049365234375,0.0479582674831151,-0.3821642108693718,0.2721061916954815,-0.0025342400185763,-0.0383939146995544,0.2166251242160797
1772650348107466000,5.190466064453125,0.0064987143695354,-0.4581801135793328,0.2995864654257893,-0.0251506026834249,-0.0633919462561607,0.2246100902557373
1772650348117439000,5.20043896484375,-0.1079676227658987,-0.4712184588506817,0.3041211862459778,-0.050307311117649,-0.0934510380029678,0.2442493885755539
1772650348127411000,5.210410888671875,-0.3200315798223018,-0.4223036212950944,0.3798006966084241,-0.0658034458756446,-0.1290457844734192,0.2916831970214844
1772650348137384000,5.220384033203125,-0.4850929626852274,-0.311428002128005,0.4268609923385083,-0.083476684987545,-0.1482638120651245,0.3421508967876434
1772650348147357000,5.23035693359375,-0.5390905103325844,-0.1752124822601675,0.4649370404936373,-0.0916025191545486,-0.1633349061012268,0.3873402178287506
1772650348157329000,5.240328857421875,-0.5819301196277141,-0.1404912974908947,0.5737006359428167,-0.0898476094007492,-0.1532438844442367,0.4253668785095215
1772650348167302000,5.250302001953125,-0.5740794061273337,-0.1517252236887812,0.73209876152426,-0.0831074193120002,-0.1375480145215988,0.4368395209312439
1772650348177274000,5.260274169921875,-0.4825426936805247,-0.2075689837247133,0.9211398626506327,-0.0732276514172554,-0.1240347996354103,0.4254148602485657
1772650348187247000,5.2702470703125,-0.3546329376041889,-0.2808063616320491,1.1198154919542371,-0.0606207847595214,-0.1270625591278076,0.4004416167736053
1772650348197218800,5.28021875,-0.1900765816539525,-0.3573132627293467,1.317946054595709,-0.0456626415252685,-0.1371006816625595,0.3589567840099334
1772650348207192000,5.290192138671875,0.0223299052298069,-0.4147574436992406,1.454912246700376,-0.0412151664495468,-0.1856362521648407,0.291147381067276
1772650348217165000,5.3001650390625,0.2609773333072662,-0.4990870012462138,1.5270391791477798,-0.0537319853901863,-0.2650555968284607,0.1836520433425903
1772650348227136800,5.31013671875,0.4472667976379394,-0.6300599442854523,1.402590377180278,-0.0979812070727348,-0.3754161894321441,0.0142720770090818
1772650348237110000,5.320110107421875,0.538307835522294,-0.7310229489862918,1.021619321618229,-0.1779809445142746,-0.4981496930122375,-0.1941999197006225
1772650348247082000,5.33008203125,0.3590402326524257,-0.8132248468548059,0.6966271237138658,-0.2842274904251098,-0.5927349925041199,-0.4248416721820831
1772650348257054000,5.340053955078125,-0.0720206955939531,-0.7656383352935314,0.4123054474372416,-0.3868798315525055,-0.6487206220626831,-0.6129507422447205
1772650348267027000,5.35002685546875,-0.8184574868112802,-0.5314668835863471,0.165811543643102,-0.4515645503997803,-0.5890716910362244,-0.7172502875328064
1772650348277000000,5.36,-1.6448738236725329,-0.1981596426054835,0.0096890348434448,-0.4884713292121887,-0.4185872375965118,-0.7044849991798401
1772650348286972000,5.369971923828125,-2.219638289454579,0.2084188785523176,-0.0777613581378012,-0.4984323680400848,-0.2440777719020843,-0.589198648929596
1772650348296945000,5.37994482421875,-2.456744333308935,0.5636275702178478,-0.0703439945533871,-0.4764845669269562,-0.0916132107377052,-0.4101974666118622
1772650348306916900,5.389916748046875,-2.362643323332071,0.7398398771703243,0.1154980182707309,-0.4223811328411102,0.0254891738295555,-0.1969424337148666
1772650348316890000,5.39989013671875,-1.9276433020710944,0.863518279287219,0.2889348691605031,-0.366443783044815,0.0663553103804588,-0.0155570646747946
1772650348326861800,5.40986181640625,-1.3334557584166526,0.9201251326501368,0.4313675830427557,-0.3143081367015838,0.0578933879733085,0.1223193109035492
1772650348336834800,5.419834716796875,-0.7841442983210086,0.9477011218398808,0.5030128694530576,-0.2648471891880035,0.0676208361983299,0.2279590219259262
1772650348346808000,5.42980810546875,-0.3833493290007114,0.951833691599965,0.4880725630179047,-0.2181175053119659,0.0914484038949012,0.3117119669914245
1772650348356779800,5.43977978515625,-0.0598345832377672,1.0101175382643937,0.4979401692986488,-0.1735392808914184,0.1386266648769378,0.3724570870399475
1772650348366752800,5.449752685546875,0.2065332109361886,1.0516592167034744,0.4031641826696693,-0.1419009268283844,0.2082771211862564,0.4216371476650238
1772650348376725000,5.45972509765625,0.3201297794997692,1.0342796273574233,0.243113248379901,-0.1203771755099296,0.2936997413635254,0.4698457419872284
1772650348386698000,5.469697998046875,0.3653127370506525,0.9886366510793566,0.1739640896342694,-0.097630850970745,0.361192524433136,0.5286123752593994
1772650348396670000,5.479669921875,0.478286205279827,0.990400153620541,0.2879084487222135,-0.0639067813754081,0.3876161873340606,0.567197322845459
1772650348406643000,5.489642822265625,0.6228098270267248,0.9762564774557948,0.5497425449892879,-0.0005331360734999,0.3794693052768707,0.5702415704727173
1772650348416616000,5.499615966796875,0.7392161923140287,0.9723495331451296,0.8144454746909439,0.0969514548778534,0.3335471749305725,0.5380244851112366
1772650348426588000,5.509587890625,0.7589519893974065,0.8365089840695261,0.9663587682977318,0.1904640942811966,0.2067274451255798,0.4988616704940796
1772650348436561000,5.519560791015625,0.7092232051104307,0.6475462088763714,0.8020018804423511,0.23931485414505,0.048988714814186,0.4427997469902038
1772650348446532900,5.529532958984375,0.4971101482152938,0.3919578751310706,0.3016334610834718,0.2333677411079406,-0.0851179584860801,0.3649491667747497
1772650348456506000,5.539506103515625,0.1972013189673423,0.1694268845960497,-0.4710508471988141,0.1522068381309509,-0.1801201105117797,0.2561840713024139
1772650348466478800,5.549478759765625,-0.0736070880025625,-0.0757025989770889,-1.3049496487699448,0.003670360893011,-0.2399858385324478,0.091373011469841
1772650348476450800,5.559450927734375,-0.2833686133354902,-0.280187352950871,-1.9777005876600744,-0.1946874856948852,-0.2439607977867126,-0.1181381791830062
1772650348486424000,5.569424072265625,-0.5496721101015806,-0.3966360960751772,-2.384066196719557,-0.3884731829166412,-0.1839952021837234,-0.324316143989563
1772650348496395800,5.579395751953125,-0.7941969057798385,-0.2706877031996846,-2.3816493448361755,-0.533267617225647,-0.0764320567250251,-0.4786209464073181
1772650348506368800,5.58936865234375,-0.9896475816875696,0.0256695710465311,-2.071029736481607,-0.6134567260742188,0.0330409072339534,-0.5691848993301392
1772650348516341000,5.599341064453125,-1.1151508611440657,0.3195134011670947,-1.6187736061237752,-0.6341729164123535,0.1178086698055267,-0.5817340612411499
1772650348526314000,5.60931396484375,-1.23836398383677,0.5772904771283268,-1.147997922604531,-0.5941610336303711,0.2122105360031128,-0.5042392611503601
1772650348536286700,5.61928662109375,-1.2272995689868926,0.8585644562721252,-0.6759301534481347,-0.4891103208065033,0.2935308218002319,-0.3410106301307678
1772650348546259000,5.629259033203125,-0.9547942949712276,1.0781666998788717,-0.1566892758369445,-0.3368107974529266,0.3149951100349426,-0.1360966265201568
1772650348556232000,5.63923193359375,-0.4575234032362699,1.1314891247436405,0.251936971630901,-0.1893660128116607,0.2658877372741699,0.0485470294952392
1772650348566204000,5.649203857421875,0.2076806274056434,1.0699828089013694,0.392919413639605,-0.0645188838243484,0.1804835945367813,0.1774847656488418
1772650348576177000,5.659177001953125,0.8530594291150569,0.8771452381014824,0.3455785474024713,0.0338558070361614,0.0839222893118858,0.2462083846330642
1772650348586148900,5.66914892578125,1.4133955565720795,0.7076651620134711,0.3073177903302013,0.1134963035583496,0.0077484287321567,0.2672649323940277
1772650348596122000,5.6791220703125,1.7616221342653036,0.5753586322829127,0.2336711009696125,0.1789142340421676,-0.0399372577667236,0.2531544864177704
1772650348606094800,5.6890947265625,1.9468138664871453,0.5090817410379648,0.055337417948991,0.228312149643898,-0.0642697662115097,0.213209182024002
1772650348616066800,5.69906689453125,2.0059961232960224,0.4207730507269501,-0.1486839562967419,0.2592849731445312,-0.0477019026875495,0.1650983393192291
1772650348626040000,5.7090400390625,1.9961504365861416,0.292802212113142,-0.322975085928291,0.2742514014244079,-0.0028561339713633,0.1199604198336601
1772650348636012500,5.719012451171875,1.980671712425351,0.1679690870031714,-0.3770642573818564,0.2678658366203308,0.020112469792366,0.0791112706065177
1772650348645984800,5.72898486328125,1.9525667309254409,0.0480608510747551,-0.3954924789980054,0.2483730763196945,0.0373665578663349,0.0432414188981056
1772650348655957500,5.73895751953125,1.920718471243977,-0.0459150712177157,-0.4139367749661207,0.2280096411705017,0.0575980320572853,0.0060655162669718
1772650348665930500,5.748930419921875,1.939330232733488,-0.1047916230782866,-0.3107403121247887,0.2044616937637329,0.03124925121665,-0.0406135730445385
1772650348675902700,5.75890283203125,1.9127344867527485,-0.1608759138718247,-0.1253530573308467,0.185464009642601,-0.0470904409885406,-0.0985013470053672
1772650348685875700,5.768875732421875,1.7939485328525304,-0.200170982427895,0.0707552057027816,0.1856773346662521,-0.1117613166570663,-0.1393209546804428
1772650348695847400,5.778847412109375,1.6160077946722506,-0.1652197882950306,0.2317326802529394,0.1899269670248031,-0.1540501862764358,-0.1833644956350326
1772650348705820700,5.788820556640625,1.4512339965790508,-0.1243558629870414,0.3333525414273142,0.2012784332036972,-0.1810892522335052,-0.2480694651603698
1772650348715793700,5.798793701171875,1.2825988468825815,-0.1230699148297309,0.3752273973435163,0.2151070088148117,-0.1966140568256378,-0.3281278312206268
1772650348725765400,5.808765380859375,1.0150245995283127,-0.218899356034398,0.3711619014702737,0.238507404923439,-0.1701909601688385,-0.4117787778377533
1772650348735738600,5.818738525390625,0.7135001517772674,-0.3082110859081149,0.3196560245081782,0.2654740512371063,-0.1098258942365646,-0.4826513528823852
1772650348745710600,5.828710693359375,0.4280208298981189,-0.3344400444030762,0.2260842991024255,0.2839633226394653,-0.0661085098981857,-0.5267181396484375
1772650348755683600,5.83868359375,0.1273135437488556,-0.3982838632822036,0.0929122385837137,0.2864226400852203,-0.0454414077103138,-0.548271894454956
1772650348765655600,5.848655517578125,-0.1819552345186471,-0.4960565475091338,-0.0559321689717471,0.2811660766601562,-0.0076487548649311,-0.5258499383926392
1772650348775628500,5.858628662109375,-0.48602059892416,-0.5868947562977671,-0.1433972480654716,0.2691180109977722,0.0343855358660221,-0.477429986000061
1772650348785601500,5.8686015625,-0.7949433402329683,-0.6794093738660216,-0.2972128681622445,0.244250476360321,0.0785721763968467,-0.3881054222583771
1772650348795573500,5.878573486328125,-0.9828034148812294,-0.7129942480817437,-0.3742521225705743,0.2258856147527694,0.126656487584114,-0.2770942747592926
1772650348805546500,5.88854638671875,-0.9339455682098864,-0.727279670804739,-0.3256428438328206,0.2043680846691131,0.1466975659132003,-0.16243477165699
1772650348815518700,5.898518798828125,-0.7162590950965881,-0.7664777087271213,-0.1676835480600595,0.1879547983407974,0.1222641393542289,-0.0704587027430534
1772650348825491700,5.90849169921875,-0.4986813430547714,-0.7939806326806544,-0.0603036620542407,0.1778989732265472,0.0904497504234314,-0.0094728488475084
1772650348835464400,5.91846435546875,-0.3399468251258135,-0.7878449064046144,-0.0612871201336383,0.1818811446428299,0.1089802905917167,0.025134852156043
1772650348845436700,5.928436767578125,-0.1973603089213371,-0.7721209753111005,-0.0892328194186091,0.1797495484352111,0.1548641473054886,0.036348357796669
1772650348855409700,5.93840966796875,-0.0478758498966693,-0.7921922879591584,-0.1680178945809602,0.1703180372714996,0.2049837410449981,0.0206969678401947
1772650348865381400,5.94838134765625,0.1156429796993732,-0.8215002155080438,-0.2054933464944362,0.1528833955526352,0.2466893792152404,0.0005080758710391
1772650348875354600,5.958354736328125,0.2421767712473869,-0.8274684762626886,-0.2307837089650332,0.1302448511123657,0.2883116900920868,-0.0117171723395586
1772650348885326600,5.96832666015625,0.2310579958617687,-0.821783124102652,-0.2499061964556574,0.1180981695652008,0.3229288160800934,0.0010928987758234
1772650348895299300,5.97829931640625,0.2300888585686683,-0.8052168969660997,-0.2380276887439191,0.0967176705598831,0.3413264155387878,0.0202801376581192
1772650348905272600,5.9882724609375,0.199646958553791,-0.8213201827660203,-0.2532283266156911,0.0692655369639396,0.3379556536674499,0.0385049469769001
1772650348915244500,5.99824462890625,0.2433937458217143,-0.8494494219243526,-0.1530417131148278,0.0576905943453311,0.3244613409042358,0.0694471225142479
1772650348925217500,6.008217529296875,0.2727420053809881,-0.7576283395782113,0.0226012695170938,0.0705645829439163,0.285666286945343,0.1086344718933105
1772650348935189500,6.018189453125,0.3024514994680881,-0.6478375930383801,0.1577482833705842,0.0920024961233139,0.2458985447883606,0.1401359885931015
1772650348945162500,6.02816259765625,0.3355634954750537,-0.5783516766190528,0.2223755077123642,0.1141386926174163,0.2070464938879013,0.1561218798160553
1772650348955134700,6.038134765625,0.3128513129293918,-0.5597621269613504,0.260545079369843,0.1431060135364532,0.1807248294353485,0.1554894745349884
1772650348965107500,6.048107421875,0.2293161206305027,-0.5688096490308642,0.2367147064492106,0.1601851284503936,0.1841701716184616,0.1410018801689148
1772650348975080400,6.05808056640625,0.0738835668563842,-0.5581181591466069,0.167022453802824,0.168980985879898,0.2182582765817642,0.1115869581699371
1772650348985052700,6.068052734375,-0.0741436790972948,-0.5461050652697682,0.0810981744103133,0.1815252751111984,0.257251501083374,0.0794980004429817
1772650348995025700,6.078025634765625,-0.2673731718242168,-0.5546642193004488,0.1169258591167628,0.2027904242277145,0.2891601026058197,0.0588918030261993
1772650349004997400,6.087997314453125,-0.4939999072402715,-0.5803238534748554,0.1594774452507495,0.2292824834585189,0.3510732650756836,0.0604433603584766
1772650349014970600,6.097970703125,-0.7236749243110417,-0.6405559115976095,0.1891110976226627,0.2565331757068634,0.4340853095054626,0.0721417888998985
1772650349024943600,6.107943603515625,-0.8140291489750147,-0.6509560173198581,0.3264306332096457,0.3054168224334717,0.5020329356193542,0.1175683885812759
1772650349034915300,6.117915283203125,-0.8391068916082381,-0.7186641104117035,0.5832087612614035,0.3765959441661834,0.5182439088821411,0.2053283452987671
1772650349044888600,6.127888671875,-0.641325142404437,-0.7826558133289218,0.9373366719529032,0.4498642981052398,0.470627874135971,0.3015606105327606
1772650349054860500,6.137860595703125,-0.2466185530871152,-0.8710340617448091,1.2183565302051602,0.5170722007751465,0.3530726432800293,0.3801753222942352
1772650349064833500,6.14783349609375,0.1021527990072965,-1.0546095909416675,1.4231259463392196,0.5758734345436096,0.1864378452301025,0.4203000962734222
1772650349074805500,6.157805419921875,0.4962070618957281,-1.1649810599789023,1.302828564962745,0.5919766426086426,-0.0242621600627899,0.3693015873432159
1772650349084778500,6.167778564453125,0.9922814373224972,-1.205765490309894,0.9177334152080118,0.5495226383209229,-0.2474957704544067,0.1867344379425048
1772650349094751500,6.17775146484375,1.2190057878941296,-1.334607851061225,0.4970991884298622,0.479674369096756,-0.4397726655006408,-0.0926783233880996
1772650349104723500,6.187723388671875,0.9512158519625664,-1.39094903922528,0.1599102837100625,0.4079442620277405,-0.5505731701850891,-0.3891605734825134
1772650349114696400,6.197696533203125,0.22521803766191,-1.1489981856882572,-0.1063264314301312,0.3442188799381256,-0.5147676467895508,-0.6100111603736877
1772650349124668700,6.207668701171875,-0.7137199320077896,-0.7044207732647657,-0.4088131483420729,0.2714773118495941,-0.414641797542572,-0.7308587431907654
1772650349134641700,6.2176416015625,-1.6305740801632402,-0.2436310617089271,-0.7036775536820292,0.223100408911705,-0.2916490435600281,-0.7453600764274597
1772650349144613600,6.227613525390625,-2.411001988309622,0.1292997491300106,-0.7629306837700307,0.2079795151948928,-0.1386573612689972,-0.6785035133361816
1772650349154586600,6.237586669921875,-2.769345470869541,0.4285393008142709,-0.7317287591680884,0.2165448069572448,0.0003242390230298,-0.582569420337677
1772650349164559600,6.2475595703125,-2.6574469383955,0.6920362157270312,-0.682347765405476,0.2373188138008117,0.0676936954259872,-0.4861547648906708
1772650349174531600,6.257531494140625,-2.240364851140976,0.8223895655632019,-0.4649599829778075,0.2615253925323486,0.0289248675107955,-0.3776554763317108
1772650349184504600,6.267504638671875,-2.003297385731339,0.8005176332339644,0.0675626932717859,0.3069764971733093,-0.0188394580036401,-0.2094430327415466
1772650349194476500,6.2774765625,-2.0277830076903105,0.8458461367353797,0.5591273361891508,0.3628185391426086,-0.010078627616167,0.0223997700959444
1772650349204449500,6.287449462890625,-2.132520562493801,1.1271025802224874,0.764687902700901,0.4395426213741302,0.051631610840559,0.3079108893871307
1772650349214422500,6.297422607421875,-2.029941647028923,1.4081190774738788,0.9005762364409864,0.5252549052238464,0.1694059073925018,0.5983678102493286
1772650349224394500,6.30739453125,-1.6772884850651024,1.536205651421845,0.9929118441805244,0.6125727295875549,0.2630732953548431,0.8255887031555176
1772650349234367500,6.317367431640625,-0.9851116918236016,1.4959145575657486,1.050907375422865,0.6833222508430481,0.2735107541084289,0.9691678881645204
1772650349244339500,6.32733935546875,-0.1303501349657773,1.3548828695878383,1.1277771184831855,0.7229383587837219,0.2140474170446396,1.0340381860733032
1772650349254312400,6.3373125,0.6371189228862524,1.168409280861914,1.1232602255806323,0.7288119196891785,0.110232263803482,1.0133813619613647
1772650349264284700,6.34728466796875,1.2486071454316376,1.0008847227558493,1.03992968900837,0.7019670009613037,-0.037933237850666,0.903377652168274
1772650349274257700,6.357257568359375,1.5793535960137843,0.8121008112609386,0.9042353434704244,0.6537767648696899,-0.1628524363040924,0.7368860244750977
1772650349284230400,6.36723046875,1.581864702051878,0.6893290025949478,0.7779126373898237,0.584816575050354,-0.2539775371551513,0.5572816133499146
1772650349294202600,6.37720263671875,1.315384679675102,0.654824090924859,0.5304227082956582,0.4928937256336212,-0.3097274005413055,0.362657219171524
1772650349304175600,6.387175537109375,0.8867717291027307,0.721563338984549,0.3000908347513527,0.4013677835464477,-0.315221220254898,0.1660346984863281
1772650349314147600,6.397147705078125,0.3819745335161685,0.7884729751750826,0.1593762498985975,0.3268558084964752,-0.2767297029495239,-0.0149877863004803
1772650349324120600,6.40712060546875,-0.2000122847348451,0.9062617347314952,0.0983291490659117,0.2653689980506897,-0.1916392892599105,-0.1449132859706878
1772650349334092500,6.417092529296875,-0.7644178535878657,1.0775471066758036,-0.0393955332558602,0.2060814350843429,-0.0528347343206405,-0.1872248500585556
1772650349344065800,6.427065673828125,-1.2568483195543287,1.2751990920200944,-0.2034552647955715,0.147347554564476,0.0873998701572418,-0.1286576837301254
1772650349354038500,6.43703857421875,-1.4954630144059655,1.4466592360094188,-0.3026417613431811,0.109373927116394,0.1941169500350952,0.0202242992818355
1772650349364010500,6.447010498046875,-1.3472481369256972,1.6553303357571365,-0.2799577819786966,0.0981444418430328,0.232531189918518,0.2010649144649505
1772650349373983700,6.456983642578125,-0.8303986844956874,1.8075962421938776,-0.2319908197324723,0.0768099278211593,0.1828539371490478,0.3379077017307281
1772650349383955500,6.46695556640625,-0.1394534788757562,1.7442089349105954,-0.1968704065125435,0.0469614900648593,0.1084159165620803,0.4000291228294372
1772650349393928400,6.476928466796875,0.4755769463211298,1.6301862498894333,-0.1104815783482044,0.0211898479610681,0.0696984902024269,0.3788612186908722
1772650349403900700,6.486900634765625,0.9293167393654584,1.5098951521232724,-0.0867996739875525,-0.0011609969660639,0.0839075222611427,0.2934906482696533
1772650349413873400,6.496873291015625,1.1625415578722953,1.3878148328527808,-0.0580976764425635,-0.0142404623329639,0.1420153230428695,0.1821785420179367
1772650349423846400,6.506846435546875,1.2624912938773631,1.292559392143786,0.0276096722636371,-0.0160245150327682,0.2271818816661834,0.0771993994712829
1772650349433818600,6.516818603515625,1.251015960139036,1.231599604268372,0.1606480234000831,-0.0013129056897014,0.2980883717536926,0.007066685706377
1772650349443791600,6.52679150390625,1.2298358094662427,1.1452809187307953,0.2039732973203062,0.0185635983943939,0.3427093625068664,-0.0227130483835935
1772650349453763600,6.536763671875,1.269869713690877,1.0245710110306738,0.2069573546323925,0.0302794016897678,0.3443765044212341,-0.0205160658806562
1772650349463736600,6.546736572265625,1.317884095275402,0.8339557924553751,0.1472822728052735,0.0180315263569355,0.298324853181839,-0.0017333221621811
1772650349473709600,6.55670947265625,1.399535958045721,0.6350687123581766,0.103843893899396,-0.0022559277713298,0.2059514373540878,0.0065870988182723
1772650349483681500,6.566681640625,1.5117039551109075,0.4520116540774703,0.1781812689378857,-0.0281692836433649,0.0909462869167327,0.0022160527296364
1772650349493654500,6.576654541015625,1.5220114141136407,0.28160657209903,0.3162189627315849,-0.0351213179528713,-0.026332426816225,-0.0164319686591625
1772650349503626500,6.58662646484375,1.4019284061402082,0.1756044041872024,0.3463951244823634,-0.0312517434358596,-0.0901236534118652,-0.0534270070493221
1772650349513599700,6.596599853515625,1.1576187145173549,0.0821723795130848,0.2553638773396611,-0.0259157642722129,-0.1061392799019813,-0.0955817401409149
1772650349523571500,6.606571533203125,0.8852788601964712,-0.0613669073715806,0.1228229543313384,-0.0403165407478809,-0.0887288674712181,-0.132486492395401
1772650349533544400,6.61654443359375,0.6394663627952337,-0.2208221407905221,0.0152324212495237,-0.0697386488318443,-0.0632677897810936,-0.1609176248311996
1772650349543517700,6.626517578125,0.4316413584828376,-0.3367302011668682,-0.055301031461358,-0.1067392826080322,-0.0483144074678421,-0.1749775260686874
1772650349553489400,6.636489501953125,0.2398819383084774,-0.388788305184245,0.0073518971327692,-0.12406587600708,-0.0572661831974983,-0.1630033254623413
1772650349563462400,6.64646240234375,0.0866430951863527,-0.3580415770038962,0.1246999271843582,-0.126683235168457,-0.0949789434671402,-0.1349517256021499
1772650349573434600,6.6564345703125,-0.1080225678235292,-0.3339849941119551,0.164943382506445,-0.1204936280846595,-0.1489298790693283,-0.0896380245685577
1772650349583407600,6.66640771484375,-0.2742284445464611,-0.3627481472596526,0.1350199534077197,-0.118975356221199,-0.1913742870092392,-0.0415969900786876
1772650349593380400,6.67638037109375,-0.4217763825505972,-0.4426508282750844,0.0904706906504929,-0.1173234060406684,-0.2510961294174194,0.0182668250054121
1772650349603352600,6.6863525390625,-0.5817343047946691,-0.5016732183471322,0.0957405208121985,-0.1177087649703025,-0.2884173989295959,0.0968585759401321
1772650349613325600,6.69632568359375,-0.7018833637416363,-0.6014829613596201,0.0572652442064136,-0.1241506561636924,-0.2788036465644836,0.1812694668769836
1772650349623297500,6.706297607421875,-0.6464250958919525,-0.6204547883331776,0.0258748112950474,-0.1355732232332229,-0.2434840053319931,0.2489995062351226
1772650349633270800,6.716270751953125,-0.4591688323557376,-0.6518085424959659,0.0052146659083664,-0.146395593881607,-0.1971424371004104,0.2832889854907989
1772650349643242500,6.726242431640625,-0.1246931321173906,-0.6688999625504016,0.0072147536844015,-0.1482938975095749,-0.165327250957489,0.2839603722095489
1772650349653215700,6.7362158203125,0.1845943508505821,-0.706960228614509,0.0727769938539713,-0.1507855653762817,-0.1566215902566909,0.2682998776435852
1772650349663188700,6.746188720703125,0.4346890556156635,-0.7847808426588774,0.1052940196424722,-0.1577372103929519,-0.1704937219619751,0.2427034378051757
1772650349673160700,6.75616064453125,0.5847808328837156,-0.8436793140903115,0.1700953584421426,-0.1684044301509857,-0.2070354670286178,0.2186396121978759
1772650349683133700,6.7661337890625,0.6003682781159877,-0.8608674725174903,0.247931973773241,-0.1842987090349197,-0.247464120388031,0.1967327147722244
1772650349693105700,6.776105712890625,0.4797241291284561,-0.8777753526985644,0.2422540012020617,-0.2105564922094345,-0.2659002542495727,0.1840229779481887
1772650349703078700,6.78607861328125,0.2743079395234584,-0.8625368670344352,0.1233395255513489,-0.240815058350563,-0.2641990482807159,0.1887879073619842
1772650349713050600,6.796050537109375,0.0348562093257904,-0.7924082687973976,0.01031812652722,-0.280109703540802,-0.2529019117355346,0.2165722101926803
1772650349723023600,6.806023681640625,-0.1803863777667284,-0.7227046179741621,-0.1142062979597598,-0.3276620507240295,-0.2223671674728393,0.2510987520217895
1772650349732996600,6.81599658203125,-0.408428825199604,-0.7321332483157516,-0.2090909325949847,-0.3730202317237854,-0.1791175752878189,0.3096638321876526
1772650349742968600,6.825968505859375,-0.6709633248209953,-0.7234501756444573,-0.2816172396235167,-0.4419550895690918,-0.1210393458604812,0.4001103639602661
1772650349752941600,6.835941650390625,-0.8907926551818847,-0.7512327933222055,-0.3881962575752288,-0.5298144221305847,-0.0309139899909496,0.4986259341239929
1772650349762913800,6.845913818359375,-0.9486135605096816,-0.7245096215695143,-0.37878034058474,-0.6118022203445435,0.0729202628135681,0.5964620113372803
1772650349772886800,6.85588671875,-0.9160358175098896,-0.6337754576772451,-0.1621187535397708,-0.6571102142333984,0.1387718021869659,0.6935260891914368
1772650349782859500,6.865859619140625,-0.6618044513314962,-0.4435808026015758,0.2766824135698378,-0.6564193964004517,0.1737015694379806,0.7781879901885986
1772650349792831700,6.875831787109375,-0.2923492076486348,-0.2824006450861692,0.6726542735826224,-0.62018883228302,0.2008907198905944,0.8212828636169434
1772650349802804700,6.8858046875,0.0195808987826108,-0.1961959413170814,0.9516954521730542,-0.556069552898407,0.2255475968122482,0.8366514444351196
1772650349812776400,6.8957763671875,0.2761678881764411,-0.1969920601308345,1.2181839501172302,-0.4745396971702575,0.2060064077377319,0.8368791341781616
1772650349822749700,6.905749755859375,0.5854734913229942,-0.1272451546877622,1.343092624681443,-0.4102131724357605,0.1083118095993995,0.8041579127311707
1772650349832721700,6.9157216796875,0.9405015657246112,-0.0712532183527946,1.294722415396571,-0.3662867248058319,-0.0611742287874221,0.7197631597518921
1772650349842694700,6.925694580078125,1.216022972691059,-0.1249789633214473,1.1754032314024865,-0.3524705171585083,-0.2724332213401794,0.5674785375595093
1772650349852667600,6.935667724609375,1.3313432963073253,-0.311692790544033,1.013854825096577,-0.3663269281387329,-0.4462707936763763,0.3828634619712829
1772650349862639600,6.9456396484375,1.2650772187173365,-0.4697264667272567,0.7113279223047196,-0.4221616983413696,-0.5596471428871155,0.1862182915210724
1772650349872612600,6.955612548828125,1.0683552076995373,-0.3898077113598585,0.2729107860766351,-0.4975651204586029,-0.6210519075393677,0.0010899837361648
1772650349882584600,6.96558447265625,0.7886480394810438,-0.0401852953940629,-0.111818160714209,-0.5492275357246399,-0.6710003018379211,-0.1612131744623184
1772650349892557600,6.9755576171875,0.4682335978209972,0.3468324929863214,-0.3220700268473476,-0.5731134414672852,-0.6612248420715332,-0.2958662509918213
1772650349902529800,6.98552978515625,0.1506435659319162,0.5763929437667131,-0.4531204921022057,-0.5888655185699463,-0.5873839259147644,-0.4206569194793701
1772650349912502800,6.995502685546875,0.019655133062601,0.7271534140765666,-0.510472610874474,-0.5995659828186035,-0.5160305500030518,-0.5597437620162964
1772650349922475500,7.0054755859375,-0.0190630123883485,0.8147609703809022,-0.474911979606375,-0.6049618124961853,-0.4796232581138611,-0.7048782706260681
1772650349932447700,7.01544775390625,-0.1445160229623317,0.8084510565817355,-0.3812470960244536,-0.6051708459854126,-0.4551751017570495,-0.8162098526954651
1772650349942420700,7.025420654296875,-0.4518149624615907,0.8497147948622703,-0.3154264241144061,-0.5983062982559204,-0.4289634823799133,-0.8381292819976807
1772650349952392700,7.035392822265625,-0.9733785839319228,0.9660855043143032,-0.2412655016213655,-0.5903052687644958,-0.3995102047920227,-0.7537795901298523
1772650349962365700,7.04536572265625,-1.424295720770955,1.1272943034023046,-0.0182970695171505,-0.563691258430481,-0.3809575736522674,-0.564163327217102
1772650349972338700,7.055338623046875,-1.7403180649518966,1.3609867394208908,0.303027472725138,-0.4902333915233612,-0.348224014043808,-0.3002663552761078
1772650349982310700,7.065310546875,-1.8798691589832304,1.607062856194377,0.6135434015095234,-0.3791444301605224,-0.3185233771800995,-0.0191665235906839
1772650349992283600,7.07528369140625,-1.770998449897766,1.7152397377967834,0.8385015461262315,-0.2448050081729889,-0.2847837507724762,0.239430621266365
1772650350002255600,7.085255615234375,-1.4877800586879253,1.7166349915474652,0.975348203504458,-0.118736021220684,-0.2329210788011551,0.435770034790039
1772650350012228600,7.095228515625,-1.078811135262251,1.5532979482591152,0.859195155391097,-0.0350138470530509,-0.1973153054714203,0.5587478876113892
1772650350022200600,7.10520068359375,-0.5724608650147914,1.2713415398091077,0.6417336501400918,0.0030552432872354,-0.1704892814159393,0.6041848659515381
1772650350032173600,7.115173583984375,-0.0884890153139829,0.9906471141189336,0.4733610969025641,0.0173142682760953,-0.1606063246726989,0.5892614126205444
1772650350042146600,7.125146484375,0.3123141373127698,0.7388181329071521,0.2517196025531739,0.0165472775697708,-0.1711292713880539,0.5108968019485474
1772650350052118800,7.135118896484375,0.5590718066096305,0.5002314951062202,-0.0486265221334993,-0.0005950387567281,-0.2067308276891708,0.394389271736145
1772650350062091500,7.145091552734375,0.6904045228719711,0.2999029840290546,-0.3864560628443956,-0.0462466813623905,-0.255001425743103,0.2604120373725891
1772650350072063700,7.155063720703125,0.685404522627592,0.0758779555439949,-0.762062961024791,-0.1263628154993057,-0.3130101263523102,0.0926078706979751
1772650350082036700,7.16503662109375,0.5845902787476778,-0.0625946956008672,-1.106405756087229,-0.2262388169765472,-0.3646488189697265,-0.0944629535079002
1772650350092008700,7.1750087890625,0.4049129260331392,-0.1106803888559341,-1.3534493296533825,-0.3309005498886108,-0.3578246831893921,-0.2837129533290863
1772650350101981700,7.184981689453125,0.1432744984686374,-0.0311065014034509,-1.452697931651771,-0.4136135578155517,-0.2819277942180633,-0.446130633354187
1772650350111954700,7.19495458984375,-0.1415086578398942,0.1640858158290386,-1.421373111322522,-0.4629684090614319,-0.1888585984706878,-0.5590454936027527
1772650350121927000,7.204927001953125,-0.3110533235967159,0.4072124351471662,-1.198125643081218,-0.477306067943573,-0.089438259601593,-0.6199091076850891
1772650350131899600,7.214899658203125,-0.4037386215567589,0.6555792932063341,-0.8947934152558445,-0.4685189425945282,-0.032361514866352,-0.6262357234954834
1772650350141871600,7.22487158203125,-0.3699403968513011,0.8019996884852647,-0.5539505180731416,-0.4391623735427856,-0.0237030461430549,-0.5959532260894775
1772650350151844900,7.234844970703125,-0.358763753798604,0.9196253664344548,-0.2667677532769739,-0.3961606621742248,-0.0314285606145858,-0.5331787467002869
1772650350161816600,7.244816650390625,-0.3716407710283994,1.010736254684627,-0.0044886166561394,-0.3369990885257721,-0.0406550839543342,-0.4419713914394378
1772650350171789600,7.25478955078125,-0.3942594300717115,1.0783081541761754,0.1877401015304028,-0.2614043354988098,-0.023635521531105,-0.3413856625556946
1772650350181762800,7.2647626953125,-0.2731038244307041,1.1017574188247323,0.4130136687718331,-0.173669695854187,0.011088634841144,-0.2611941397190094
1772650350191734800,7.27473486328125,0.0091670567959547,1.074763613437116,0.6620891134917736,-0.0698909386992454,0.0185493156313896,-0.2284731715917587
1772650350201707500,7.28470751953125,0.323403102082014,0.9967591672584414,0.763598280833289,0.0420957803726196,0.0110402656719088,-0.2274494469165802
1772650350211679700,7.2946796875,0.4978554136246442,0.8440992930680513,0.7794479571983218,0.1446285098791122,0.0133082102984189,-0.2301281243562698
1772650350221652700,7.30465283203125,0.5454746584117413,0.7359492994725704,0.732990157406032,0.2231731116771698,0.0182150844484567,-0.2288591265678405
1772650350231625500,7.31462548828125,0.4612216732323169,0.6181961957514286,0.5658365515042096,0.2808986008167267,0.0291376747190952,-0.2059253007173538
1772650350241597700,7.32459765625,0.2961222964465618,0.5227449402093887,0.3725538672853261,0.3242013454437256,0.056450255215168,-0.1600124090909958
1772650350251570700,7.33457080078125,0.1346615684241056,0.4438362386673689,0.1817057898022234,0.3599892556667328,0.0971572920680046,-0.0897354781627655
1772650350261542700,7.344542724609375,0.0623702391952276,0.3850874048396945,0.0676077014572918,0.3895298540592193,0.1094413846731185,-0.0152069143950939
1772650350271515600,7.354515625,0.1934860978364944,0.3443213869482278,0.0333518691774457,0.406613677740097,0.1030549705028534,0.0302856788039207
1772650350281487600,7.364487548828125,0.40440789912045,0.2542451024428009,0.0004560732044279,0.4151794612407684,0.0842469334602356,0.0400131419301033
1772650350291460900,7.3744609375,0.613581395432353,0.1837532238513231,-0.0372860668212175,0.4105843305587768,0.0746913477778434,0.0125395022332668
1772650350301433600,7.38443359375,0.7590870139539241,0.1084212117522955,-0.0796593737788498,0.4044382870197296,0.0814829394221305,-0.0392291545867919
1772650350311405600,7.394405517578125,0.830690360918641,0.1462844939395785,-0.0675493953987956,0.3936230540275574,0.0987557098269462,-0.1083281487226486
1772650350321378800,7.40437890625,0.879613089519739,0.1897878278404474,-0.0680687430977821,0.3896221816539764,0.1061670184135437,-0.1790622323751449
1772650350331350500,7.4143505859375,0.8741016326218843,0.1993602505668997,-0.1051173479013145,0.3834885358810425,0.11751639097929,-0.2507098913192749
1772650350341323500,7.424323486328125,0.8998053981989622,0.1938844495043158,-0.080327628429234,0.3708968460559845,0.1120782196521759,-0.3203470110893249
1772650350351295700,7.434295654296875,0.9147691585749388,0.1732990498542785,-0.0966537631995975,0.3417604565620422,0.0934843942523002,-0.4045395851135254
1772650350361268700,7.444268798828125,0.826814980790019,0.1157125378042459,-0.1167848432108759,0.3081340491771698,0.0839641243219375,-0.4798905551433563
1772650350371241500,7.454241455078125,0.6410556778132915,0.0774856830015778,-0.0272088363777846,0.2903125584125519,0.1067269220948219,-0.5470939874649048
1772650350381213700,7.464213623046875,0.4549526759654283,0.0927732685044407,0.1423976425688713,0.3007785081863403,0.1278537809848785,-0.6058292388916016
1772650350391186700,7.474186767578125,0.2630062087863684,0.1959501498624682,0.2631355342544615,0.337260365486145,0.1516233533620834,-0.6380780339241028
1772650350401158700,7.48415869140625,-0.005285246926546,0.2193359938859939,0.2669705093074589,0.3725989162921905,0.1964984089136123,-0.6327724456787109
1772650350411131600,7.494131591796875,-0.2111772373497486,0.184885442751646,0.18472184968777,0.4022796750068664,0.2330514639616012,-0.580083429813385
1772650350421104600,7.504104736328125,-0.2773381009995937,0.123662912286818,0.1130325780052691,0.4111897945404053,0.2549184262752533,-0.5170788764953613
1772650350431076900,7.514076904296875,-0.1953314334422349,-0.0872547973439097,0.0220415167424827,0.3933713734149933,0.2518604397773742,-0.4749058485031128
1772650350441049600,7.524049560546875,-0.0688613547801971,-0.2387608253240585,-0.0521018700938671,0.3745073974132538,0.2365576326847076,-0.4367262423038482
1772650350451021600,7.534021484375,-0.0023258125990629,-0.3561559093877673,-0.1654931253436952,0.3529764711856842,0.2502743005752563,-0.4227707684040069
1772650350460994800,7.543994873046875,0.001499298647046,-0.4590335155382752,-0.2677946121066809,0.329533189535141,0.2887013256549835,-0.4157259166240692
1772650350470966500,7.553966552734375,-0.1070154366075992,-0.5703904884815215,-0.3202264448072761,0.3160873055458069,0.3321598172187805,-0.3949176073074341
1772650350480939500,7.563939453125,-0.1673568003237247,-0.6075564360544086,-0.2777435399953276,0.312265932559967,0.369555115699768,-0.3705299496650696
1772650350490912800,7.573912841796875,-0.1148334168821573,-0.6277019829824566,-0.2685935804646462,0.3076376616954803,0.3882351219654083,-0.3367493450641632
1772650350500884700,7.583884765625,0.0151911393910646,-0.6939192529946565,-0.2911937540031969,0.3049744963645935,0.3994904458522796,-0.3165950775146484
1772650350510857500,7.593857421875,0.1927414169490337,-0.8019307149022817,-0.3059324003864079,0.295188695192337,0.3959291279315948,-0.3070606589317322
1772650350520829700,7.60382958984375,0.3741132986217736,-0.8499103174343705,-0.3423202031936496,0.279053121805191,0.371813952922821,-0.3117877542972564
1772650350530802700,7.613802734375,0.5280757798433303,-0.8788900359421968,-0.4794608750823885,0.2517101168632507,0.3596912920475006,-0.3354840278625488
1772650350540774700,7.623774658203125,0.5473825378596783,-0.9451070136934518,-0.6708068921502679,0.2032762616872787,0.3763405680656433,-0.3551762402057647
1772650350550747600,7.63374755859375,0.3110182522833347,-1.0630167692810295,-0.8261421960949897,0.1404291540384292,0.4235945045948028,-0.3542923629283905
1772650350560720600,7.643720703125,0.0605880319535732,-1.074687333330512,-0.8183575335681438,0.0982593297958374,0.4768494665622711,-0.3223954141139984
1772650350570692900,7.65369287109375,-0.0984469302266836,-0.9977879257842898,-0.6492136306319385,0.090334303677082,0.5110076665878296,-0.2598944306373596
1772650350580665600,7.66366552734375,-0.1234983693748712,-0.9220730518475174,-0.3837485574513674,0.1119053810834884,0.5074760317802429,-0.1945103853940963
1772650350590637600,7.673637451171875,-0.0361556014865636,-0.9186743493199347,-0.1142429036431014,0.1414041817188263,0.4595029950141907,-0.1399680227041244
1772650350600610800,7.68361083984375,0.0296580561608076,-1.0344193280890583,0.0158551562577486,0.1705285161733627,0.406613677740097,-0.1025466173887252
1772650350610583800,7.693583740234375,0.024653379741311,-1.170934707686305,0.0809839003808796,0.1938999146223068,0.3692284226417541,-0.0773004442453384
1772650350620555500,7.703555419921875,0.0368161112219095,-1.277206340189278,0.117790951513499,0.2150885611772537,0.3221256136894226,-0.074447400867939
1772650350630528800,7.71352880859375,-0.008972411006689,-1.3620701507434247,0.1060344627462327,0.2409792393445968,0.3060322105884552,-0.0843803957104682
1772650350640500200,7.723500244140625,-0.0968815806061029,-1.387739429529011,0.1104071248725056,0.2688028812408447,0.320199966430664,-0.1026584655046463
1772650350650473500,7.733473388671875,-0.2312175703376531,-1.4115481751397252,0.1566658949613571,0.3071802854537964,0.3440681099891662,-0.1013343930244445
1772650350660445400,7.743445556640625,-0.449171754476428,-1.3894561703190207,0.2043273714549839,0.3561864495277405,0.3669015169143677,-0.0588937327265739
1772650350670418200,7.753418212890625,-0.7007803709357977,-1.3492635684013363,0.2232024600557982,0.412441223859787,0.3867627382278442,0.0352103747427463
1772650350680391400,7.763391357421875,-0.849814163583517,-1.3321125271141527,0.2778689930059015,0.475841224193573,0.3953652679920196,0.1662032753229141
1772650350690363400,7.77336328125,-0.8241144896596669,-1.4581909761101006,0.4981767545334994,0.5488607883453369,0.3635276854038238,0.3066690862178802
1772650350700336400,7.78333642578125,-0.6437514927685261,-1.5527198561102151,0.7721165913969278,0.6333679556846619,0.3011980056762695,0.4293526411056518
1772650350710308400,7.793308349609375,-0.3089367698341608,-1.6585551430225371,0.9321152840428054,0.7226136326789856,0.2008193284273147,0.5118664503097534
1772650350720281300,7.80328125,0.149248896703124,-1.71237382697165,1.0411921832248567,0.7919013500213623,0.0493544414639472,0.5208578109741211
1772650350730253600,7.813253662109375,0.5343155510157347,-1.846955023635924,1.041267732679099,0.826878547668457,-0.0818628221750259,0.4526968598365783
1772650350740226300,7.823226318359375,0.8701333135128021,-1.8338146792948244,0.9277041896022856,0.8337178230285645,-0.2085310220718383,0.3092842996120453
1772650350750199300,7.83319921875,1.0408066910386085,-1.4760624406263232,0.4265155399017035,0.8261461853981018,-0.3278503715991974,0.1498174369335174
1772650350760171500,7.843171630859375,0.7715344075948,-1.0344225429594516,-0.3925838980749249,0.7825033664703369,-0.3921233713626861,0.0511364117264747
1772650350770144300,7.853144287109375,0.2434673955798149,-0.7461252410501241,-1.1723992272809147,0.664120614528656,-0.4192153811454773,-6.4909690991e-06
1772650350780116200,7.8631162109375,-0.2560334471642971,-0.6449637911677361,-1.807151713296771,0.4820885360240936,-0.4227105379104614,-0.0407006591558456
1772650350790089500,7.87308935546875,-0.6484229917109012,-0.6587830576837063,-1.9974078893013296,0.2687256634235382,-0.4170820116996765,-0.1110376194119453
1772650350800062500,7.8830625,-0.8913865294218063,-0.6350675433143973,-1.898589203152805,0.0879031419754028,-0.3974870145320892,-0.2576574087142944
