time,seconds_elapsed,acc_z,acc_y,acc_x,gyro_z,gyro_y,gyro_x
1772650024670911200,0.0699111328125,0.5503530781030654,-0.3088463150717317,0.1525309871137142,0.0792190432548523,0.0062692142091691,-0.2357626557350158
1772650024680883500,0.079883544921875,0.7976362325787544,-0.2683465469010174,0.2730687531173229,0.0943159684538841,-0.0693618953227996,-0.3217939436435699
1772650024690855400,0.08985546875,0.5702689079284667,-0.136624356397055,0.335780170433037,0.1075131595134735,-0.1240420937538147,-0.371660441160202
1772650024700828400,0.099828369140625,-0.0558937366575002,-0.0149222593218088,0.2195264932231046,0.1250921487808227,-0.09311293810606,-0.3359138965606689
1772650024710800400,0.10980029296875,-0.5634042828559875,0.0526307893387973,0.0915162085148971,0.127871572971344,-0.0519828386604785,-0.2442136108875274
1772650024720772600,0.119772705078125,-0.8106617183685302,-0.0265501898059621,-0.1091942876171786,0.117203488945961,-0.0374097563326358,-0.1440356075763702
1772650024730744300,0.129744384765625,-0.8494237029612064,-0.1517558014901354,-0.1982343883421272,0.093375563621521,-0.0179243069142103,-0.0652933120727539
1772650024740717300,0.13971728515625,-0.8799170409023761,-0.1997080410912632,-0.2544127871599048,0.0657513886690139,0.014257064089179,0.0114478040486574
1772650024750689500,0.149689453125,-0.73878481515944,-0.2208076373411342,-0.2518104957070201,0.0425843074917793,0.0363878160715103,0.0642422437667846
1772650024760661200,0.1596611328125,-0.2749129196792841,-0.2491262250591069,-0.1595969251782633,0.0384217873215675,0.021125242114067,0.0699139758944511
1772650024770634500,0.169634521484375,0.1497112535178661,-0.2415484467485919,0.0483891057815868,0.048536404967308,-0.0196647495031356,0.0464595220983028
1772650024780606500,0.1796064453125,0.2955763530015945,-0.2297474977850913,0.235837339092791,0.0689956024289131,-0.0671664923429489,0.0099497167393565
1772650024790578400,0.189578369140625,0.2704524331390857,-0.2220611445335671,0.2350366902343928,0.0816676691174507,-0.0901912599802017,0.0001204956788569
1772650024800551400,0.199551513671875,0.0849058961302041,-0.2015814702803268,0.1716089413428679,0.0947347357869148,-0.0986832752823829,0.0082455333322286
1772650024810523400,0.2095234375,-0.1701543220877647,-0.1638153648572042,0.1344344725368078,0.0868114978075027,-0.0713546797633171,0.0358707793056964
1772650024820495400,0.219495361328125,-0.4125035272926092,-0.1101954548832029,0.0354128728108829,0.0560490526258945,-0.0325886346399784,0.0735683590173721
1772650024830467600,0.229467529296875,-0.3216290781468153,-0.002338343287073,0.0046611921774921,0.037957839667797,-0.0160933844745159,0.0939874202013015
1772650024840440600,0.239440673828125,-0.0540010547786951,0.0588777209043502,0.1453580450107343,0.03365283831954,-0.0256051309406757,0.0944505408406257
1772650024850412300,0.249412353515625,0.0629050767242908,0.0367433017140254,0.2507172936428338,0.0315187089145183,-0.0364779196679592,0.0815030708909034
1772650024860384500,0.259384521484375,0.1471095465868711,0.0204337162196636,0.2282513044105842,0.0184484496712684,-0.0371066927909851,0.0581532754004001
1772650024870357500,0.269357421875,0.0991197149217128,0.0192909759253263,0.1368303090316243,0.0022593243047595,-0.0229788850992918,0.0507455989718437
1772650024880329500,0.27932958984375,0.0819417856276035,0.0297617722636088,0.1223616569625213,-0.0102332979440689,-0.019386813044548,0.0500808730721473
1772650024890301400,0.289301513671875,0.0993137761890888,0.00185903533753,0.0900926511183381,-0.0234496053308248,-0.0197342652827501,0.0415801741182804
1772650024900273400,0.2992734375,0.1166612168312072,-0.0064436597140505,0.0691707677892409,-0.0303264204412698,-0.0166615098714828,0.037063717842102
1772650024910246400,0.309246337890625,0.1640489909499883,-0.0091170436417683,0.0371191036233212,-0.0357770770788192,-0.0197313781827688,0.0216870568692684
1772650024920218400,0.31921826171875,0.1714186429351568,-0.0505768159510567,0.0351028181977337,-0.0416690558195114,-0.0525543056428432,0.0067911990918219
1772650024930190300,0.3291904296875,0.1124018058210611,-0.1054214454144239,0.151576462867856,-0.0370903648436069,-0.0932924374938011,-0.0173532422631979
1772650024940163300,0.339163330078125,-0.0316740721583366,-0.0884560994250699,0.3331166868448257,-0.0185640826821327,-0.1131292581558227,-0.0120247900485992
1772650024950135600,0.349135498046875,-0.2512760235041379,-0.0334908392567187,0.3698367903463542,-0.0062856944277882,-0.1183594688773155,0.015374825336039
1772650024960107300,0.359107177734375,-0.4109118741869926,-0.102481154178828,0.2441985776648856,-0.0067309746518731,-0.1267225891351699,0.0565539523959159
1772650024970080300,0.369080322265625,-0.4930635031729936,-0.2250275565911084,0.1217362276737112,-0.0204447954893112,-0.1313505321741104,0.097816988825798
1772650024980052500,0.379052490234375,-0.4766419452041387,-0.2948463947592303,0.0014549023828934,-0.0470154173672199,-0.1166000813245773,0.133327305316925
1772650024990024400,0.3890244140625,-0.4044523227840662,-0.347308184206672,-0.0753166775325778,-0.079063206911087,-0.0988079831004142,0.1631013602018356
1772650024999996400,0.398996337890625,-0.3148503777921199,-0.392256419686228,-0.1182293063981458,-0.1067214682698249,-0.0947221666574478,0.1857121288776397
1772650025009969400,0.408969482421875,-0.1534013402074575,-0.3909326602691784,-0.0884284807657822,-0.1233329847455024,-0.0899525508284568,0.1987079977989196
1772650025019941400,0.41894140625,-0.0504705425649881,-0.3825559866659343,-0.0821666438920423,-0.1333328932523727,-0.0870539620518684,0.2074122726917266
1772650025029913300,0.428913330078125,-0.0193932672560214,-0.3330898719031363,-0.0977370283916592,-0.1387615501880645,-0.0791221484541893,0.2113726288080215
1772650025039886600,0.438886474609375,0.0288584302157163,-0.2440706039036624,-0.0592704830816015,-0.1399533152580261,-0.0707310587167739,0.2070316821336746
1772650025049858300,0.4488583984375,0.1328828683137893,-0.1931741458104923,0.0366805386761203,-0.1310599446296692,-0.0633991137146949,0.2016110867261886
1772650025059830500,0.45883056640625,0.2061673002332449,-0.1275932922719977,0.1172403501597233,-0.1117805168032646,-0.0789415836334228,0.1961542665958404
1772650025069802200,0.46880224609375,0.181049225589633,-0.0901823569620959,0.1550084466105327,-0.0966366603970527,-0.1002571135759353,0.1906934827566146
1772650025079775200,0.478775146484375,0.1771159777939319,-0.051998382319929,0.1591506244491785,-0.0936147719621658,-0.0907554924488067,0.1896601766347885
1772650025089747500,0.48874755859375,0.1083843868732452,0.0001410250390414,0.1439538590349257,-0.1008130237460136,-0.0635584220290184,0.1939212083816528
1772650025099719200,0.49871923828125,0.1254033262133598,0.0488573534809984,0.1350866437020711,-0.1099876090884208,-0.0476431027054786,0.1855916380882263
1772650025109692400,0.5086923828125,0.2372580195456743,0.0661718417015858,0.1888041140327229,-0.115016259253025,-0.0388943031430244,0.1589174121618271
1772650025119664400,0.518664306640625,0.3604389935344457,0.0658753886388149,0.2898700859176926,-0.1102537289261818,-0.0388253293931484,0.1182000786066055
1772650025129636400,0.52863623046875,0.4671148229241371,0.0445796578954905,0.2640036771248094,-0.1059780940413475,-0.0381360501050949,0.0732102468609809
1772650025139609300,0.538609375,0.520346062374115,0.0156758724343962,0.2065214474331587,-0.101554587483406,-0.0269137583673,0.0283024255186319
1772650025149581300,0.548581298828125,0.4819774610131979,0.0334265829480485,0.1704596982425078,-0.0984373688697815,-0.0294931046664714,-0.0122180683538317
1772650025159553300,0.55855322265625,0.3828238438218831,-0.0030142423877958,0.1560692442424595,-0.0968551859259605,-0.0356106534600257,-0.0388179905712604
1772650025169525500,0.568525390625,0.2158773778647184,-0.0707893363012466,0.2062157242185436,-0.0903905257582664,-0.0220310166478157,-0.0481817722320556
1772650025179498500,0.57849853515625,0.0793517691344022,-0.0917104615785181,0.1601921145924366,-0.0874937996268272,0.0029315901920199,-0.0456373877823352
1772650025189470200,0.58847021484375,-0.0192670105278491,-0.1066655728571582,0.0376986662101,-0.0856391862034797,0.0121327368542552,-0.0337521992623806
1772650025199442400,0.5984423828125,-0.0370733008533716,-0.1291353432153817,-0.0266645916995592,-0.0771333128213882,0.0075172120705246,-0.0142336245626211
1772650025209415400,0.60841552734375,-0.0235872118145227,-0.1926120184157043,-0.0332325536467134,-0.0704994425177574,0.0074667702428996,0.0034230311866849
1772650025219387400,0.618387451171875,0.0612678309112787,-0.2026194715585559,0.0611656126458197,-0.0619461685419082,-0.0031054466962814,0.0078356228768825
1772650025229359400,0.628359375,0.056337973293662,-0.2276854506887495,0.0881237073992379,-0.0611174702644348,0.0038040620274841,0.0125729730352759
1772650025239332400,0.638332275390625,-0.0280237329572439,-0.2304950830156914,0.1358562946340069,-0.0553860813379287,0.0130239259451627,0.0242706425487995
1772650025249304300,0.64830419921875,-0.1132452709078788,-0.17713298372766,0.1978722770314663,-0.0498734787106514,0.0266610030084848,0.0457695573568344
1772650025259276000,0.658276123046875,-0.0709293932259082,-0.1179460690099745,0.2753396937239915,-0.0349429994821548,0.0427792519330978,0.0491467118263244
1772650025269247700,0.668247802734375,0.0971048679679632,-0.0484021022604778,0.416360458449088,-0.0127080138772726,0.051216036081314,0.0376544743776321
1772650025279220700,0.678220703125,0.1783282761931419,-0.0612285400805063,0.3995474534772336,0.0067303995601832,0.0416323840618133,0.0122825400903821
1772650025289193000,0.68819287109375,0.1800596300303936,-0.1330751942818053,0.2832564581979066,0.0247467085719108,0.0299045443534851,-0.0015551135875284
1772650025299164700,0.69816455078125,0.1355114632517099,-0.192130847302638,0.2010202927336096,0.04099066182971,0.013053392060101,-0.0009548370726406
1772650025309138000,0.708137939453125,-0.0331096579194068,-0.2468398494212888,0.0594882357518188,0.0430768430233001,0.0035428064875304,0.0191565733402967
1772650025319110000,0.71810986328125,-0.1415571731567382,-0.2300442887745797,-0.0606008731688372,0.0360002927482128,0.0126598719507455,0.044753547757864
1772650025329081900,0.728081787109375,-0.1485205824285745,-0.1723296020339243,-0.1680601810864172,0.0177865847945213,0.022736981511116,0.068574234843254
1772650025339053800,0.7380537109375,-0.0779512546867132,-0.1994852651860564,-0.2033458496043458,0.0057980976998806,0.0273905880749225,0.0796689614653587
1772650025349026800,0.74802685546875,0.0729582687050104,-0.2275754327093251,-0.130833132709749,-0.0065619116649031,0.0135007947683334,0.0633984133601188
1772650025358998800,0.757998779296875,0.1554348918616771,-0.2724956294044852,-0.1040158164002001,-0.0166670083999633,-0.0061967419460415,0.0390760265290737
1772650025368970800,0.767970703125,0.1434416717290878,-0.2608586205647327,-0.123823034751974,-0.0275177005678415,-0.0240904185920953,0.0212969575077295
1772650025378944000,0.777944091796875,0.0199444713979959,-0.2674254865333438,-0.1170335938075557,-0.033179048448801,-0.0224009100347757,0.0254022199660539
1772650025388915700,0.787915771484375,-0.1194166530191898,-0.2195674828206189,-0.0970844645007513,-0.0482822880148887,-0.0258184820413589,0.038820169866085
1772650025398888000,0.797887939453125,-0.1966770028322935,-0.1554761189212091,-0.0969140581035986,-0.0608758442103862,-0.0250408388674259,0.0577051788568496
1772650025408861000,0.80786083984375,-0.1645487571656703,-0.146967242906196,-0.0396118428876623,-0.0706932097673416,-0.0237532891333103,0.0713231489062309
1772650025418833000,0.8178330078125,-0.1183615910083055,-0.092314665416209,0.0879871302064508,-0.0774097070097923,-0.027089700102806,0.0757445320487022
1772650025428804900,0.827804931640625,-0.1299327863365411,-0.0037730474133204,0.1430720712317153,-0.0742880851030349,-0.0149130970239639,0.0904159024357795
1772650025438777900,0.83777783203125,-0.0478086298793554,0.0116166704462666,0.1710988546625711,-0.0694115757942199,-0.0052578072063624,0.0935171544551849
1772650025448749800,0.847749755859375,0.1419032101154327,0.0441533405085094,0.1563898179663345,-0.0629593133926391,-0.0101439775899052,0.0794920846819877
1772650025458721800,0.8577216796875,0.3083914109110832,0.0218512320345034,0.1591845449850894,-0.0516344867646694,-0.0277413465082645,0.0507038459181785
1772650025468693800,0.86769384765625,0.3914952260553836,-0.0107552644190262,0.1731984024913981,-0.0389926023781299,-0.047043576836586,0.0258049070835113
1772650025478666800,0.877666748046875,0.3327256417006254,-0.0560172534393146,0.0930502222822979,-0.0369624756276607,-0.0456470139324665,0.012533308006823
1772650025488639000,0.887638916015625,0.2964180645227432,-0.0977738715370185,-0.0537805621621198,-0.0328884609043598,-0.0333015024662017,-0.0050072609446942
1772650025498610700,0.897610595703125,0.3422995257318019,-0.1648257474761456,-0.1268349116527475,-0.0342940799891948,-0.0207260530441999,-0.02491838298738
1772650025508583700,0.907583740234375,0.3696446287751198,-0.2832090023269876,-0.1565337199490517,-0.03349319845438,-0.019482672214508,-0.0506277494132518
1772650025518556000,0.917555908203125,0.3721545657694339,-0.3702534448558464,-0.1760497916008345,-0.0343011990189552,-0.0201063845306634,-0.0760715901851654
1772650025528527600,0.927527587890625,0.2592944947868585,-0.3746416698774322,-0.1948793422931805,-0.0439299419522285,-0.0191612560302019,-0.0846639797091484
1772650025538499800,0.937499755859375,0.0174555771917104,-0.3495099320346489,-0.1513649207427166,-0.0376643240451812,-0.0049551557749509,-0.0641461834311485
1772650025548472800,0.947472900390625,-0.1284311496019363,-0.2500181141312234,0.0255533059894107,-0.0226037614047527,0.0091108474880456,-0.0413685739040374
1772650025558444800,0.95744482421875,-0.1070142675638198,-0.2092510915927588,0.1783729007861577,-0.0100549478083848,0.0016358871944248,-0.0346792452037334
1772650025568416800,0.967416748046875,-0.0694493838012218,-0.2470126121723093,0.2508678262957372,0.012644425034523,0.0008635432459414,-0.0307417195290327
1772650025578389800,0.9773896484375,-0.0205289932876825,-0.2536245593916624,0.3265331437360495,0.0338069684803485,-0.0101970974355936,-0.0293877683579921
1772650025588361700,0.98736181640625,0.0469119733005762,-0.247803726017382,0.327460414648801,0.0582453981041908,-0.0234888847917318,-0.037413727492094
1772650025598334000,0.997333984375,0.0039057752668857,-0.2943957831812091,0.3021196554315276,0.078235350549221,-0.0215948447585105,-0.0356491170823574
1772650025608307000,1.007306884765625,-0.0522714545071125,-0.3240928013792261,0.2820591016395017,0.0910005643963813,-0.0242359228432178,-0.0306296423077583
1772650025618278700,1.017278564453125,-0.1457043559640645,-0.3005749102075584,0.1594912180477753,0.0926570519804954,-0.0164610911160707,-0.0127145573496818
1772650025628251000,1.0272509765625,-0.2220452528446912,-0.3088322134811431,0.054820317006018,0.091218888759613,-0.0032676681876182,0.0141812125220894
1772650025638222800,1.037222900390625,-0.2537538117945194,-0.2760158759525045,0.0454419920795597,0.0890020728111267,0.0098420083522796,0.0358276516199111
1772650025648195800,1.04719580078125,-0.1500245572507381,-0.2319757500275038,0.0256584103316999,0.0868130400776863,0.0100663844496011,0.0420337356626987
1772650025658167800,1.057167724609375,-0.0144318454563617,-0.2222633160421624,0.0124303694408386,0.0869195684790611,0.0039562932215631,0.0399679206311702
1772650025668140000,1.06714013671875,0.0693617055177688,-0.2224423258708789,-0.0064893802856095,0.0925237908959388,-0.0040024677291512,0.0342791564762592
1772650025678112800,1.07711279296875,0.179172910323739,-0.2496616471100598,0.011029982857313,0.0970152094960212,-0.0159467458724975,0.0199106056243181
1772650025688084700,1.087084716796875,0.2488409053117036,-0.2562105755631811,0.0420005098561756,0.1050219237804412,-0.035757265985012,-0.0019245371222496
1772650025698056700,1.097056640625,0.2503776133596897,-0.2550369104076176,0.0430960134753026,0.1118263006210327,-0.0485169999301433,-0.0196987409144639
1772650025708029700,1.10702978515625,0.1302536888539791,-0.2960469479217193,0.0212217795911245,0.1106691807508468,-0.0353631973266601,-0.0177795402705669
1772650025718002000,1.117001953125,-0.0833382084220647,-0.287997003788501,-0.0523744399575516,0.1057338118553161,-0.0088210683315992,0.001570455962792
1772650025727973600,1.1269736328125,-0.1717828000724315,-0.2486509174312464,-0.0967620093470439,0.1021589636802673,0.0017159669660031,0.0244457181543111
1772650025737945900,1.13694580078125,-0.1713186896920204,-0.2510170437743887,-0.0172060959426686,0.1087867766618728,0.008041507564485,0.0425211265683174
1772650025747918800,1.1469189453125,-0.0988631098121404,-0.23139290863825,0.1675272797861136,0.1212242096662521,0.0110254362225532,0.0526887848973274
1772650025757890800,1.156890869140625,-0.0041273090630769,-0.2074186337349005,0.2384382971051148,0.1378271579742431,0.0011986372992396,0.0578281506896019
1772650025767862800,1.16686279296875,0.0587198999941349,-0.1541744069391861,0.2469410630397498,0.1480072289705276,0.0035341344773769,0.0588846132159233
1772650025777835800,1.176835693359375,0.0814560479372739,-0.0834943670981563,0.2263243184033781,0.1562377214431762,-0.0047187358140945,0.0617999732494354
1772650025787807700,1.186807861328125,0.105814828646183,-0.0381727225957903,0.2043271705255843,0.1640447825193405,-0.0112914172932505,0.0668360143899917
1772650025797779700,1.19677978515625,0.1226736089885234,-0.0649967700402252,0.1259284825986251,0.1677385866641998,-0.0099694244563579,0.0723458305001258
1772650025807753000,1.2067529296875,0.1143997016400098,-0.0936071346458513,-0.0294087941074743,0.1533785015344619,3.7048012018e-06,0.0796665698289871
1772650025817724700,1.216724609375,0.1224666882395744,-0.1543955754091963,-0.1554935084474273,0.1329318135976791,0.0123407980427145,0.0698946341872215
1772650025827697000,1.22669677734375,0.2568494397222995,-0.2048200868753716,-0.162530202151183,0.1169310510158538,0.0154743427410721,0.0410963259637355
1772650025837670000,1.236669921875,0.3888888429492712,-0.1887012564464472,-0.1171297841910272,0.1008476912975311,0.0366992056369781,0.0008359888452105
1772650025847641600,1.2466416015625,0.4735603458017111,-0.1165008934366516,-0.102969832744915,0.0872361958026886,0.0489267781376838,-0.0444906316697597
1772650025857613800,1.25661376953125,0.4940758950859308,-0.1087666367896366,-0.0911419044429436,0.0709155425429344,0.0549018457531929,-0.0844159424304962
1772650025867585800,1.266585693359375,0.4784124620079994,-0.1207178444114047,-0.0476936982627958,0.0639777481555938,0.0730992257595062,-0.109000913798809
1772650025877558800,1.276558837890625,0.3233165928423404,-0.0907977763135451,0.0271926706942729,0.0669290572404861,0.0864142328500747,-0.1160985007882118
1772650025887530800,1.28653076171875,0.1867752020210027,-0.0792436599842738,0.116904432736244,0.0773167014122009,0.0891760513186454,-0.1123617589473724
1772650025897503000,1.2965029296875,0.0397322909295558,-0.126743927167356,0.1784289966212585,0.082027830183506,0.0835264176130294,-0.0940581187605857
1772650025907475700,1.306475830078125,-0.2102799962490797,-0.2408479337964206,0.0792600905292667,0.0796611830592155,0.0835556536912918,-0.0601666457951068
1772650025917447700,1.31644775390625,-0.4140478341251611,-0.2914866725351661,0.0229957669937051,0.0692857727408409,0.0919504687190055,-0.0141698587685823
1772650025927420000,1.326419921875,-0.4997399121969938,-0.31004206419494,-0.0028652349716983,0.0537787564098835,0.1020022630691528,0.0231838058680295
1772650025937392600,1.336392578125,-0.5180746103107929,-0.343571810689941,-0.0136281278580427,0.0380623750388622,0.1183106675744056,0.0564661286771297
1772650025947364900,1.34636474609375,-0.4599316334217787,-0.3110153662065044,0.01566885817172,0.0296372771263122,0.1325139105319976,0.0871099382638931
1772650025957336800,1.3563369140625,-0.2741524567008018,-0.2598379357474856,0.1018826585627161,0.0279986336827278,0.1377451568841934,0.0859919488430023
1772650025967308800,1.366308837890625,0.0191828393757343,-0.1965779811709188,0.1508338552064728,0.034839242696762,0.1191936433315277,0.0617965646088123
1772650025977281800,1.37628173828125,0.2146148105829954,-0.1381513650349341,0.1024486766813322,0.0342032797634601,0.1053332239389419,0.0341644026339054
1772650025987254000,1.38625390625,0.3027320699751377,-0.1237817437603604,0.012900105844438,0.0368007682263851,0.0965156704187393,0.0087209846824407
1772650025997225700,1.396225830078125,0.347739670959115,-0.1016139246239326,-0.0306578534536529,0.0312549993395805,0.0893882513046264,-0.0221927221864461
1772650026007198700,1.40619873046875,0.3566770106524229,-0.0782503015653695,-0.1118919840022455,0.0177599526941776,0.0881287753582,-0.0433275364339351
1772650026017171000,1.4161708984375,0.2862976525247097,-0.1125024897165596,-0.1971739012374542,0.006683331914246,0.0841896906495094,-0.0557586401700973
1772650026027142700,1.426142578125,0.2407446926176548,-0.1389130244566593,-0.2223451125741004,-0.0036840995308011,0.0744898468255996,-0.0657830089330673
1772650026037116000,1.436115966796875,0.2416998013854026,-0.1244594420925248,-0.1898821185277774,-0.0089574251323938,0.0455340966582298,-0.0756731927394867
1772650026047087900,1.446087890625,0.116333300051093,-0.1326998398970812,-0.124961363732675,-0.0195743702352046,0.0321560464799404,-0.0639875382184982
1772650026057059800,1.456059814453125,-0.1745411588698625,-0.1382471900922246,-0.1013218463421799,-0.0254418477416038,0.0336793735623359,-0.0261996816843748
1772650026067031800,1.46603173828125,-0.3412058852761984,-0.102394517074991,-0.0820069141525309,-0.0272756405174732,0.0457164756953716,0.0149624282494187
1772650026077004800,1.4760048828125,-0.2407575520992279,-0.1334682030542288,-0.0553730189853347,-0.0393184572458267,0.0552029199898242,0.0274427980184555
1772650026086976800,1.485976806640625,0.0045399815171957,-0.1775198824197053,-0.0073616239423397,-0.0409234426915645,0.0536499768495559,0.0101778730750083
1772650026096948700,1.49594873046875,0.2315694525152444,-0.1730793792216107,0.1284972827738616,-0.0308692101389169,0.035451266914606,-0.0292872432619333
1772650026106922000,1.505921875,0.3491933768987655,-0.1674247509934008,0.3045581894237548,0.0005833157338202,0.0071052210405468,-0.0641132965683937
1772650026116893700,1.515893798828125,0.2562538119167089,-0.1654868782659992,0.3827021171383559,0.0221181698143482,-0.0093254167586565,-0.074307344853878
1772650026126866000,1.525865966796875,-0.002193126130104,-0.1650380385199561,0.2807932098895311,0.0363348163664341,-0.0101522393524646,-0.062423150986433
1772650026136839000,1.5358388671875,-0.2028776110380888,-0.1937873458053916,0.213319199548196,0.0479928031563758,-0.0069196945987641,-0.0335289165377616
1772650026146811000,1.545810791015625,-0.2786024218469858,-0.2180120518058538,0.1173244208471383,0.0430467687547206,-0.001628601225093,-0.0042647393420338
1772650026156782800,1.555782958984375,-0.2774059055387973,-0.2602119566916488,0.0081732325861696,0.0340356975793838,-0.0087805204093456,0.0206480678170919
1772650026166754800,1.5657548828125,-0.2570551914274692,-0.2282237040176056,0.0428672325209947,0.0301839523017406,-0.0211073029786348,0.0445084236562252
1772650026176727800,1.575727783203125,-0.2126139921545982,-0.1780321975897066,0.1841887839906849,0.044959969818592,-0.025118289515376,0.0594239868223667
1772650026186699800,1.58569970703125,-0.1107213053882121,-0.1346765376643743,0.2847229870865121,0.0624849833548069,-0.0394766964018344,0.0664048939943313
1772650026196671700,1.595671630859375,-0.034131402182579,-0.1291161361914128,0.2226824182370677,0.0802045911550521,-0.051089409738779,0.0665660127997398
1772650026206644700,1.605644775390625,0.0458913980811834,-0.1732103851901367,0.0810362150900065,0.0802901610732078,-0.0473649501800537,0.0657752826809883
1772650026216617000,1.615616943359375,0.1286076752126216,-0.2482760562368668,-0.0574759552144911,0.064064584672451,-0.0390497632324695,0.0551591254770755
1772650026226588700,1.625588623046875,0.2419984920710325,-0.2568193916439079,-0.1218430125164333,0.0511715300381183,-0.0402461439371109,0.038662064820528
1772650026236561700,1.635561767578125,0.273385563981533,-0.1901327322879806,-0.0046579818736761,0.0404919870197773,-0.0339807905256748,0.0203738696873188
1772650026246534000,1.645533935546875,0.2283124965459108,-0.1444147728112526,0.0544185130057856,0.0282508842647075,-0.0289479307830333,0.0158105958253145
1772650026256506000,1.655506103515625,0.1275841773837804,-0.0935047154509928,0.0449717624856159,0.0160890258848667,-0.0130437985062599,0.0127828465774655
1772650026266478300,1.665478271484375,0.127874100241065,-0.0455777975207893,0.0833653247578535,0.0040389285422861,-0.0050877062603831,0.0072866892442107
1772650026276451300,1.675451416015625,0.1329606097251176,0.0056023614681442,0.0871686534304171,-0.013254839926958,0.0036032539792358,0.0005797846242785
1772650026286423300,1.68542333984375,0.0996077906996011,0.0310016893221065,0.1117825048789381,-0.0272116251289844,0.0261901244521141,-0.0085726454854011
1772650026296395300,1.695395263671875,0.1301613343954086,0.0246129381330683,0.1091993017190136,-0.0325456708669662,0.0255288612097501,-0.0277316905558109
1772650026306368300,1.7053681640625,0.1650485233813524,-0.0149141216811258,0.0884084152252878,-0.0385399311780929,0.0148011967539787,-0.0399000607430934
1772650026316340200,1.71534033203125,0.1146311723083257,-0.079237330708187,0.1413408726580906,-0.0360352285206317,0.0070580560714006,-0.048350803554058
1772650026326312200,1.725312255859375,0.0050993689656257,-0.119563139684638,0.0664168751043733,-0.0391338877379894,-0.0025455211289227,-0.042127788066864
1772650026336285400,1.735285400390625,-0.1267354515999555,-0.1960045834634453,-0.0802083494311198,-0.0486224628984928,-0.000314590986818,-0.0279275476932525
1772650026346257200,1.745257080078125,-0.2611106042981148,-0.2461387154146097,-0.1384558461405337,-0.0541938096284866,-0.0002645989879965,0.0038053805474191
1772650026356229400,1.7552294921875,-0.283706466987729,-0.2799798659463413,-0.1219891064562369,-0.0627119317650795,-0.0039882306009531,0.0273362714797258
1772650026366201000,1.765201171875,-0.1765694498270749,-0.2935748587197624,-0.0751055737988557,-0.0650175809860229,-0.0081227673217654,0.0392177477478981
1772650026376174300,1.77517431640625,-0.0778156456083059,-0.2470098539596423,-0.0277420390721876,-0.0703795924782753,-0.008604266680777,0.0386648774147033
1772650026386146300,1.785146240234375,0.0463730441182851,-0.1892369342257268,0.0502917153993621,-0.067469410598278,-0.0123753985390067,0.0306484792381525
1772650026396118300,1.7951181640625,0.1112999820590019,-0.1227818094701971,0.1604734340181574,-0.0577424839138984,-0.016961894929409,0.0208738800138235
1772650026406091300,1.80509130859375,0.1635048010706901,-0.0742750001596519,0.2552871588416397,-0.0459367930889129,-0.0215251669287681,0.0083643961697816
1772650026416063200,1.815063232421875,0.1573468629628419,-0.0825167085718829,0.2951718638539314,-0.0279636532068252,-0.0249505247920751,0.004074843134731
1772650026426035200,1.82503515625,0.1275426763296127,-0.0699124849680578,0.305038629884459,-0.0128180952742695,-0.0256473831832408,0.0025066139642149
1772650026436008200,1.83500830078125,0.118239425933361,-0.1105352904299739,0.2628066310936585,-0.0030810455791652,-0.0187372807413339,0.0007667707395739
1772650026445980400,1.84498046875,0.1254068333446979,-0.1467081627117469,0.1904298520710319,0.001374295912683,-0.0083047095686197,-0.0017493998166173
1772650026455952100,1.8549521484375,0.1701438006937503,-0.2074621623493731,0.1046125493174884,-0.0002481015399098,-0.0017682467587292,-0.0149496244266629
1772650026465925000,1.864925048828125,0.222821497914195,-0.2752008149762637,0.0929725448030512,0.0039348299615085,0.0067811971530318,-0.0327730253338813
1772650026475897300,1.8748974609375,0.2134060193151235,-0.286099883196596,0.1171048415460158,0.0072097196243703,0.0059201978147029,-0.0471634157001972
1772650026485869000,1.884869140625,0.1242266836494207,-0.280673967424035,0.1303764932497404,0.0153478570282459,-0.0004836060106754,-0.0496442802250385
1772650026495841300,1.89484130859375,-0.0363332961410284,-0.2764886445634067,0.1632405241113156,0.0240249689668416,0.0008370555005967,-0.0352437682449817
1772650026505814300,1.904814208984375,-0.1693622949272394,-0.2531529232919216,0.1856254291976802,0.0308470614254474,-0.0009068781509995,-0.0186954326927661
1772650026515786200,1.9147861328125,-0.2251782901734113,-0.2608763388845138,0.1985969928431324,0.0436022728681564,-0.0044214515946805,0.0030719130299985
1772650026525758200,1.92475830078125,-0.2174012264311313,-0.2514870176400058,0.1857336936114355,0.0538240484893322,-0.005504033062607,0.0253315027803182
1772650026535731200,1.934731201171875,-0.2045323925077915,-0.2142419038836844,0.1131738861721008,0.0545465648174285,0.002649500966072,0.0453403629362583
1772650026545703200,1.944703125,-0.1757996344983577,-0.2272938758215867,0.0520575742944143,0.0604454055428504,-0.0010969112627208,0.0640288069844245
1772650026555675400,1.95467529296875,-0.0944043768376111,-0.2546997143425047,-0.0004273859660606,0.0591881275177001,-0.0078815799206495,0.0791321247816085
1772650026565648400,1.9646484375,0.0165893157511949,-0.2962417946403846,0.0360946102806366,0.0731103494763374,-0.0496784895658493,0.0754380226135253
1772650026575620000,1.9746201171875,0.1609054322272539,-0.1994010575013235,0.1746772428723052,0.0703156292438507,-0.0697187706828117,0.0606249868869781
1772650026585592300,1.98459228515625,0.1088853221327066,-0.1585317070995457,0.1187940458751283,0.0663483068346977,-0.0639496445655822,0.0596218071877956
1772650026595564300,1.994564208984375,-0.0668757339209318,-0.0850453411335125,0.0312459281404502,0.0649490803480148,-0.0424669869244098,0.078742504119873
1772650026605537300,2.004537353515625,-0.1696025334239005,-0.0459293326385086,-0.0390967603718396,0.0398362688720226,-0.0201129466295242,0.1006067916750907
1772650026615509200,2.01450927734375,-0.1225385844320058,0.0114725389930419,-0.0456677727926056,0.0228461027145385,-0.0077289813198149,0.1054084673523902
1772650026625481500,2.0244814453125,-0.0048392567247152,0.065658910043654,0.0351415108068846,0.0178846325725317,-0.0037776492536067,0.0942671373486518
1772650026635454200,2.0344541015625,0.1402455060362815,0.0788696664395742,0.1481152621638495,0.0237241461873054,-0.0046791289933025,0.0755139514803886
1772650026645426200,2.04442626953125,0.2788905911386012,0.0957172678007744,0.2000861171560362,0.0376088134944438,-0.023541159927845,0.0500136241316795
1772650026655398400,2.0543984375,0.3144347827285528,0.0191388723698444,0.1364256372208707,0.0454004257917404,-0.0349597297608852,0.0304593611508607
1772650026665371100,2.06437109375,0.2815951739221811,-0.0501481513433624,0.0583360335093922,0.0441483072936534,-0.0367262549698352,0.0093666743487119
1772650026675343400,2.07434326171875,0.2616483644366264,-0.1962625402798876,-0.0847258816544897,0.0233942940831184,-0.0222802050411701,-0.0048966836184263
1772650026685315300,2.0843154296875,0.2559510295778512,-0.3059062430318445,-0.2246927716787904,-0.0040712216868996,-0.0095758158713579,-0.0244280323386192
1772650026695288000,2.0942880859375,0.2345662962436676,-0.3709028121426701,-0.2533182699214666,-0.0309776701033115,-0.0129255391657352,-0.0412115417420864
1772650026705260300,2.10426025390625,0.1241471886724233,-0.3636966801561415,-0.2096859393460676,-0.050569724291563,-0.0160095952451229,-0.0438622497022151
1772650026715232300,2.114232177734375,-0.041634325158596,-0.3126098323237151,-0.0834805943011306,-0.0607520528137683,-0.0008993525989353,-0.0363119207322597
1772650026725204200,2.124204345703125,-0.132141110035777,-0.213526467357017,0.0921988204841967,-0.052971962839365,0.0001963200047612,-0.0204242914915084
1772650026735177200,2.13417724609375,-0.2065145062357187,-0.1292813001578673,0.3081930753273889,-0.0284407865256071,-0.0096475221216678,-0.0002612335374578
1772650026745149400,2.1441494140625,-0.2741840208828449,-0.0916810162883251,0.3900729381673037,-0.0070553631521761,-0.0163548439741134,0.0306799691170454
1772650026755121200,2.15412109375,-0.2657154677450656,-0.0811023391287773,0.316635909502022,0.0074676531367003,-0.0211876817047595,0.0568822771310806
1772650026765094400,2.164094482421875,-0.1472913328945636,-0.1262728755895048,0.2024532298798672,0.0121115334331989,-0.0272785015404224,0.0668089613318443
1772650026775066400,2.17406640625,-0.0151093063265085,-0.1719187379444018,0.0931895394214429,0.0134702771902084,-0.0260358713567256,0.0633202195167541
1772650026785038300,2.184038330078125,0.1048152962148189,-0.1988755175235681,0.0298200783221051,0.0040559154003858,-0.0170712769031524,0.0460439138114452
1772650026795011300,2.19401123046875,0.2385422141373157,-0.1745373229449614,-0.0399941567361354,-0.0013239362742751,-0.0066830832511186,0.0241252984851598
1772650026804983300,2.2039833984375,0.2627636322021484,-0.158288162400946,-0.111538795783557,-0.0177924036979675,-0.0035201213322579,0.0055793453939259
1772650026814955300,2.213955322265625,0.2522913380265236,-0.1679621092731133,-0.1158444205556064,-0.0241783987730741,-0.0007839899044483,-0.0180135983973741
1772650026824928300,2.22392822265625,0.2178933938622474,-0.1090121907822322,-0.0089673147064633,-0.0202252268791198,-0.0060545355081558,-0.0282110460102558
1772650026834900500,2.233900390625,0.0751508103132247,-0.0212814738891087,0.0879285136207006,-0.0081496555358171,-0.0090857446193695,-0.0170934125781059
1772650026844872200,2.2438720703125,-0.1098135428935289,-0.0288313595457002,0.0607563559914939,-0.00863326061517,-0.0106233041733503,0.0115858390927314
1772650026854844400,2.253844482421875,-0.2719096462100744,-0.0985514865797013,-0.0230521733560599,-0.0111179901286959,-0.0053776763379573,0.0474695339798927
1772650026864817400,2.2638173828125,-0.2719786197930574,-0.1263925838458817,-0.0191114729062654,-0.0167885329574346,-0.0027746073901653,0.0747222080826759
1772650026874789000,2.2737890625,-0.112252752739191,-0.1273197177613154,0.0174953794791363,-0.0209979247301816,-0.0082452725619077,0.0807745084166526
1772650026884761300,2.28376123046875,0.0478980617284774,-0.1087127877105493,0.0180536892153322,-0.0176843758672475,-0.0227586328983306,0.0724615156650543
1772650026894734300,2.293734375,0.1367979959309101,-0.1217272680491209,0.060291642822884,-0.010304756462574,-0.0349354036152362,0.0628850534558296
1772650026904706300,2.303706298828125,0.0974596727550029,-0.1354025960497558,0.0552324414708651,-0.0101697780191898,-0.0306363310664892,0.0615195930004119
1772650026914678300,2.31367822265625,0.0880623143345117,-0.1179114543543197,0.0078074954131618,-0.0200232081115245,-0.0140184741467237,0.0592505782842636
1772650026924651300,2.3236513671875,0.1273188044458627,-0.1311636341725941,-0.0639865883506834,-0.0293889567255973,-0.0096113309264183,0.0517916195094585
1772650026934623200,2.333623291015625,0.1965221045315265,-0.1300948176309932,-0.0607474420326761,-0.0300917625427246,-0.0136998165398836,0.0357814952731132
1772650026944595500,2.343595458984375,0.2735240956693887,-0.1735855751780793,-0.003746456519328,-0.0328527651727199,-0.0167344342917203,0.0102568799629807
1772650026954567200,2.353567138671875,0.2778337755620479,-0.2199945308599621,0.0558643826988525,-0.0382949337363243,-0.0143003053963184,-0.0113235125318169
1772650026964540200,2.3635400390625,0.2260667634457349,-0.2184285784511827,0.0555070571611635,-0.0453025214374065,-0.0095532946288585,-0.0245516672730445
1772650026974512400,2.373512451171875,0.0962017816483974,-0.1844799306906759,0.0582017761378549,-0.0532051883637905,-0.0024578345473855,-0.0201627779752016
1772650026984484000,2.383484130859375,-0.0767512312471866,-0.158358542489726,0.0925686310441233,-0.0513106733560562,0.012520438991487,-0.0031697044614702
1772650026994457300,2.393457275390625,-0.0901870514035224,-0.1092261897259391,0.1199064640964381,-0.0498411394655704,0.0238037183880805,0.0072211511433124
1772650027004429300,2.40342919921875,0.0036655367702245,-0.0857556813599541,0.1564298942483961,-0.0423848330974578,0.023613229393959,0.0061745615676045
1772650027014401300,2.4134013671875,0.1615665264844894,-0.1185066620348021,0.2345797037145122,-0.0306520089507102,0.0131294289603829,-0.0075665502808988
1772650027024374300,2.423374267578125,0.2422609423995018,-0.1046843998441472,0.2399402808995917,-0.022585954517126,0.0045390403829514,-0.0275187045335769
1772650027034346200,2.43334619140625,0.2412684242308139,-0.1274078527024947,0.1841940629540011,-0.0159592106938362,0.0022186278365552,-0.0479326322674751
1772650027044318200,2.443318115234375,0.1572451561540365,-0.1333065462191123,0.1341469334328547,-0.0124606415629386,-0.000406599137932,-0.0569116845726966
1772650027054291200,2.453291259765625,0.0482253939867019,-0.1568262183559127,0.0321782953534275,-0.0136867612600326,-0.0070447945035994,-0.053977146744728
1772650027064263400,2.463263427734375,-0.0967342810899019,-0.1859661506604403,-0.0910679806902073,-0.0210582520812749,-0.008347176015377,-0.0321829169988632
1772650027074235100,2.473235107421875,-0.1701969921857118,-0.2034115717843174,-0.0917417700322344,-0.0262604709714651,-0.015303885564208,-0.0143037838861346
1772650027084207400,2.483207275390625,-0.151509242850542,-0.1592115973887965,-0.0231060224351473,-0.0260525029152631,-0.0226101502776145,-0.0087206698954105
1772650027094180400,2.493180419921875,-0.1072615203231573,-0.1202636435036547,0.0283390825167298,-0.0215618815273046,-0.0335536152124404,0.002361808437854
1772650027104152300,2.50315234375,-0.1595674616217613,-0.1340289970084559,0.0186549430441111,-0.0174164623022079,-0.036655806005001,0.0255408734083175
1772650027114124300,2.513124267578125,-0.1891460228055715,-0.1112048419883009,0.0242733126488514,-0.0197166334837675,-0.0273896027356386,0.0401720143854618
1772650027124097300,2.52309716796875,-0.1353822839140891,-0.1206204575846903,-0.0298870791437104,-0.0247453264892101,-0.0210193432867527,0.0545237436890602
1772650027134069200,2.5330693359375,0.0386877503126859,-0.1157221915485803,-0.012560462093912,-0.0281275436282157,-0.0169524289667606,0.0521849542856216
1772650027144041200,2.543041259765625,0.2100783361971378,-0.1487732054827734,0.0513441470617428,-0.0286340322345495,-0.0188549235463142,0.0302573405206203
1772650027154014500,2.553014404296875,0.3119114017307758,-0.1492847078020218,0.1180797601259313,-0.0238861478865146,-0.0238054729998111,0.0069722575135529
1772650027163986200,2.562986083984375,0.3432996426850557,-0.1615229065384715,0.1558532816705294,-0.0212404113262891,-0.0240209437906742,-0.0248799957334995
1772650027173958400,2.57295849609375,0.3371633318871259,-0.176490429774113,0.145217905887682,-0.0204116366803646,-0.0218107867985963,-0.043510403484106
1772650027183931400,2.582931396484375,0.228259889575839,-0.1244832887589931,0.1169541353631764,-0.0180858839303255,-0.0088855922222137,-0.0474298112094402
1772650027193903000,2.592903076171875,0.0251034615963697,-0.0952184605663176,0.0869112263369373,-0.0205951146781444,0.0123792169615626,-0.0317887999117374
1772650027203875300,2.602875244140625,-0.078680738005042,-0.1296636322726495,0.0645303398385643,-0.0255077797919511,0.0216198060661554,-0.0117746200412511
1772650027213847000,2.612846923828125,-0.0055915363967418,-0.172499314311333,0.0493905470422469,-0.0328447856009006,0.0334865823388099,-0.0110326632857322
1772650027223820300,2.6228203125,0.1052174472749233,-0.2051518761130049,0.0062952459529973,-0.0407834313809871,0.02617765404284,-0.0196487233042716
1772650027233792300,2.632792236328125,0.1388145964503288,-0.1933787650045007,0.0250794596662744,-0.0434734895825386,0.021795954555273,-0.0326790399849414
1772650027243764200,2.64276416015625,0.1412923847407102,-0.1570527023218572,0.0718426538796164,-0.0441344268620014,0.0157166346907615,-0.0415334925055503
1772650027253737200,2.6527373046875,0.0327197818189859,-0.1468370132558047,0.0693657423720695,-0.0309376660734415,0.0079210307449102,-0.030282437801361
1772650027263709200,2.662709228515625,-0.1291413436979055,-0.1817368790602311,0.1088978528207167,-0.0233211144804954,0.0138893024995923,-0.0137789389118552
1772650027273681400,2.672681396484375,-0.1549924087911844,-0.2150795054852962,0.0732754814280196,-0.0185548551380634,0.0143463024869561,0.0004316882696002
1772650027283654100,2.682654052734375,-0.1123287405848503,-0.2120315891567617,0.0218657765830866,-0.0195928532630205,0.0139952432364225,0.0116122514009475
1772650027293626400,2.69262646484375,-0.0358481429725885,-0.2272952640610747,-0.0052280003139749,-0.0215635932981967,0.0208989568054676,0.0146328089758753
1772650027303598300,2.702598388671875,0.0762502959877252,-0.2246221541279926,0.0037919396288692,-0.0239638313651084,0.0174511801451444,0.0028674881905317
1772650027313571300,2.7125712890625,0.1783253535836935,-0.1877315711640752,0.0192790297592058,-0.0238437205553054,0.0064334156922996,-0.0116720395162701
1772650027323543300,2.722543212890625,0.1609890188574791,-0.1742338830189779,0.0582402632510289,-0.0254071559756994,-0.0013122111558914,-0.0212246365845203
1772650027333515500,2.732515625,0.068525839215517,-0.1412758263315539,0.1036862556522712,-0.022085927426815,-0.0066920630633831,-0.0167896747589111
1772650027343487200,2.7424873046875,-0.0293330619901418,-0.1194145615268033,0.1218601371811702,-0.0149186830967664,-0.0056041474454104,-0.0068069458939135
1772650027353460200,2.752460205078125,-0.0835106423795223,-0.117460331319645,0.1343266191150061,-0.0084482664242386,-0.0077852765098214,0.0013266145251691
1772650027363432400,2.762432373046875,-0.0817360339224338,-0.1534787162926048,0.1155928934799507,-0.0054196063429117,-0.005624100100249,0.0133116841316223
1772650027373404200,2.772404052734375,-0.0518342321336269,-0.1743414715792983,0.0657741476208902,-0.003989222459495,-0.0021401529666036,0.0201943572610616
1772650027383377400,2.78237744140625,0.0053103813678026,-0.2063580735649913,0.00840818298636,-0.0102073103189468,0.0084095224738121,0.0177695639431476
1772650027393349400,2.792349365234375,0.0481008908241987,-0.2571758769313804,-0.0456557444280944,-0.0171419158577919,0.0121552580967545,0.0162994991987943
1772650027403321300,2.8023212890625,0.0840191764235496,-0.2428556203570216,-0.0314190379513427,-0.0189621299505233,0.0183483175933361,0.0131942769512534
1772650027413294300,2.81229443359375,0.1275818392962217,-0.2442863472798839,0.0286073415314778,-0.0143721718341112,0.0142931221053004,0.0074106901884078
1772650027423266300,2.822266357421875,0.1621586471587419,-0.2419135537339374,0.0882531059325672,-0.0072527434676885,-0.0016930354759097,-0.0055328058078885
1772650027433238300,2.83223828125,0.1132271507292985,-0.2368399402640759,0.1479767944080755,0.0046539832837879,-0.0030927928164601,-0.0065629165619611
1772650027443211300,2.842211181640625,0.0256856453984975,-0.2226246967004612,0.1562498249737546,0.012216068804264,-0.0068955617025494,-0.0042487210594117
1772650027453183500,2.85218359375,-0.0433136565476655,-0.2263403196901083,0.1107655281224287,0.0127521622925996,-0.004564763046801,0.0114548746496438
1772650027463155200,2.8621552734375,-0.119052495881915,-0.2154120801742188,0.1146861904311925,0.0104977153241634,0.008646085858345,0.0286101978272199
1772650027473127400,2.87212744140625,-0.1323936234921217,-0.1504230459158774,0.10392673161095,0.0120476745069026,0.0165655277669429,0.0369885042309761
1772650027483100400,2.882100341796875,-0.0053705871224403,-0.1478005336588714,0.0976221881066448,0.0101691503077745,0.0159289855509996,0.0317918695509433
1772650027493072400,2.892072265625,0.1177677167683839,-0.1501450874910224,0.1018651046397164,0.0133343171328306,0.0117124021053314,0.0242303553968668
1772650027503044400,2.90204443359375,0.1429009889811277,-0.1227290289701893,0.0735535311844199,0.0137746091932058,0.0118503049015998,0.0107190664857625
1772650027513017300,2.912017333984375,0.1800192980200052,-0.1202062416274566,-0.0118675661926157,0.0102339349687099,0.0108521543443202,0.0048811510205268
1772650027522989300,2.9219892578125,0.1391764155000448,-0.1686396797411143,-0.0614224369511008,0.0055859205313026,0.0030416348017752,0.0021130614914
1772650027532961300,2.931961181640625,0.0160205759525299,-0.1920714817982166,-0.0568216286247596,-0.0055138687603175,0.0023132599890232,0.0086583122611045
1772650027542934500,2.9419345703125,-0.0980143840283155,-0.1918587158303707,-0.0756252046256326,-0.0206045322120189,0.0168713349848985,0.0274194665253162
1772650027552906200,2.95190625,-0.0853098007559776,-0.123233507893607,-0.0646126843597739,-0.0242727696895599,0.0186117105185985,0.0354523621499538
1772650027562878500,2.96187841796875,0.046641924187541,-0.0971654664482455,0.025947109346278,-0.0156439617276191,0.0052461582235991,0.0330687500536441
1772650027572851500,2.9718515625,0.1471662452101707,-0.0775256953515578,0.0921626805917359,-0.0076478216797113,-0.0028224212583154,0.0150804305449128
1772650027582823200,2.9818232421875,0.2251110701560974,-0.0924594350486062,0.0946988662721589,-0.0066405571997165,0.0009021526202559,0.0019726422615349
1772650027592795400,2.99179541015625,0.2635755331069231,-0.1333810544937383,0.0032738705715164,-0.0110113369300961,-0.0054300450719892,-0.0162148829549551
1772650027602767000,3.00176708984375,0.2034498579680919,-0.1928920774661004,-0.032732294240687,-0.015298506245017,-0.0012020852882415,-0.0322460159659385
1772650027612740400,3.011740234375,0.0932207200109958,-0.1962054763304069,-0.0124992699585855,-0.0247926749289035,0.0105341989547014,-0.0289865732192993
1772650027622712300,3.02171240234375,-0.025837621089816,-0.1909016343012452,-0.0126136901184916,-0.0288494694977998,0.0121185146272182,-0.0219150818884372
1772650027632684300,3.031684326171875,-0.0994189901292324,-0.1869806979978457,0.0852421423472464,-0.0207955371588468,0.0127131976187229,-0.0116736302152276
1772650027642657300,3.0416572265625,-0.1083762035667896,-0.1667667254760861,0.1848581163533031,-0.0103127770125865,0.0056852647103369,-0.0022098845802247
1772650027652629200,3.051629150390625,-0.1164554651260375,-0.1289406882929615,0.210186180485785,0.0018935552798211,0.0011190087534487,0.0111056538298726
1772650027662601200,3.061601318359375,-0.1033224273085594,-0.1460611426456365,0.1667327136086299,0.0093277320265769,-0.0078677861019968,0.026476714760065
1772650027672574200,3.07157421875,-0.0885667567253112,-0.184866372724995,0.1190887179727666,0.0099128279834985,-0.008623325265944,0.0354017689824104
1772650027682546400,3.08154638671875,-0.0368593658417463,-0.2053216066567227,0.0802450829786248,0.006865372415632,-0.002829351928085,0.0385339111089706
1772650027692518100,3.09151806640625,0.0346136327415704,-0.2064490032514557,0.0183406711968593,0.0029105781577527,0.0071878619492053,0.0362209565937519
1772650027702491400,3.101491455078125,0.158922733977437,-0.1988572329482063,-0.0087760116517543,-0.0008539138361811,0.0056200386025011,0.0275022517889738
1772650027712463400,3.11146337890625,0.2703904738187789,-0.1862225913732312,-0.0138919481596909,-0.0019982738886028,0.0057452074252069,0.0011651876848191
1772650027722435300,3.121435302734375,0.3211415868908167,-0.1491681048181839,-0.0008073891264386,-0.0005163075402379,0.0070618470199406,-0.0205443296581506
1772650027732408300,3.131408203125,0.2985989156931639,-0.1527522651815787,0.0472984518675133,0.0010991655290126,0.0002396269701421,-0.0350713394582271
1772650027742380300,3.14138037109375,0.1425847626388073,-0.1227373766734264,0.09342214260092,0.0055406461469829,0.001924704760313,-0.0387981534004211
1772650027752352300,3.151352294921875,-0.041115854242444,-0.1542281464204192,0.112221900943201,-0.0016283167060464,0.008864102885127,-0.0254695639014244
1772650027762324200,3.16132421875,-0.182488903003931,-0.1643623312154784,0.0557402996614575,-0.0016095794271677,0.0118647888302803,-0.0034050792455673
1772650027772297500,3.17129736328125,-0.1866653119057416,-0.166879319005087,0.0704973767505027,-0.0049896636046469,0.0195165835320949,0.0133011965081095
1772650027782269200,3.181269287109375,-0.0669482146352529,-0.1734040811313316,0.1085625199191272,-0.0034938745666295,0.0158319231122732,0.0111603830009698
1772650027792241400,3.191241455078125,0.1518348215430975,-0.1911021983746439,0.1281582418115343,0.0014390987344086,0.0060381479561328,-0.0086167836561799
1772650027802214400,3.20121435546875,0.2649935832113027,-0.1954201346389949,0.0939145840266719,0.0052195121534168,-0.0015967248473316,-0.0279648937284946
1772650027812186400,3.211186279296875,0.1879769790261983,-0.2010039078543893,0.0641054106910713,0.002296426333487,0.0011394070461392,-0.039938997477293
1772650027822158300,3.221158447265625,0.0360042103171348,-0.1897492493957281,0.0474321338503155,-0.0009225499816238,0.0118244662880897,-0.0315377600491046
1772650027832131300,3.23113134765625,-0.1032446858972311,-0.1828897388897836,0.0372774816559627,-0.0059711043722927,0.0275291297584772,-0.0197255760431289
1772650027842103300,3.241103271484375,-0.0639729982167482,-0.162161788963899,0.0926151188006624,0.0022160513326525,0.0285468306392431,-0.0164122227579355
1772650027852075300,3.2510751953125,0.0384375749439001,-0.2017722436120733,0.1794776288913562,0.0176836904138326,0.0100527741014957,-0.024986270815134
1772650027862048500,3.261048583984375,0.0661550184309482,-0.231278525010962,0.1781162956765852,0.0257453192025423,-0.0036157832946628,-0.0208290144801139
1772650027872020200,3.271020263671875,-0.0707546211808919,-0.2570868834736757,0.1391695473678409,0.0229961387813091,-0.005181988235563,-0.0021818259265273
1772650027881992400,3.280992431640625,-0.165192900288105,-0.2387147576926276,0.1096506439493969,0.0228411722928285,-0.0007145425770431,0.0227310638874769
1772650027891964200,3.290964111328125,-0.2388584404796361,-0.2137697015283629,0.0986424436656292,0.0233943108469247,0.0160932000726461,0.0537496991455554
1772650027901937200,3.300937255859375,-0.189532976296544,-0.1611194037714973,0.0737126398694235,0.0267201494425535,0.0254025738686323,0.0701826959848404
1772650027911909400,3.310909423828125,0.0878355198413133,-0.133284937175503,0.0637561771282926,0.0278977993875741,0.0182969942688941,0.0541427433490753
1772650027921881000,3.320881103515625,0.3272182764559984,-0.1457205307807307,0.0674952083929907,0.0343045704066753,0.012109138071537,0.0256511829793453
1772650027931854300,3.330854248046875,0.4503723624378442,-0.1454304891924373,0.1096748194094281,0.0362777039408683,0.0004772497341036,-0.0140312490984797
1772650027941826300,3.340826416015625,0.3890577697753906,-0.1402916649992577,0.0833765859373845,0.0321224927902221,-0.000508933328092,-0.0364304333925247
1772650027951798300,3.35079833984375,0.1640612659096717,-0.1119970426787622,0.0574494142674375,0.0323688350617885,0.003426952753216,-0.036111120134592
1772650027961771300,3.360771240234375,-0.0435854592263698,-0.0959532502474263,0.0929705811748281,0.0259760208427906,0.0076690479181706,-0.0238242782652378
1772650027971743200,3.3707431640625,-0.1242062253832817,-0.0896288695314899,0.0654338828158564,0.0238385647535324,0.0136712808161973,-0.0072402418591082
1772650027981715200,3.380715087890625,-0.0894675049573183,-0.1091805970185436,0.0395064280181191,0.0177945662289857,0.0097841992974281,-0.0052191149443387
1772650027991688200,3.390688232421875,-0.0312467866569757,-0.1160643560497555,0.0353614919668063,0.0078852102160453,-0.0008266340009868,-0.0048393481411039
1772650028001660400,3.400660400390625,-0.0135831196725368,-0.1210594517901539,-0.0033508721973281,0.0001227408647537,-0.0016274258960038,-0.0065043116919696
1772650028011632000,3.410632080078125,0.001076104798913,-0.11744750837069,-0.0438019880538806,-0.0075527555309236,-0.0106851030141115,0.0027853266801685
1772650028021605400,3.42060546875,-0.0218459211051464,-0.1200598371603991,-0.0546550708411727,-0.0171513631939888,-0.0078140180557966,0.0127012878656387
1772650028031577300,3.430577392578125,-0.0320434899926185,-0.1079299485034775,-0.0378676752346102,-0.0356779098510742,0.014023371040821,0.0213347226381301
1772650028041549300,3.44054931640625,0.0583422988533973,-0.0707713439868297,-0.0723057961456477,-0.0477468632161617,0.0257790274918079,0.0123201357200741
1772650028051521300,3.450521240234375,0.2641243991613388,-0.0563221272705588,-0.0113083705404307,-0.0457401722669601,0.0178609173744916,-0.0121993217617273
1772650028061494300,3.460494384765625,0.3822492588043212,-0.0652224502885714,0.0776423257348593,-0.0467077828943729,0.0163617953658103,-0.0445830561220645
1772650028071466200,3.47046630859375,0.4172217879861593,-0.0983053663315251,0.0703447252057492,-0.051433827728033,0.029098629951477,-0.0698796212673187
1772650028081438200,3.480438232421875,0.3159124540656804,-0.1398118364599067,0.0013660459225066,-0.0656192153692245,0.0351603738963604,-0.090028591454029
1772650028091411500,3.490411376953125,0.1906780546784401,-0.1821049451876431,0.0042117450766731,-0.0704682916402816,0.0365851633250713,-0.1009206548333168
1772650028101383200,3.500383056640625,0.0305681567430496,-0.1832703357052058,0.1216668887645471,-0.0606612525880336,0.0297386422753334,-0.0961027890443801
1772650028111355400,3.51035546875,-0.1348141286373138,-0.1566165393942967,0.2266298041559755,-0.0480682291090488,0.0196974612772464,-0.0708360448479652
1772650028121328400,3.520328369140625,-0.2893213842600584,-0.1579624741105362,0.2380663402538746,-0.0347689613699913,0.0105099380016326,-0.0316632762551307
1772650028131300000,3.530300048828125,-0.3413713049709796,-0.1619043436041101,0.2213783133685588,-0.0205095969140529,0.0104678589850664,0.0041644945740699
1772650028141272300,3.540272216796875,-0.2328817041575908,-0.2285543790103867,0.1242857386265881,-0.017840938642621,0.0131823169067502,0.0161581076681613
1772650028151245300,3.550245361328125,-0.0789075324982404,-0.3237265618827193,0.0324202143505215,-0.0168553031980991,0.0093817198649048,0.0120475199073553
1772650028161217300,3.56021728515625,0.0527811575949192,-0.3132732646685093,0.0185497291039675,-0.0257068090140819,0.0136526999995112,-0.0012141718761995
1772650028171189200,3.570189208984375,0.0762877053886652,-0.2881620946897194,0.1037752947757486,-0.0246391482651233,0.0030386713333427,-0.0084201525896787
1772650028181162200,3.580162353515625,0.0281178409814834,-0.2445669360532425,0.1700419477544724,-0.0130111873149871,0.0053719752468168,-0.0100006237626075
1772650028191134200,3.59013427734375,0.0040390462577342,-0.1839650034384801,0.2382122515305876,-0.000434142537415,-0.0024143087211996,-0.0122227650135755
1772650028201106400,3.6001064453125,-0.0383013813436031,-0.1429034184002317,0.2454192602999508,0.0179749969393014,-0.006670081987977,-0.0135155608877539
1772650028211078400,3.610078369140625,-0.0362064548909664,-0.0975608589740004,0.2284867206016555,0.0334905721247196,-0.0109519120305776,-0.0047247321344912
1772650028221051100,3.620051025390625,-0.0890402194559574,-0.1043027709822636,0.1453039128038566,0.0388543531298637,-0.0115871783345937,0.0071703498251736
1772650028231023400,3.6300234375,-0.0968435866832733,-0.1329513030406553,0.0627168150100391,0.0316017642617225,-0.0032975561916828,0.0208685845136642
1772650028240995300,3.639995361328125,-0.0599094020396471,-0.1703868522020056,0.0059750740879215,0.0226867236196994,-0.0052967020310461,0.025262102484703
1772650028250968300,3.64996826171875,0.0340296953737735,-0.1489546538637485,0.0253320370547007,0.02261907979846,-0.0148601131513714,0.0205477736890316
1772650028260939500,3.659939453125,0.0681067370206117,-0.100072659131838,0.0777568372263107,0.025332236662507,-0.0221491381525993,0.0180571936070919
1772650028270911700,3.669911865234375,0.0664209758907556,-0.0817830331356264,0.0440437791868112,0.0261618122458457,-0.0146446162834763,0.0197176747024059
1772650028280884700,3.679884765625,0.1054483334213495,-0.0869208709481172,0.0245106833349913,0.0250080600380897,-0.0109840538352727,0.0103659927845001
1772650028290856700,3.689856689453125,0.1524164208233356,-0.0968761372460052,0.0551886479949112,0.0269295312464237,-0.0138232484459877,0.0011240245075896
1772650028300828700,3.69982861328125,0.1335533149212598,-0.0979946929471567,0.0801743284305091,0.0270156078040599,-0.0102853626012802,-0.0078342938795685
1772650028310801700,3.7098017578125,0.1304138478517532,-0.1073412527621723,0.0590400809923652,0.0193121470510959,-0.0053209639154374,-0.0146732917055487
1772650028320773600,3.719773681640625,0.1452408301055431,-0.0789679848480504,0.034963523891475,0.0153158362954854,-0.0133981816470623,-0.0290232636034488
1772650028330745600,3.72974560546875,0.1343301445126533,-0.124790135351615,0.0678080828676,0.0122073944658041,-0.0177069101482629,-0.0350089855492115
1772650028340718800,3.73971875,0.0611661241024732,-0.1563688117109239,0.0500350554908625,0.0064695701003074,-0.0205285977572202,-0.0304635539650917
1772650028350690600,3.749690673828125,-0.083835636550188,-0.1289630827878601,0.0280059233059175,0.005354237742722,-0.0171916577965021,-0.0146012343466281
1772650028360662800,3.759662841796875,-0.1294938103973865,-0.140587570072757,0.0541716895047109,0.006988720037043,-0.0247170068323612,-0.0024323759134858
1772650028370635800,3.7696357421875,-0.0840454799085855,-0.1829455241976305,0.0158292180988937,0.0096697248518466,-0.0390069931745529,0.007694826927036
1772650028380607500,3.779607421875,-0.0300946940124034,-0.2024318217656575,0.0420953028670046,0.014690495096147,-0.0546060651540756,0.0111994380131363
1772650028390579700,3.789579833984375,-0.0399146617591381,-0.2502334191160276,-0.0045680842336732,0.0113045526668429,-0.0632943660020828,0.016913516446948
1772650028400551700,3.7995517578125,-0.1061678798675537,-0.2775922949563711,-0.1156050679749343,-0.0029378372710198,-0.0640578418970108,0.0337263271212577
1772650028410524700,3.809524658203125,-0.1193126081228256,-0.2448739013768732,-0.16850092885755,-0.0261100009083747,-0.0519183576107025,0.0461449138820171
1772650028420496600,3.81949658203125,-0.1080588081806898,-0.21823252615612,-0.1813485555960796,-0.052052903920412,-0.0335338376462459,0.0575127303600311
1772650028430468900,3.82946875,-0.0378401935726404,-0.1326696456882171,-0.1048073321040719,-0.0610373429954052,-0.0291372239589691,0.0555486492812633
1772650028440441600,3.839441650390625,0.125311556276679,-0.0358320412211585,0.0642525092778727,-0.0598679222166538,-0.0297978054732084,0.0440503917634487
1772650028450413800,3.849413818359375,0.2384855155140161,0.0508968142861966,0.2206709322841837,-0.0515996068716049,-0.0384916923940181,0.0315780118107795
1772650028460385800,3.8593857421875,0.2072679549515247,0.0722359640461392,0.2586543519861065,-0.0398950278759002,-0.0311518311500549,0.0276482794433832
1772650028470358500,3.869358642578125,0.1373123751938343,0.0783794261040631,0.319717983828485,-0.0245482921600341,-0.0233072228729724,0.0201586708426475
1772650028480330800,3.879330810546875,0.1457826818972825,0.0427022557842079,0.2871969942509196,-0.0127897216007113,-0.0255554914474487,0.0098496135324239
1772650028490302700,3.889302734375,0.1253717620313167,-0.0535937069536652,0.2507297877982258,0.0031540910713374,-0.0362680554389953,0.0052442084997892
1772650028500275700,3.899275634765625,0.072339844545722,-0.1263083304953761,0.2077274987546727,0.0088007487356662,-0.0254945717751979,0.0039903395809233
1772650028510247700,3.90924755859375,0.0244096341133117,-0.1973180406821891,0.0775909882732667,0.00318014761433,-0.0188465248793363,0.0028174831531941
1772650028520220000,3.919219970703125,0.039940965244174,-0.2454636108983308,-0.0322898659691214,-0.0052002454176545,-0.0136666074395179,0.0008491937769576
1772650028530192600,3.929192626953125,0.0640045623987913,-0.2759512862836942,-0.064904159853328,-0.011948961764574,-0.0208997540175914,-0.0065586548298597
1772650028540164600,3.93916455078125,0.0737064567238092,-0.2813111328164115,-0.0447023344270885,-0.01650320738554,-0.01707130856812,-0.0105976657941937
1772650028550136800,3.94913671875,0.0518470916152,-0.1839052726078778,0.048182449894119,-0.0111912656575441,-0.0085859447717666,-0.0051051625050604
1772650028560108500,3.959108642578125,-0.0166933606475591,-0.091854253963381,0.1293054847510531,-0.0012248477432876,-0.0004622861742973,0.0021833691280335
1772650028570081800,3.969081787109375,0.0088935005515813,-0.0602265873631928,0.1722281509534455,0.0131988320499658,-0.0015501875896006,0.0077504403889179
1772650028580053800,3.9790537109375,0.0842979933649301,-0.0795926286855712,0.2154633354374207,0.0274248905479908,-0.0076275961473584,0.0031903411727398
1772650028590025700,3.989025634765625,0.1167553248554468,-0.1449021179367788,0.1787912175297737,0.0335546880960464,-0.007349828723818,0.0027336089406162
1772650028599998700,3.998998779296875,0.1109071833491325,-0.163497494547069,0.1360174582787789,0.0366342142224311,-0.0070030647329986,-0.0059719532728195
1772650028609970700,4.008970703125,0.1345516783088445,-0.1347226966273505,0.1314969121144153,0.0373729765415191,-0.0029366840608417,-0.0164253935217857
1772650028619942700,4.018942626953125,0.1562730962514877,-0.1011695235909894,0.1189921987957321,0.0422457605600357,-0.00160190789029,-0.0267677791416645
1772650028629915600,4.02891552734375,0.1609440106719732,-0.1561105626335367,0.1353932619658298,0.0401956588029861,-0.0052211438305675,-0.038578100502491
1772650028639887600,4.0388876953125,0.1044125606328248,-0.1724325874843634,0.0665739196964539,0.0403125435113906,-0.013723811134696,-0.0433921106159687
1772650028649859600,4.048859619140625,-0.0170832367479801,-0.163081607222557,-0.033525252982974,0.0321739241480827,-0.0159544758498668,-0.0242383927106857
1772650028659832800,4.058832763671875,-0.1815373013675212,-0.1614200306858867,-0.0503108036923222,0.0214928146451711,0.0020085396245121,0.0058833742514252
1772650028669804500,4.068804443359375,-0.2448427755862474,-0.1493137877660337,-0.0823613810128532,0.0096625201404094,0.0081583112478256,0.0359866805374622
1772650028679776800,4.07877685546875,-0.1766349162787198,-0.1521336492260452,-0.100164675663691,-0.0003043762408196,0.0154474657028913,0.046009637415409
1772650028689749800,4.088749755859375,0.042564884006977,-0.1414868387337308,-0.0100502145723439,6.50039874017e-05,0.0141872577369213,0.0295023024082183
1772650028699721500,4.098721435546875,0.256540812164545,-0.1595379797989502,0.0544664620670489,0.0046820724382996,-0.0015488625504076,0.0006361557752825
1772650028709693700,4.108693603515625,0.2539946348130703,-0.1621179498221725,0.0365342986058443,0.0069678639993071,-0.0110531523823738,-0.014181406237185
1772650028719666700,4.118666748046875,0.1208148293793201,-0.1583659403448924,0.0347433600684627,0.0071694361977279,-0.0089540416374802,-0.0117454966530203
1772650028729638700,4.128638671875,0.0211491710126399,-0.1719234506521373,0.0160180917344987,-0.0032009133137762,-0.0107072005048394,-0.005433271639049
1772650028739610600,4.138610595703125,-0.0765776282459497,-0.1563711680647917,0.0057792592548765,-0.0102022811770439,-0.0032545835711061,0.0074494644068181
1772650028749582800,4.148582763671875,-0.1653279248446226,-0.0988083291512914,0.0162364837255328,-0.0081633646041154,0.0094300527125597,0.030928960070014
1772650028759555600,4.1585556640625,-0.1357248137414455,-0.0763721048696432,0.0388147924921475,-0.0137401763349771,0.0146875297650694,0.0409335792064666
1772650028769527600,4.168527587890625,0.0433645099520683,-0.1055931578526739,0.0313903963787481,-0.0122461430728435,0.0061659468337893,0.0271493196487426
1772650028779499800,4.178499755859375,0.2022591868788003,-0.1424385225685313,0.0770526618791744,-0.0107725309208035,-0.0024586729705333,0.0092818709090352
1772650028789472500,4.188472412109375,0.3086398327142,-0.1595974001022987,0.0633692784362472,-0.0125802848488092,-0.0105845099315047,-0.0129917431622743
1772650028799444700,4.19844482421875,0.2832031936407089,-0.1533272520579397,-0.0078774919094517,-0.0201862454414367,-0.0149535425007343,-0.0305079463869333
1772650028809416700,4.208416748046875,0.0806043995440006,-0.0856894933891017,-0.0436172608704306,-0.0190075300633907,-0.0070692542940378,-0.0162909254431724
1772650028819389700,4.2183896484375,-0.1160018761396408,-0.1056895308992359,-0.0965742499562911,-0.0238874107599258,0.018892141059041,0.0080758640542626
1772650028829361700,4.228361572265625,-0.1071498766422271,-0.1869494260767474,-0.0729583783028647,-0.0227840617299079,0.024323659017682,0.016292780637741
1772650028839334000,4.238333984375,0.0645095893114805,-0.192744997145608,0.0140153918762691,-0.0255893375724554,0.0161346495151519,-0.0011103675933554
1772650028849306600,4.248306640625,0.1806616875767707,-0.2124958274013362,0.1136671313154511,-0.0144000649452209,0.0064125140197575,-0.0148197878152132
1772650028859278600,4.258278564453125,0.1105009406358003,-0.1927591352688148,0.1441453812853433,-0.0101935602724552,0.0001898407936096,-0.0098995463922619
1772650028869250800,4.268250732421875,-0.0454068294346332,-0.1634044277024455,0.1040694097509607,-0.0147776585072278,0.0100975986570119,0.0027129182126373
1772650028879223600,4.2782236328125,-0.0711339758872985,-0.1763495234660804,0.0618441512282006,-0.0127707300707697,0.0043403832241892,0.0048851761966943
1772650028889195800,4.28819580078125,-0.0076993223309516,-0.1734231146253645,0.1280858980945311,-0.0023258121218532,-0.0100894225761294,0.0053070215508341
1772650028899167700,4.298167724609375,0.0421048652797937,-0.1413318856340367,0.1596516693064943,-0.0003470834344625,-0.0175971388816833,0.0009602098725736
1772650028909140500,4.308140380859375,-0.0134597855538129,-0.1661127550793811,0.0284149059656076,-0.0057024341076612,-0.0197250060737133,0.0156065300107002
1772650028919112700,4.31811279296875,-0.1463829858779907,-0.1831657062869519,-0.0538356350839138,-0.0185489207506179,0.0157692898064851,0.041501235216856
1772650028929084700,4.328084716796875,-0.1130284132868051,-0.1569633435379713,-0.0814355166058987,-0.0284015517681837,0.0303343851119279,0.0447894409298896
1772650028939057700,4.3380576171875,0.0925789149761199,-0.1077770777630154,-0.0368721887907013,-0.0268099643290042,0.0297075062990188,0.0304544065147638
1772650028949029600,4.348029541015625,0.2527121937870979,-0.1230898159734439,0.0467035547142848,-0.023401916027069,0.0195358265191316,0.0060963360592722
1772650028959001900,4.358001953125,0.2750309931010007,-0.123342530359188,0.100707422504574,-0.0149348694831132,-0.000227237585932,-0.0149384774267673
1772650028968973600,4.3679736328125,0.2139958019018173,-0.1443920038570184,0.1292453885942697,-0.002873680088669,-0.0130117423832416,-0.0264643728733062
1772650028978946600,4.377946533203125,0.0836702168554067,-0.1877702774729579,0.1114284672768786,0.0001334496773779,-0.0187543369829654,-0.0204560589045286
1772650028988918800,4.387918701171875,-0.1005558852046728,-0.1928256246337667,0.0830016699440777,0.001804316882044,-0.0178565867245197,0.0001410960685461
1772650028998890800,4.397890869140625,-0.2199976726651191,-0.1650278459195047,0.004538702875562,-0.0134248286485672,0.0060313404537737,0.0266722906380891
1772650029008863700,4.40786376953125,-0.2391764203876256,-0.1737150467766448,-0.0507883946088142,-0.0310618802905082,0.0265557914972305,0.0476044714450836
1772650029018835700,4.417835693359375,-0.0911889219224452,-0.1417244194824248,-0.0022916728674434,-0.0463780276477336,0.0470476783812046,0.0451362021267414
1772650029028807700,4.4278076171875,0.1586006624162197,-0.0869281500722747,0.0427808831115253,-0.0539533868432045,0.0614362061023712,0.0208124853670597
1772650029038780700,4.43778076171875,0.3851011411041021,0.0099810126604978,0.1681003304337151,-0.0486282184720039,0.050698846578598,-0.0218758191913366
1772650029048753000,4.4477529296875,0.4860983403354882,0.0817100774972699,0.2777936810136772,-0.02749789878726,0.0419178716838359,-0.064454972743988
1772650029058724600,4.457724609375,0.4382423641830682,0.0940859950708225,0.3276846518587321,-0.0060100425034761,0.0390426255762577,-0.0911779403686523
1772650029068697600,4.467697509765625,0.3220154471158981,0.0544062837118748,0.2434451106827705,0.0117772091180086,0.0309458207339048,-0.1122046634554863
1772650029078669800,4.477669921875,0.2126590003401041,-0.0351393827818799,0.1123583868044428,0.0261725205928087,0.0130984745919704,-0.1155937910079956
1772650029088641500,4.4876416015625,0.0580710806965827,-0.1698573667014949,-0.0227787084432318,0.0288479309529066,-0.0005787215195596,-0.1054783016443252
1772650029098614800,4.49761474609375,-0.1483364580333233,-0.284562133968994,-0.1801251147483475,0.0165729038417339,0.0004064575769007,-0.0726476833224296
1772650029108586800,4.507586669921875,-0.3173766813993454,-0.3430983479592949,-0.2853974888145923,0.0068590240553021,-0.0017067608423531,-0.0379975624382495
1772650029118558700,4.517558837890625,-0.3431120111584663,-0.4379311062768101,-0.2389086180306039,-0.0011331494897603,-0.0219818223267793,-0.0081924675032496
1772650029128531700,4.52753173828125,-0.3067968351960182,-0.4890567882822826,-0.156709898499865,-0.0074549615383148,-0.0306317694485187,0.0139154978096485
1772650029138503700,4.537503662109375,-0.2818921110421419,-0.4351922558974474,-0.0395003088045865,-0.0036226026713848,-0.044411014765501,0.0410602912306785
1772650029148475600,4.5474755859375,-0.2902460978895426,-0.3666909666012972,0.0435925465542823,-0.0050175664946436,-0.0419047139585018,0.0656042471528053
1772650029158448600,4.55744873046875,-0.278568519577384,-0.2877977548893541,0.121066740047466,-0.0093333311378955,-0.0293191671371459,0.0898458957672119
1772650029168420900,4.5674208984375,-0.2333703644573688,-0.1602145821525715,0.1691830293701961,-0.0094763431698083,-0.0100096501410007,0.1049438863992691
1772650029178392600,4.577392578125,-0.0750409201979637,-0.1094453489019535,0.2547422017773613,-0.0106638744473457,-0.0058904225006699,0.1012349650263786
1772650029188365800,4.58736572265625,0.1247463236093521,-0.0894238393455278,0.2849792086035944,-0.0081080384552478,-0.0105924997478723,0.0742890983819961
1772650029198337800,4.597337890625,0.286386499851942,-0.0632529220475815,0.2709068623756989,0.002168552018702,-0.0329877398908138,0.04922891035676
1772650029208309800,4.607309814453125,0.2537707629293203,-0.08852300891513,0.2044379374236799,0.0106366053223609,-0.0556363239884376,0.0401746928691864
1772650029218281700,4.61728173828125,0.1412158123731613,-0.1716064205922186,0.041841592967417,0.008765272796154,-0.0645700991153717,0.0491701886057853
1772650029228254700,4.627254638671875,-0.0126607441306114,-0.2374880106429569,-0.1803702668821439,-0.0218698680400848,-0.0440413914620876,0.0708949267864227
1772650029238226700,4.637226806640625,-0.0804769737720489,-0.2502650380969978,-0.3525213522776961,-0.0588446222245693,-0.0141527773812413,0.0853339582681655
1772650029248198700,4.64719873046875,0.0259112708479166,-0.2360260483316145,-0.3123660136304795,-0.0877580270171165,-0.0002300380729138,0.0797474458813667
1772650029258172000,4.657171875,0.1416162098675966,-0.2092649009224027,-0.1741976243955083,-0.1022318974137306,0.0094688320532441,0.0586842261254787
1772650029268143900,4.667143798828125,0.2400181319087743,-0.1201197597872465,0.019797920800466,-0.1045563071966171,0.0059997988864779,0.0255561005324125
1772650029278116000,4.6771162109375,0.3254407453894615,-0.0608562361693941,0.1809980616579763,-0.0967497676610946,-0.0053847632370889,-0.0036634597927331
1772650029288088800,4.6870888671875,0.3031488340824842,-0.0033718693195842,0.2275791225037537,-0.0821732208132743,-0.0091688483953475,-0.0159089397639036
1772650029298060800,4.697060791015625,0.1140139171928167,0.0221673898781649,0.2471114877032116,-0.0737348422408104,-0.0081667229533195,-0.0117736272513866
1772650029308033000,4.707032958984375,-0.0300800809651613,0.0087637914909981,0.1793303841740824,-0.0713936612010002,0.009488170966506,0.0047411667183041
1772650029318005800,4.717005859375,-0.1279459964334964,-0.000853292361088,0.195631932492461,-0.0565066039562225,0.0109011698514223,0.0223769154399633
1772650029327978000,4.72697802734375,-0.1076373678982257,-0.0376605626894161,0.2674393506619147,-0.0336819812655448,0.0024501606822013,0.0348650105297565
1772650029337950000,4.736949951171875,-0.0493488450586795,-0.1469062425671145,0.1789196296824142,-0.0268290936946868,0.0044735888950526,0.0453489869832992
1772650029347922700,4.746922607421875,0.0238952548503875,-0.2106313669700175,0.0324826303285546,-0.0283108763396739,0.0063170292414724,0.0473759174346923
1772650029357895000,4.75689501953125,0.1136111816108226,-0.2117453560939058,0.0169707528168335,-0.0243465080857276,0.0045672571286559,0.0340715944766998
1772650029367867000,4.766866943359375,0.1991501149475574,-0.2145492162671871,0.0623458902052603,-0.0142544601112604,-0.000631232978776,0.0202380716800689
1772650029377839900,4.77683984375,0.1735346121758222,-0.1775533645641989,0.0769509550703689,-0.0126877650618553,0.0044173630885779,0.0106182880699634
1772650029387811800,4.786811767578125,0.1105243215113878,-0.138876720167417,0.0994628475372679,-0.0024167513474822,0.0053430781699717,0.0082584610208868
1772650029397784000,4.7967841796875,0.1063292079091072,-0.1070864742835052,0.1524617395360954,0.0033336714841425,-0.0038418027106672,-0.0006327540031634
1772650029407756800,4.8067568359375,0.1214461130201816,-0.0916098507482558,0.1760600572665221,0.0117519237101078,-0.0068402560427784,-0.0132337668910622
1772650029417729000,4.81672900390625,0.0964712462395429,-0.0550952614898793,0.2078983800758607,0.0225506648421287,-0.016134176403284,-0.0204501766711473
1772650029427701000,4.826700927734375,0.0506762942701578,-0.060184547452908,0.187816399903316,0.0363682098686695,-0.0346442088484764,-0.017616307362914
1772650029437673000,4.8366728515625,-0.0690863957077264,-0.1671199593605473,0.08330918325698,0.0349415652453899,-0.0398833751678466,-0.0038635064847767
1772650029447646000,4.84664599609375,-0.2074462341278791,-0.2529350062249228,-0.0696623141658492,0.0191602073609828,-0.0306105129420757,0.0265117101371288
1772650029457618000,4.856617919921875,-0.2409416764944791,-0.2874202633464708,-0.1734615104069933,-0.000222377013415,-0.0216421522200107,0.0471190512180328
1772650029467590000,4.86658984375,-0.0903951411962509,-0.3064799512665718,-0.164705646494124,-0.0099612902849912,-0.0203537158668041,0.0458844080567359
1772650029477563000,4.87656298828125,0.0637397739827632,-0.2941988906359299,0.0033768377556465,-0.00385003676638,-0.0335221476852893,0.0363856442272663
1772650029487535000,4.88653515625,0.1487380245715379,-0.2395794664968736,0.1099485857163555,0.0051069729961454,-0.0512843653559684,0.0176729448139667
1772650029497506800,4.8965068359375,0.1232920331478118,-0.1965657610101625,0.1323363586132414,0.0109121743589639,-0.0627867579460144,0.0129466829821467
1772650029507479800,4.906479736328125,-0.0441810870319604,-0.1460404743169434,0.0953315381525084,0.0030297492630779,-0.0634570717811584,0.0281227063387632
1772650029517452000,4.9164521484375,-0.2443073535352945,-0.1137862459167838,-0.0028012663573957,-0.0150071680545806,-0.0418011434376239,0.0594691634178161
1772650029527423700,4.926423828125,-0.3491471996694803,-0.0485205958073027,0.0200477308430708,-0.0322713777422905,-0.0123556349426507,0.1015665531158447
1772650029537397000,4.93639697265625,-0.2859861023575067,0.0299844568372704,0.1249707982813008,-0.0320924967527389,0.004392048344016,0.1236536353826522
1772650029547369000,4.946368896484375,-0.0211193603962659,0.0832212675115093,0.222322444084566,-0.0246279202401638,0.0059244316071271,0.1172703057527542
1772650029557341000,4.9563408203125,0.3073731737792491,0.0833009086189791,0.2874188203080557,-0.0093131745234131,-0.0089516034349799,0.081088125705719
1772650029567314000,4.96631396484375,0.5186234763652086,-0.0085564140843227,0.256045210667327,-0.0007047727704048,-0.0225659478455781,0.0315282978117466
1772650029577286000,4.976285888671875,0.5550508805304766,-0.0823952284835279,0.1416300557298585,-0.0007943818345665,-0.0291858650743961,-0.0164320524781942
1772650029587257900,4.9862578125,0.434020362573862,-0.158041421098262,-0.0038338973407633,-0.0119106825441122,-0.0153270410373806,-0.0376230888068676
1772650029597230800,4.99623095703125,0.2129465851098299,-0.1814763466942124,-0.1237255291942507,-0.0225447975099086,0.0034981351345777,-0.0367268435657024
1772650029607203000,5.006203125,0.0432166259139776,-0.1887850257397629,-0.1454105241166427,-0.036771934479475,0.0139731476083397,-0.0309877302497625
1772650029617174800,5.0161748046875,0.0078700027227401,-0.2201581421901471,-0.1174579749657772,-0.0445437543094158,0.0231618788093328,-0.026434026658535
1772650029627148000,5.02614794921875,0.0563186840713024,-0.1859288325910456,-0.0029049093949608,-0.0429096408188343,0.0161489769816398,-0.0314058810472488
1772650029637120000,5.0361201171875,0.1113373914599418,-0.1558746167195029,0.0992202344204299,-0.035154640674591,-0.0008210476953536,-0.0355156883597373
1772650029647092000,5.046092041015625,0.0503629905372858,-0.1449147582226432,0.1492902150942012,-0.0173998773097991,-0.0032381326891481,-0.02934673987329
1772650029657065000,5.05606494140625,-0.080226798403263,-0.1541519028464332,0.2094982895531691,-0.0071356771513819,-0.0043759243562817,-0.013593440875411
1772650029667037000,5.066036865234375,-0.1511672975450754,-0.1713992989138699,0.2040821827885694,0.0051295110024511,-0.0116567406803369,0.0076671065762639
1772650029677009000,5.0760087890625,-0.220063139116764,-0.1646341156278736,0.195500214137882,0.0103844888508319,-0.0048025692813098,0.0272970832884311
1772650029686982000,5.08598193359375,-0.1796019493907689,-0.1526705599811859,0.1372887385899201,0.0160181410610675,-0.0024155781138688,0.0380993969738483
1772650029696954000,5.0959541015625,-0.0472825601786375,-0.1587840378927998,0.1145850498779676,0.0197087191045284,-0.0063859685324132,0.0404568873345851
1772650029706925800,5.10592578125,0.049265842950344,-0.165712777710054,0.096774521768745,0.0280888900160789,-0.0142305754125118,0.0316735133528709
1772650029716898800,5.11589892578125,0.0995908395648002,-0.1618268213884905,0.1052777260947972,0.0316530242562294,-0.0191479530185461,0.0177158284932374
1772650029726871000,5.12587109375,0.1443903507560491,-0.1883664532678201,0.0601803644681349,0.029441537335515,-0.0241493694484233,0.0110896173864603
1772650029736842800,5.1358427734375,0.0744166508197784,-0.2089677446067333,0.0151766542079858,0.0251226462423801,-0.0263707805424928,0.0125971818342804
1772650029746815000,5.14581494140625,-0.0317909765362739,-0.176540004536882,-0.011773750429321,0.0223646778613328,-0.0225273072719573,0.0290768221020698
1772650029756788000,5.1557880859375,-0.0997153427273035,-0.1214224033510312,-0.0837202482759021,0.0121974442154169,-0.005520386621356,0.0495187491178512
1772650029766760000,5.165760009765625,-0.0470329693317413,-0.1197811572163365,-0.1131127488357015,0.0025677196681499,0.0039857667870819,0.0532280020415782
1772650029776732000,5.17573193359375,0.0956032312333583,-0.1238783268694765,-0.0625846856635063,-0.0027148153167217,0.0053453315049409,0.0395508483052253
1772650029786705000,5.185704833984375,0.2117962460309267,-0.140390175203979,0.0176953590306453,-0.0054245819337666,0.0054143071174621,0.0197779443114995
1772650029796676900,5.1956767578125,0.3084428488373756,-0.1546378779987804,0.0755519749926403,-0.0070274542085826,-0.007295602466911,-0.0073232189752161
1772650029806649000,5.205649169921875,0.2670084301650524,-0.1674572832898236,0.0770937428082339,-0.0081656891852617,-0.0164843071252107,-0.0277834869921207
1772650029816621800,5.215621826171875,0.1159188740313053,-0.1606850126759149,0.1037944287344813,-0.0075753647834062,-0.0085500534623861,-0.0288478881120681
1772650029826593800,5.22559375,-0.0395125106990337,-0.1294318510770797,0.1288981643254868,-0.0077111860737204,-0.0066091413609683,-0.0147485798224806
1772650029836566000,5.23556591796875,-0.1269055474698543,-0.106627551534865,0.1147027031745761,-0.0081251952797174,-0.0050922939553856,0.008714041672647
1772650029846538800,5.245538818359375,-0.1995347303509712,-0.1377208646631799,0.0938352169138379,-0.0034819738939404,0.0106661627069115,0.0342926383018493
1772650029856511000,5.255510986328125,-0.146195938873291,-0.1319488936656154,0.1324028479781933,0.0061920289881527,0.0054465853609144,0.0403063148260116
1772650029866483000,5.26548291015625,0.0063309565871953,-0.1618388223535381,0.134258303119149,0.0133292991667985,-0.0026121400296688,0.0365123748779296
1772650029876455700,5.27545556640625,0.0724994190216064,-0.1854905325053259,0.0425197296909987,0.0100046945735812,-0.0091426065191626,0.0382022559642791
1772650029886428000,5.285427978515625,0.0802986945956945,-0.2039973723156377,-0.0685195738715119,-0.0013584815897047,-0.0047241561114788,0.0386611185967922
1772650029896400000,5.29539990234375,0.0984445921391248,-0.195691188399028,-0.1109181979334913,-0.0174177642911672,0.0057809702120721,0.036714918911457
1772650029906372900,5.305372802734375,0.1359288118809461,-0.1130674849218688,-0.0792363625938072,-0.0238346513360738,0.0155939199030399,0.0303086843341588
1772650029916344800,5.3153447265625,0.1986018334150314,-0.0308456219775602,-0.0081997644000686,-0.025474639609456,0.0157407410442829,0.0134491715580224
1772650029926315800,5.325315673828125,0.2954319760948419,-0.0263718192980624,0.0544548081618733,-0.0169035214930772,0.0027964464388787,-0.0087437499314546
1772650029936288000,5.3352880859375,0.2878589104920625,-0.0524167995282448,0.0842426281821914,-0.0136107318103313,-0.0002836217172443,-0.025221237912774
1772650029946260000,5.345260009765625,0.1960737762421369,-0.0391907131324522,0.0590059138612821,-0.0113760735839605,-0.0014479558449238,-0.0338152572512626
1772650029956232700,5.355232666015625,0.0842529851794242,-0.0517321599986404,0.0466856719977222,-0.0179554838687181,0.0063474304042756,-0.0342389605939388
1772650029966205000,5.365204833984375,0.0189694888859987,-0.0749524381969124,0.0163203260840848,-0.0196758843958377,0.0122055858373641,-0.0269845090806484
1772650029976177000,5.375177001953125,-0.0027747254103422,-0.0883394873080775,0.0737923083763569,-0.016723308712244,0.0120897870510816,-0.0249842014163732
1772650029986150000,5.38514990234375,-0.0212532159090042,-0.1146767467494122,0.1224244565330445,-0.0055484189651906,0.000523411668837,-0.0165406484156847
1772650029996121900,5.395121826171875,-0.0601233370512723,-0.173839531672839,0.0875995191283524,0.0004105861298739,-0.0033376663923263,-0.0084840189665555
1772650030006094000,5.405093994140625,-0.085419106349349,-0.2228829092452302,0.096879553045798,0.0073004500009119,-0.0091289766132831,0.0015100252348929
1772650030016066800,5.41506689453125,-0.1001367830097675,-0.2503454281231388,0.0755530892374925,0.0106359049677848,-0.0075420886278152,0.0170548018068075
1772650030026038800,5.425038818359375,-0.0964805985897779,-0.2597009566958994,0.0168282573399134,0.0110132750123739,-0.0065660402178764,0.0305977761745452
1772650030036011000,5.435010986328125,-0.0723480278521776,-0.2455222822830081,0.018742584794946,0.0104394480586051,0.0018531489185988,0.0399812571704387
1772650030045983700,5.444983642578125,-0.0281675253421068,-0.1948609298536553,0.102786512067262,0.013533242046833,0.0087603237479925,0.0405887253582477
1772650030055956000,5.4549560546875,0.0871183114826679,-0.1468916843187995,0.1287960556578822,0.0184945277869701,0.0066085164435207,0.0290902256965637
1772650030065928000,5.464927978515625,0.1895534345626831,-0.1176926239718683,0.1298489439779892,0.0219358652830123,-0.0036563714966177,0.0156063744798302
1772650030075900700,5.474900634765625,0.2248392674773931,-0.1695474422357976,0.0882678285776637,0.0179739240556955,-0.0043419110588729,-0.001779627520591
1772650030085873000,5.484872802734375,0.2230506304949522,-0.1668251228661276,0.0471908267745748,0.0144678726792335,-0.0133279496803879,-0.0163636300712823
1772650030095844900,5.494844970703125,0.1204085866659879,-0.1433515274939127,0.0515376786061562,0.012751673348248,-0.0153230661526322,-0.0137907732278108
1772650030105817900,5.50481787109375,-0.0163625212579965,-0.152847359586507,0.0623477351024746,0.0107625583186745,-0.0053764265030622,0.0002110626664943
1772650030115789800,5.514789794921875,-0.1069160678863525,-0.1097134800525382,0.0289565933605656,0.010465701110661,0.0023138551041483,0.0128172384575009
1772650030125762000,5.524761962890625,-0.1395984403043985,-0.0971053976909257,-0.0310657858005724,0.0057319328188896,0.0124354641884565,0.0389119572937488
1772650030135734800,5.53473486328125,-0.112603465873003,-0.1510929536672308,-0.0700397143771871,-0.0039204005151987,0.0201164372265338,0.044765792787075
1772650030145707000,5.54470703125,0.0397989264249801,-0.2177894585637375,-0.0512759771963581,-0.0138553231954574,0.0155429895967245,0.0324374884366989
1772650030155679000,5.554678955078125,0.1474906548589468,-0.1889905399829149,0.025688933334127,-0.0119251329451799,0.0093056494370102,0.0144750066101551
1772650030165651000,5.56465087890625,0.1833902357578277,-0.1427765588838607,0.1011873697749339,-0.0082936473190784,0.0084326649084687,0.0048591298982501
1772650030175624000,5.5746240234375,0.1590150884360074,-0.097564704032056,0.1347292450991459,-0.0117321945726871,0.0095771215856075,-0.0040560532361269
1772650030185596000,5.584595947265625,0.1056470708638429,-0.0666413041105493,0.1129056271573528,-0.0098637212067842,0.0172909665852785,-0.0113374013453722
1772650030195567900,5.59456787109375,0.0871755946278572,-0.0372822308963164,0.1186268178157508,-0.0077185584232211,0.0199260897934436,-0.009088066406548
1772650030205540900,5.604540771484375,0.0778249979585409,-0.050325654201582,0.1192751256566494,-0.0045664408244192,0.0204864181578159,-0.0076579488813877
1772650030215513000,5.61451318359375,0.0964601403236389,-0.1359194960633292,0.1558219366841949,0.0006110104732215,0.0152895264327526,-0.0175081826746463
1772650030225484800,5.62448486328125,0.1070201127827167,-0.1810545593518763,0.1665149974710308,0.0044278525747358,0.0112519077956676,-0.0214760266244411
1772650030235457800,5.634457763671875,0.0511386510848999,-0.2096247837433591,0.1097736675408668,0.0043688006699085,0.0071039870381355,-0.0188690647482872
1772650030245430000,5.644429931640625,-0.0249608382552862,-0.2259132899170741,0.0147914360163733,0.0029866201803088,0.0094483671709895,-0.0119642876088619
1772650030255401700,5.654401611328125,-0.053949032330513,-0.2273327282609417,0.0289786042629741,0.0053018885664641,0.0139538757503032,-8.57548438943e-05
1772650030265375200,5.664375244140625,-0.0605073679327964,-0.2274313663298264,-0.0001609261827543,0.0045540728606283,0.0188205372542142,0.0090550128370523
1772650030275347200,5.67434716796875,-0.015300444984436,-0.2397455255124717,-0.0048053544551134,-0.0017514817882329,0.0192410144954919,0.0109590021893382
1772650030285319200,5.684319091796875,0.0409767380326986,-0.2404160451851785,0.0306447839095257,-0.0029685464687645,0.0173746719956398,0.0044033643789589
1772650030295292200,5.694292236328125,0.0613578472822904,-0.188673144596815,0.1156455369826406,-0.0011479516979306,0.0200370214879512,0.0009022708400152
1772650030305264000,5.70426416015625,0.0901174932986497,-0.1316982616391032,0.1484937492205761,0.0081667210906744,0.0031680264510214,-0.0025571754667907
1772650030315236000,5.714236083984375,0.0913239464789628,-0.0865612621217966,0.2027077160975895,0.0209818668663501,-0.0137102147564291,-0.0092241615056991
1772650030325209000,5.724208984375,0.0471627331912517,-0.0785768392391502,0.2547842142881825,0.0370830707252025,-0.022444050759077,-0.005036340560764
1772650030335181300,5.734181396484375,-0.0296551335513591,-0.1145480606021359,0.1624300845112651,0.0335207134485244,-0.015788834542036,0.0099620055407285
1772650030345153000,5.744153076171875,-0.1037771853387355,-0.1510494433190673,0.0246793179001659,0.012063892558217,0.0104243950918316,0.0149272037670016
1772650030355126000,5.7541259765625,-0.0752045863270759,-0.1380769298255443,-0.0539224548508413,-0.0123309567570686,0.0197162814438343,0.0127168372273445
1772650030365098200,5.76409814453125,0.0425765744447708,-0.0909805764013901,0.0241277484320104,-0.022341514006257,0.023952305316925,0.0046344106085598
1772650030375070200,5.7740703125,0.1044312653332948,-0.0540800748316571,0.0877450102799572,-0.0236586853861808,0.0202831514179706,-0.0079506821930408
1772650030385043200,5.784043212890625,0.1302495972007513,0.014621851603128,0.1511656353109516,-0.0162252709269523,0.0069540301337838,-0.0230167172849178
1772650030395015200,5.79401513671875,0.0755541304171085,-0.0064473129758611,0.1216737294972874,-0.0024845218285918,-0.0063243266195058,-0.01816863194108
1772650030404987100,5.803987060546875,-0.0161678754687309,-0.0602116363892331,0.1331559679004363,0.0112272957339882,-0.022937923669815,-0.0076922900043427
1772650030414960000,5.813960205078125,-0.0513847348004579,-0.15328019804582,0.1320317496434785,0.0155050745233893,-0.0332298539578914,0.0028325011953711
1772650030424932400,5.823932373046875,-0.0597089110314846,-0.2157653688576072,0.0419320842624641,0.0075171897187829,-0.0336085557937622,0.012551175430417
1772650030434904000,5.833904052734375,-0.0707499450057745,-0.2144237449903041,-0.0491395679558627,-0.0014177577104419,-0.024647619575262,0.019180528819561
1772650030444877000,5.843876953125,-0.0564993013352155,-0.2348787962589412,-0.036735538532678,-0.0151700545102357,-0.0096465665847063,0.0284003932029008
1772650030454849300,5.853849365234375,0.01792261018157,-0.2317738525135442,-0.0372695723441429,-0.018458567559719,0.010296557098627,0.0287578776478767
1772650030464821000,5.863821044921875,0.1605044502109289,-0.1744079974768683,0.063529674896039,-0.0081665161997079,0.012780487537384,0.0027752791065722
1772650030474794200,5.873794189453125,0.2709878551900386,-0.1259849620262161,0.2173821746707893,0.003308888990432,0.0007816366851329,-0.0242821294814348
1772650030484766200,5.88376611328125,0.2882838579058647,-0.1254236383490264,0.2655047110712155,0.0198769476264715,-0.0149472588673233,-0.0406709536910057
1772650030494738200,5.89373828125,0.1373942082583904,-0.120703551024571,0.2958466030440293,0.0334484428167343,-0.0170627236366271,-0.0444702766835689
1772650030504711200,5.903711181640625,-0.0174158297032117,-0.0968019760312512,0.2491082144783809,0.0439420975744724,-0.0178925655782222,-0.0284593533724546
1772650030514683100,5.91368310546875,-0.108241179010272,-0.1231589448200538,0.1510927892704494,0.0378483943641185,-0.013269679620862,-0.0007622262928634
1772650030524655000,5.923655029296875,-0.1362707571864128,-0.1745551325962878,0.0902036372121423,0.0337042510509491,-0.0060162944719195,0.0148822469636797
1772650030534628000,5.933628173828125,-0.0889087020307779,-0.1714455674747005,0.0711350170669145,0.0233936794102191,0.0009303907863795,0.0263333227485418
1772650030544600300,5.943600341796875,-0.0092319387257099,-0.1997242981063202,0.0419156445843167,0.0187962651252746,0.0076593994162976,0.0257522203028202
1772650030554572000,5.953572021484375,0.0872410610795021,-0.1764160858962684,0.0828779887654818,0.0206851754337549,0.0102477734908461,0.0134526835754513
1772650030564545300,5.963545166015625,0.2053179899275302,-0.1210334040334448,0.150175290833041,0.0255742073059082,0.0049765789881348,-0.0096473088487982
1772650030574517200,5.973517333984375,0.2378518937855958,-0.0797936311503872,0.1449381573645398,0.0280704833567142,-0.0009588622488081,-0.0248757265508174
1772650030584489200,5.9834892578125,0.1704389842480421,-0.0654014601172879,0.0870918983997777,0.030880119651556,-0.0046356222592294,-0.0264035817235708
1772650030594462200,5.993462158203125,0.0142693483710289,-0.089853143274039,0.0805229866045527,0.0349950268864631,-0.0032214508391916,-0.0124932061880826
1772650030604434200,6.00343408203125,-0.1120212820708751,-0.1234228564532473,0.0819488729555159,0.0341353565454483,-0.0037250544410198,0.0022516511380672
1772650030614406100,6.01340625,-0.1348123750716447,-0.1366871194349601,0.0839972751189954,0.0403029173612594,-0.0089880265295505,0.0166014097630977
1772650030624379100,6.023379150390625,-0.0820744720965623,-0.1365411350930109,0.0636949484603479,0.0431208051741123,-0.0064556268043816,0.0233163032680749
1772650030634351400,6.033351318359375,0.0414355877161026,-0.1673159568566828,0.0473559724747203,0.042408313602209,-0.0129552828148007,0.0143693443387746
1772650030644323000,6.043322998046875,0.1577934376865625,-0.204898558939062,-0.0050437480545602,0.0367352478206157,-0.0219509080052375,-0.0016338573768734
1772650030654296000,6.053296142578125,0.1682312450706958,-0.2292265061182901,-0.0828110792754217,0.0284622907638549,-0.0229577608406543,-0.0098237870261073
1772650030664268300,6.063268310546875,0.0734913526684045,-0.1940959002979099,-0.0683882025768049,0.0171340033411979,-0.0187933761626482,-0.0090040657669305
1772650030674240000,6.073239990234375,0.0736363140970468,-0.1297318934695795,-0.0003556450372561,0.0105822337791323,-0.0199085362255573,-0.0178300626575946
1772650030684213200,6.083213134765625,0.0708101507604122,-0.0964701137283816,0.0452384505977854,0.0107244476675987,-0.0163870397955179,-0.019547002390027
1772650030694185200,6.093185302734375,0.0209954417556524,-0.0380613985752686,0.0972112326855771,0.0109639344736933,-0.0115169640630483,-0.0116784330457448
1772650030704157200,6.1031572265625,-0.035129181048274,-0.0545719317355193,0.1298244671238586,0.0152774574235081,-0.0075358049944043,-0.0010162008693441
1772650030714130200,6.113130126953125,-0.0754173522949218,-0.0883288380498997,0.1155806367865763,0.0212724022567272,0.0034820130094885,0.0145815974101424
1772650030724102100,6.12310205078125,-0.0145499188780784,-0.1046854592900723,0.1613723556192591,0.0294512379914522,0.0080181751400232,0.0134982243180274
1772650030734074000,6.13307421875,0.1190641863197088,-0.1250430050009861,0.1717640405730344,0.0314090549945831,-0.0010284872259944,-0.0030112301465123
1772650030744047000,6.143047119140625,0.1763783111691474,-0.1292414430715143,0.1500183832382783,0.0397996082901954,-0.0153741370886564,-0.016286289319396
1772650030754019300,6.153019287109375,0.0810614956617355,-0.1400676652513444,0.1559695467276498,0.0368312336504459,-0.0110471080988645,-0.0085164885967969
1772650030763991000,6.162990966796875,-0.0558645105630159,-0.1445621271263807,0.0501086139174178,0.0274803433567285,-0.0010647808667272,0.0038006310351192
1772650030773964300,6.17296435546875,-0.0528939703196287,-0.1180392089198343,0.0129043984270654,0.0231380593031644,0.0052003054879605,0.0136149125173687
1772650030783936300,6.182936279296875,0.0371703314870595,-0.1239999439551494,0.0302691189975477,0.0201246924698352,0.0026138434186577,0.0063095949590206
1772650030793908200,6.192908203125,0.1362286716103553,-0.1469504653013311,-0.0056809317132458,0.0135869523510336,-0.0056854877620935,-0.0041651292704045
1772650030803880200,6.202880126953125,0.1910252606809139,-0.1389780068511143,-0.0028624402264133,0.0105626676231622,-0.0029418994672596,-0.0215558372437953
1772650030813853200,6.212853271484375,0.2069657571345567,-0.1500016147665679,0.0219737670022062,0.0071079297922551,-0.0045344969257712,-0.0362772233784198
1772650030823825200,6.2228251953125,0.1882283234387636,-0.1623847109995782,-0.012667886257451,0.0024742954410612,-0.0006217807531356,-0.0474563762545585
1772650030833798100,6.232798095703125,0.1006809728890657,-0.1757940632740967,-0.0016527173767797,0.0015811999328434,-0.0017861295491456,-0.0496935509145259
1772650030843770400,6.242770263671875,0.0517179122775793,-0.1515818331627175,0.0360814585381187,-0.0007314891554415,-0.010148455388844,-0.04185027256608
1772650030853742000,6.2527421875,-0.0282704011946916,-0.1060053462496027,0.0480544213339686,0.0012098564766347,-0.0145270600914955,-0.0281045716255903
1772650030863714300,6.26271435546875,-0.0930424408346414,-0.0848707152189686,0.1123786441411823,0.0118883345276117,-0.0085109788924455,-0.0095220981165766
1772650030873687300,6.272687255859375,-0.0677560238867998,-0.1059715353115461,0.1495105250476859,0.0121121238917112,-0.0061274226754903,-0.0020461077801883
1772650030883659000,6.282658935546875,-0.0144914666891098,-0.1442237620174884,0.1121646177980117,0.0133928377181291,-0.0020171001087874,0.0009307737345807
1772650030893631200,6.29263134765625,-0.0013379706054925,-0.1599279106982983,0.1026290564832277,0.0110291987657547,0.0026956023648381,0.0058672442100942
1772650030903604000,6.30260400390625,0.0227384860306978,-0.1680877084141597,0.0912476481060497,0.0079599041491746,0.0036607324145734,0.0048733525909483
1772650030913576200,6.312576171875,0.04727788400352,-0.1724101016579195,0.0626664821954444,0.0046064369380474,-0.0015705903060734,-0.0033544562757015
1772650030923548200,6.322548095703125,0.0965133318156003,-0.1591115528141148,0.087136742188502,0.0048248162493109,-0.0062324535101652,-0.0106224892660975
1772650030933521200,6.332521240234375,0.0628647447139024,-0.1462101865943521,0.0918475684942677,0.0085313636809587,-0.0040194354951381,-0.0105666108429431
1772650030943493000,6.3424931640625,0.0646767625719308,-0.1062461510018445,0.048094753344357,0.0103601552546024,-0.0100943725556135,-0.0117386681959033
1772650030953465300,6.35246533203125,0.0477706359565258,-0.1170258488925173,0.0138357427267357,0.0118322353810071,-0.0102644581347703,-0.0092985909432172
1772650030963438000,6.36243798828125,0.0470142646312713,-0.1619762945954687,0.010983202839829,0.0140205547213554,-0.0128064453601837,-0.0040044938214123
1772650030973410000,6.37241015625,0.0401122301578521,-0.1924440779702737,-0.0136148299850523,0.0038249809294939,-0.0122078154236078,-0.0053501958027482
1772650030983382300,6.38238232421875,0.0197515791743993,-0.1795339439221657,-0.0205819290513172,-0.0022845773492008,-0.0075989486649632,-0.0064239823259413
1772650030993355000,6.39235498046875,0.0204810624927282,-0.1383593634961173,0.05990105433641,0.0004366436041891,-0.0138801243156194,-0.0037367180921137
1772650031003327200,6.4023271484375,0.0231225169122219,-0.0889833747021853,0.1142388485224917,0.0048276633024215,-0.0273828841745853,-0.000396315153921
1772650031013299200,6.41229931640625,-0.0323269831091165,-0.0487411432228051,0.1293376334549859,0.0068804398179054,-0.0313276387751102,0.0030405991710722
1772650031023272000,6.42227197265625,-0.0470849917799234,-0.0248824209905229,0.0587661137560382,0.000577803235501,-0.0280253197997808,0.0111262230202555
1772650031033244200,6.432244140625,-0.0241436766535043,-0.0609380692339502,-0.0605066190141253,-0.0073626777157187,-0.0245277900248765,0.0115161091089248
1772650031043216100,6.442216064453125,0.0685422058284282,-0.1186084419088438,-0.0466290464396588,-0.0176909491419792,-0.023223640397191,0.0037236998323351
1772650031053189000,6.452189208984375,0.0867459710389375,-0.136556752787251,-0.0698889990611933,-0.0280726812779903,-0.0138727966696023,-0.0006923605105839
1772650031063161000,6.4621611328125,0.0926999110072851,-0.1247441499185748,-0.0569399943074211,-0.0349074155092239,-0.0120900766924023,-0.0019035660661756
1772650031073133300,6.47213330078125,0.1016495256602764,-0.1378940658056177,-0.0384084219146519,-0.0377682223916053,-0.0170944910496473,-0.0089319627732038
1772650031083106000,6.48210595703125,0.0866588772773742,-0.1729979297495447,0.0189090456693433,-0.0395773090422153,-0.0215989612042903,-0.0062818513251841
1772650031093078000,6.492078125,0.0309469269275665,-0.2034718323378823,0.1108939950739964,-0.0311709307134151,-0.0226269215345382,-0.0016188810113817
1772650031103050200,6.50205029296875,-0.016563012266159,-0.2269347236529924,0.136676689372491,-0.0211755558848381,-0.027353499084711,0.0052139912731945
1772650031113023000,6.51202294921875,-0.0073766662478446,-0.2331835001157596,0.1688327546278014,-0.0141630861908197,-0.0262577719986438,0.0069311349652707
1772650031122995200,6.5219951171875,0.0284475113272666,-0.2262315255533903,0.178854418959096,-0.0049362983554601,-0.0212401114404201,0.0057516209781169
1772650031132967200,6.53196728515625,0.0657832625091075,-0.1946813172367401,0.1609139443272724,-0.0042078122496604,-0.018699700012803,0.0043937172740697
1772650031142940200,6.541940185546875,0.0456768785476684,-0.2002555189061909,0.1069981018803082,-0.011137356981635,-0.0074848635122179,0.0046674902550876
1772650031152912100,6.551912109375,0.0353320101439952,-0.1444768051967956,0.1316606513087637,-0.0088686011731624,-0.0010126635897904,-0.0010219869436696
1772650031162884400,6.56188427734375,0.0534165328890085,-0.1037300217287614,0.1957989048235118,-0.001549701904878,-0.0090916287153959,0.0035155068617314
1772650031172857000,6.571857177734375,0.0385574019312858,-0.0896460581283085,0.1908782351593486,0.0030406541191041,-0.0104562472552061,0.0038235201500356
1772650031182829000,6.5818291015625,0.0540600914895534,-0.0990818305967375,0.1631122763554565,0.0077653680928051,-0.0203301850706338,-0.0005049153114669
1772650031192801300,6.59180126953125,0.0867675983488559,-0.1036897627836093,0.0800371210500597,0.005495652090758,-0.0241313688457012,-0.0041983849368989
1772650031202774000,6.60177392578125,0.0904600231260061,-0.1646182056726887,-0.0256357783747836,-0.003477070480585,-0.0185477845370769,-0.0057086637243628
1772650031212746200,6.611746337890625,0.1130301668524742,-0.2118001550210639,-0.0852440055107697,-0.0132443662732839,-0.0156844425946474,-0.012266787700355
1772650031222718200,6.62171826171875,0.1691419301748275,-0.1946472505703568,-0.075662449629791,-0.0223614312708377,-0.0228294376283884,-0.0272183064371347
1772650031232691000,6.63169091796875,0.1926554922312498,-0.2057266985925845,-0.0843074187804013,-0.025105245411396,-0.0240688044577837,-0.0379095152020454
1772650031242663200,6.6416630859375,0.189991825979948,-0.2120051395412534,-0.1042007445130497,-0.0343008749186992,-0.0311605352908372,-0.0462476089596748
1772650031252635100,6.65163525390625,0.1119061312586069,-0.2193956151187419,-0.135627271651104,-0.0493439212441444,-0.0294635444879531,-0.0418065562844276
1772650031262608100,6.661608154296875,-0.0480213958472013,-0.1795504749318584,-0.0897687163935974,-0.0502416715025901,-0.007556646130979,-0.0259106792509555
1772650031272580000,6.671580078125,-0.0979553473174572,-0.1008222810558974,0.1267241630209609,-0.0427031628787517,0.0008021155372262,-0.0122342202812433
1772650031282552300,6.68155224609375,-0.0350759895563125,-0.1064852204547263,0.2132268268233165,-0.0348162092268466,-0.0031872997060418,-0.012760461308062
1772650031292525000,6.691525146484375,-0.007972878575325,-0.0713714013723656,0.3410875195935368,-0.0136904893442988,-0.0038048387505114,-0.0100924996659159
1772650031302497000,6.7014970703125,0.0237497088998556,-0.0002353613921441,0.4167914702774956,0.0118196634575724,-0.0123637057840824,-0.0104895774275064
1772650031312469200,6.71146923828125,0.0314922858506441,-0.0554615740516222,0.3653945335825905,0.0241540241986513,-0.0205137282609939,-0.0051094521768391
1772650031322442000,6.72144189453125,-0.0359153629899024,-0.1152719726962037,0.2436068771157413,0.0268640574067831,-0.0233835503458976,0.0012983792694285
1772650031332414200,6.731414306640625,-0.111577629956603,-0.1454252832943573,0.1083978674093261,0.0275625176727771,-0.0186053365468978,0.0171876307576894
1772650031342386200,6.74138623046875,-0.1086947679966688,-0.1388394934295676,0.0475092450739815,0.0261481143534183,-0.0148460175842046,0.0245683155953884
1772650031352359200,6.751359130859375,-0.0499959107905626,-0.1386623650306835,0.0236756572829559,0.0281543601304292,-0.0147630097344517,0.0214724913239479
1772650031362331100,6.7613310546875,0.0675122782588005,-0.1534444121642038,0.0577251168031245,0.035154215991497,-0.0259389653801918,0.0118827139958739
1772650031372303400,6.771303466796875,0.0901496420025825,-0.161282905503828,0.0182092451032251,0.0340080857276916,-0.0284647606313228,0.0021473336964845
1772650031382276000,6.781276123046875,0.1149000523775816,-0.168050390344765,-0.0561392358511686,0.0225170794874429,-0.0286005828529596,0.000336916942615
1772650031392248000,6.791248046875,0.0847299550414085,-0.1812881671783514,-0.1547495034134015,0.0062411557883024,-0.0335125923156738,0.004546869546175
1772650031402220300,6.80122021484375,-0.0369061275929212,-0.1857350270519964,-0.1547150896871462,-0.0042317248880863,-0.0227156039327383,0.0247301682829856
1772650031412193000,6.811193115234375,-0.0627747283428907,-0.1366332338232547,-0.031029234916158,-0.0048990985378623,-0.0051136324182152,0.0407157652080059
1772650031422165200,6.821165283203125,0.0957329950928688,-0.0979094806154258,0.0512193516382947,-0.0021842722781002,-0.0041306596249341,0.026967728510499
1772650031432137200,6.83113720703125,0.2794137382298707,-0.1578493873911909,0.1389091063333675,0.0090127773582935,-0.0138846095651388,0.0020104679279029
1772650031442110000,6.84110986328125,0.3928261823982,-0.1813686850686557,0.2452654214451089,0.0158738791942596,-0.0230719838291406,-0.0378743633627891
1772650031452082200,6.851082275390625,0.3457376834869384,-0.1988621648516506,0.2323616623388603,0.0262937508523464,-0.0282472241669893,-0.0566199272871017
1772650031462054100,6.86105419921875,0.1476771173417568,-0.1740406802681274,0.2800256230505183,0.0305995494127273,-0.0290355198085308,-0.0584258176386356
1772650031472027100,6.871027099609375,-0.0888794759362936,-0.1815494484630413,0.1957094729743898,0.0388790555298328,-0.0259137321263551,-0.0336994677782058
1772650031481999000,6.8809990234375,-0.2081692877054214,-0.1697240957106463,0.1716175995733588,0.0443313457071781,-0.0203855410218238,-0.0085416501387953
1772650031491971300,6.890971435546875,-0.184592597284913,-0.215488378547132,0.148206767239049,0.0433180071413517,-0.0152906775474548,0.0126432981342077
1772650031501944000,6.900944091796875,-0.1606090796291828,-0.231748498876579,0.1075049371575936,0.0451523922383785,-0.0155577939003705,0.0244355089962482
1772650031511916300,6.910916259765625,-0.1305062023103237,-0.2247973828307352,0.0093505601366981,0.0393816456198692,-0.0019711563363671,0.0415129140019416
1772650031521888300,6.92088818359375,-0.0053629883378744,-0.2692114018357359,-0.1137660433789715,0.021801583468914,0.0090423468500375,0.0477569624781608
1772650031531861000,6.930861083984375,0.2049509101808071,-0.2742477885677479,-0.200544564980641,0.0072028636932373,0.0074397036805748,0.029493011534214
1772650031541833200,6.940833251953125,0.3750765906959772,-0.2270944259930402,-0.1294827410141006,-3.2146461308e-05,0.002766921184957,-0.0066322349011898
1772650031551805200,6.95080517578125,0.4144774577140808,-0.1943435549160465,-0.0740129288570955,-0.0109306713566184,-0.0089575983583927,-0.032045442610979
1772650031561778200,6.960778076171875,0.2087935570836067,-0.1465418479678221,-0.0488596002370119,-0.015360839664936,-0.0029814643785357,-0.0352454967796802
1772650031571750100,6.970750244140625,0.0144996499955654,-0.0078326115881092,0.1008943233788013,-0.0091135101392865,0.0066647985950112,-0.0189973190426826
1772650031581722400,6.980722412109375,-0.1156137536048889,0.1174400557165965,0.2501070893226191,0.0037202625535428,0.0172612499445676,-0.0014867678983137
1772650031591695000,6.990695068359375,-0.1543342371433973,0.1694003436489962,0.3108929819358512,0.0235625449568033,0.0172500796616077,0.0150393210351467
1772650031601667000,7.0006669921875,-0.06484627391994,0.1117085445935837,0.2973047476967796,0.0250911992043256,0.0159017201513052,0.0138273173943161
1772650031611639300,7.010639404296875,0.072379007512331,0.013368673204258,0.2031367003656923,0.0178997311741113,0.0145565439015626,0.0087163345888257
1772650031621612000,7.020612060546875,0.1120639521688222,-0.0585475939008407,0.1364682890525087,0.0168520435690879,0.0136281661689281,-0.0001852810964919
1772650031631584300,7.030584228515625,0.134271107801795,-0.1314068957434035,0.1019372930930927,0.0156210213899612,0.0111596621572971,-0.0123319998383522
1772650031641556200,7.04055615234375,0.0640144992709159,-0.1690502333033829,0.0133158470384776,0.0123951341956853,0.0117271803319454,-0.0148710571229457
1772650031651529000,7.050529052734375,0.0338695363759994,-0.2151640419635921,-0.0961894701560959,0.0039927889592945,0.0125557379797101,-0.0166343282908201
1772650031661501200,7.060501220703125,0.0321668241113424,-0.2791913459171541,-0.175730405187048,-0.0157542843371629,0.0127048743888735,-0.0217111129313707
1772650031671473200,7.07047314453125,0.037065117546916,-0.308953136447072,-0.232946914880909,-0.0330413691699504,0.0148708168417215,-0.0220340825617313
1772650031681446100,7.080446044921875,0.0169727621108293,-0.204864601870533,-0.1258880775230005,-0.0335686765611171,0.0146785359829664,-0.0170363932847976
1772650031691418000,7.090418212890625,-0.0416056835860013,-0.1236095198654569,0.0107885935831815,-0.0269090197980403,0.0084640299901366,-0.0107308663427829
1772650031701390300,7.100390380859375,-0.0903653305798768,-0.1169192467128858,0.0870257743610069,-0.029239285737276,-0.0021377478260546,0.0008355085738003
1772650031711363000,7.110363037109375,-0.1221153905838727,-0.1043958834926597,0.0737717405123636,-0.0348029248416423,0.0082982312887907,0.0205956827849149
1772650031721335300,7.120335205078125,-0.1025379989326,-0.1129532656913623,0.0463759301951155,-0.0428414121270179,0.0147659853100776,0.0260751377791166
1772650031731307000,7.13030712890625,0.0342173269003629,-0.0438919861585833,0.0853511191470548,-0.0414081513881683,0.014475024305284,0.0162757504731416
1772650031741280000,7.140280029296875,0.1566384224325418,-0.0303203011955134,0.1583779961088672,-0.0375777259469032,0.0127335833385586,-0.0004736681294161
1772650031751252200,7.150252197265625,0.2008347070336341,-0.0623449403571896,0.1650460026307031,-0.0291836243122816,0.0081348633393645,-0.0170907620340585
1772650031761224000,7.160223876953125,0.1699298656821251,-0.0611887195267714,0.1702433886107057,-0.0201845373958349,0.0033566197380423,-0.025992376729846
1772650031771197200,7.170197265625,0.0872550896048545,-0.0378437737692147,0.1193492868714034,-0.0159281026571989,0.002261315472424,-0.0239524655044078
1772650031781169200,7.180169189453125,-0.0470797310829162,-0.0718161311988718,0.0438196698410436,-0.0095684742555022,-0.0002018422819674,-0.0069444528780877
1772650031791141000,7.19014111328125,-0.1465904911488294,-0.1169898825299926,0.0316536869574338,-0.0093875341117382,0.0029486985877156,0.0086808875203132
1772650031801114000,7.200114013671875,-0.1395996093481779,-0.1351994564267806,-0.0079446753941476,-0.0073270471766591,-0.0052775396034121,0.0194866620004177
1772650031811086000,7.210086181640625,-0.0256587573915719,-0.1429931242439895,-0.0345476913658902,-0.0019507685210555,-0.0144481565803289,0.0210349839180707
1772650031821058000,7.22005810546875,0.0664355889379978,-0.150960943051707,-0.0377438935913145,-0.0099884551018476,-0.0120598329231143,0.0101210828870534
1772650031831031000,7.230031005859375,0.1308703594475984,-0.1786670066282153,-0.0455752448040992,-0.0185352731496095,-0.0187885127961635,-0.0020374567247927
1772650031841003300,7.240003173828125,0.1781254470974206,-0.1480798529237508,-0.0315836173959076,-0.0188812166452407,-0.0160198900848627,-0.0155532648786902
1772650031850975000,7.24997509765625,0.1483569162994623,-0.0992027352963574,0.0010103095537051,-0.0153978187590837,-0.013847092166543,-0.0248247683048248
1772650031860948000,7.259947998046875,0.1305868663311004,-0.0733188456457108,0.0470554734244942,-0.0118699287995696,-0.0122273582965135,-0.030589448288083
1772650031870920200,7.269920166015625,0.111762338873744,-0.0837597948350012,0.0430934379257261,-0.0080210259184241,-0.0188023336231708,-0.0325501263141632
1772650031880892200,7.27989208984375,0.0626975714534521,-0.0852553123560734,0.0782078232636675,-0.0067373826168477,-0.0258996598422527,-0.0362047813832759
1772650031890865200,7.289865234375,0.0035685061365365,-0.0737463503427803,0.1418726688466966,0.0068183578550815,-0.036515362560749,-0.0344569236040115
1772650031900837000,7.299837158203125,-0.063234747070074,-0.0769503340158611,0.1166762682698667,0.0054452316835522,-0.0410528555512428,-0.0255025755614042
1772650031910809000,7.30980908203125,-0.0916238062083721,-0.0941312041857279,0.0834189820406958,0.0061934390105307,-0.0448040887713432,-0.0144480466842651
1772650031920782000,7.319781982421875,-0.1448620599210262,-0.0978822820812463,0.0520896316668018,0.0056552137248218,-0.0293636098504066,-0.0013743231538683
1772650031930754300,7.32975439453125,-0.107390699660778,-0.0937421318029053,0.0219579666448757,-0.0011735223233699,-0.0135722272098064,0.0073893284425139
1772650031940726000,7.33972607421875,0.0445873297452926,-0.1275321001366712,-0.0629157442487776,-0.0137851880863308,-0.0151102030649781,0.0001551173045299
1772650031950699000,7.349698974609375,0.1308750356227159,-0.1337508285210467,-0.0597473433457314,-0.021713700145483,-0.0222534090280532,-0.01208021864295
1772650031960671200,7.359671142578125,0.166464819920063,-0.1007044998951256,-0.0142934233663603,-0.0268216431140899,-0.0205005165189504,-0.0262216031551361
1772650031970644200,7.369644287109375,0.1868202102065086,-0.0931299181886948,0.0535150248274207,-0.0258745066821575,-0.0237627103924751,-0.0351571291685104
1772650031980616200,7.3796162109375,0.1741045210182666,-0.1040040894297882,0.1604743108009919,-0.0137866847217082,-0.0260042957961559,-0.0433932207524776
1772650031990588200,7.389588134765625,0.1658902349025011,-0.1067170199166052,0.2035545239189639,-0.0025429592933505,-0.0315803252160549,-0.0561207197606563
1772650032000560000,7.39956005859375,0.0964689081519842,-0.1091907348200678,0.1808154898989945,0.0059346812777221,-0.0310016199946403,-0.0550615787506103
1772650032010533000,7.409533203125,0.0023632220000028,-0.1917699963673017,0.1614958724010735,0.0068068113178014,-0.025875711813569,-0.0516673997044563
1772650032020505000,7.419505126953125,-0.0853191531062126,-0.2826760644940659,0.0782864414578303,-0.0050794091075658,-0.0224839095026254,-0.0381614454090595
1772650032030478300,7.429478271484375,-0.1507306596934795,-0.3320135479085147,-0.0223040401361882,-0.0158518329262733,-0.022453486919403,-0.0243578981608152
1772650032040450000,7.439449951171875,-0.2269137356638908,-0.3083749712329358,-0.0191640616100281,-0.0314837880432605,0.0072247800417244,0.0065784463658928
1772650032050422300,7.44942236328125,-0.2430015316337347,-0.2710979462346993,-0.0399357410797849,-0.0565878823399543,0.0482574850320816,0.031900055706501
1772650032060395300,7.459395263671875,-0.1435638368040323,-0.1780259505120106,-0.0363003802521154,-0.046161338686943,0.0401652008295059,0.0405329577624797
1772650032070367000,7.469366943359375,0.039618309161067,-0.089718684973102,0.2348222437661141,-0.0057163671590387,0.0108729340136051,0.0295089371502399
1772650032080339200,7.479339111328125,0.1945774002045392,-0.0615976839201524,0.3968433821503073,0.034674733877182,-0.0209742113947868,0.0112380553036928
1772650032090312200,7.489312255859375,0.2526829676926136,-0.0268916053884662,0.3218090378236025,0.0496495999395847,-0.0298630706965923,0.0020070399623364
1772650032100284200,7.4992841796875,0.1714659892082214,-0.0884233661992475,0.1378864852873608,0.0522983819246292,-0.0252483449876308,0.0051293298602104
1772650032110256000,7.509256103515625,0.0862239929914474,-0.1516747173442505,0.012057919399254,0.040851142257452,-0.0209354106336832,0.0100911306217312
1772650032120229000,7.51922900390625,0.073123103877902,-0.1543449412005022,-0.0445786715148016,0.0261134766042232,-0.0191486962139606,0.0039477506652474
1772650032130201000,7.529201171875,0.0562935496300458,-0.1347755319262854,-0.0504645512156188,0.01776690967381,-0.0135760717093944,-0.0011791795259341
1772650032140173300,7.53917333984375,0.0302098448246717,-0.1218415786111727,0.0056964580759406,0.0166861992329359,-0.0108556533232331,0.0026456522755324
1772650032150146300,7.549146240234375,0.0057855976641178,-0.0479660671970807,0.0139459981681779,0.0110212322324514,-0.0050302343443036,0.0063823740929365
1772650032160118000,7.559117919921875,0.0153524674326181,-0.0081903207182884,0.0179626864636316,0.0082502141594886,0.0030375458300113,0.0106311812996864
1772650032170090200,7.56909033203125,0.0793792416632175,-0.0139240785973146,0.0375822367561981,0.0107248462736606,-0.0044278330169618,0.0077105625532567
1772650032180063200,7.579063232421875,0.1643354066759347,-0.0432029992474243,0.0506369851730763,0.0121400505304336,-0.015598994679749,-0.0088151507079601
1772650032190035200,7.58903515625,0.1981055743306875,-0.0773377989634871,-0.0105500721195712,0.0070811961777508,-0.0227407664060592,-0.0200989954173564
1772650032200007200,7.599007080078125,0.2212684232532978,-0.1447873689833097,-0.053316543113254,0.0003204955719411,-0.0217119883745908,-0.0338057540357112
1772650032209980200,7.608980224609375,0.1726350329875945,-0.1854691061248071,-0.0771898053275421,-0.0030282733496278,-0.0164948776364326,-0.0386660620570182
1772650032219952000,7.6189521484375,0.0788496648311615,-0.1606248982528224,-0.0654553457289934,-0.0060352487489581,-0.0055615347810089,-0.0372684337198734
1772650032229924000,7.628924072265625,0.05423427901268,-0.1887908344260417,-0.042583588707447,-0.0058591580018401,0.0029005371034145,-0.0296858623623847
1772650032239897300,7.6388974609375,0.0447352137833833,-0.186552097322233,0.0094723598854616,-0.0044908262789249,0.0064896787516772,-0.0270701069384813
1772650032249869000,7.648869140625,0.0497609329909086,-0.1931186710298992,0.0211338638456538,-0.0100484210997819,0.0127432933077216,-0.0235071014612913
1772650032259841300,7.65884130859375,0.0995429087698459,-0.2120432795945555,0.0325863281650468,-0.0187881160527467,0.0085802394896745,-0.0286853518337011
1772650032269814800,7.668814697265625,0.1018698904126882,-0.1407038625293411,0.108060963605158,-0.0163252800703048,0.0029155523516237,-0.0344178266823291
1772650032279786800,7.678786865234375,0.0485363596320152,-0.0877621806104667,0.211830659757182,-0.009912122040987,0.0099769234657287,-0.0324596054852008
1772650032289758700,7.6887587890625,-0.0160234985619783,-0.0947707989972084,0.2229262734629213,-0.005432684905827,0.0090211164206266,-0.0250807851552963
1772650032299731700,7.698731689453125,-0.0606727876275777,-0.0888569718435406,0.1739485998041927,-0.0025117299519479,0.0187488440424203,-0.0144188180565834
1772650032309704000,7.708703857421875,-0.0418570279985666,-0.1089611090489663,0.1425608703065663,0.0017312737181782,0.0316248387098312,-0.0039816037751734
1772650032319675600,7.718675537109375,0.0592868862271308,-0.1098889462172985,0.1121449449831619,0.0080480258911848,0.0359868295490741,-0.0097031397745013
1772650032329648600,7.728648681640625,0.1828904695421457,-0.1725966554722748,0.0632393136473372,0.0022286819294095,0.0266801957041025,-0.0260674580931663
1772650032339620900,7.738620849609375,0.2277922720640897,-0.2256275500445626,-0.0194963623043149,-0.0020752528216689,0.0218817107379436,-0.0451077297329902
1772650032349592600,7.748592529296875,0.2125526173561811,-0.1950367978772148,-0.0301808013932779,-0.0070700976066291,0.0176720265299081,-0.0569598264992237
1772650032359565800,7.75856591796875,0.1094774428069591,-0.1296344061781652,-0.0387282649861648,-0.0114310234785079,0.0168427173048257,-0.0585135146975517
1772650032369537800,7.768537841796875,-0.0268266321271657,-0.1018422534870915,-0.0192452005548402,-0.0080184182152152,0.0183201227337121,-0.0484012812376022
1772650032379509800,7.778509765625,-0.0633691871047019,-0.0899187193235382,0.0461005107872188,-0.0039728106930851,0.0036242678761482,-0.0369680635631084
1772650032389482800,7.788482666015625,-0.1679220329910516,-0.1244204891884699,0.0186340829191729,-0.0055104899220168,-0.0038476136978715,-0.0083178309723734
1772650032399454700,7.798454833984375,-0.2894464719444513,-0.1655886216074228,-0.0095675273556262,-0.0126807847991585,0.0033916565589606,0.0226432811468839
1772650032409426700,7.8084267578125,-0.2558165895432233,-0.1770278428527526,-0.0522480005662888,-0.0171740297228097,0.004395471420139,0.03912004083395
1772650032419399700,7.818399658203125,-0.0590928249597549,-0.1620212845146656,-0.0147267002170905,-0.023115275427699,-0.0019825333729386,0.0273459386080503
1772650032429372000,7.828371826171875,0.1297188513249158,-0.167448387597315,0.0309602978657931,-0.0223110858350992,0.004377600736916,0.0077941087074577
1772650032439343600,7.838343505859375,0.2055751795589923,-0.1329752410386689,0.1029568088665604,-0.0170281752943992,0.0012925951741635,-0.0043211434967815
1772650032449316900,7.84831689453125,0.2491571316540241,-0.1042069550581276,0.151759454751946,-0.0095471516251564,0.0051573412492871,-0.0206270441412925
