time,seconds_elapsed,acc_z,acc_y,acc_x,gyro_z,gyro_y,gyro_x
1772649393137237000,0.071237060546875,-0.4395627991318702,-0.4203242840461432,-0.8414213790956884,0.2173631638288498,-0.2879793643951416,0.2567349970340729
1772649393147208000,0.0812080078125,-0.3949579337298869,-0.4674564759686589,-0.8554306152258068,0.111716091632843,-0.2929810583591461,0.3271313905715942
1772649393157180200,0.09118017578125,-0.1213064122885465,-0.4423557908512651,-0.5297826933590695,0.0391218736767768,-0.2858384847640991,0.3264318704605102
1772649393167152000,0.101152099609375,0.052356210181117,-0.3055111062344163,-0.1279466722869314,-0.0036623433697968,-0.2408704608678817,0.2475682199001312
1772649393177123000,0.111123046875,-0.0382002590566873,-0.1172697771836072,0.1719372965143993,0.0054396702907979,-0.133874699473381,0.1509851664304733
1772649393187095000,0.121094970703125,-0.2045645412117242,0.0567307720035314,0.3396989147793501,0.0338587947189807,-0.0162780378013849,0.0827150270342826
1772649393197067000,0.13106689453125,-0.3169669315546751,0.1517309958424419,0.3702789811559021,0.0572112910449504,0.0490551851689815,0.0371652543544769
1772649393207038200,0.1410380859375,-0.3408504959672689,0.0788784525342285,0.4541295595468953,0.0616627596318721,0.0400915183126926,0.0156770069152116
1772649393217010000,0.151010009765625,-0.3240630272954702,-0.0186197986654937,0.586575168954581,0.0730677619576454,0.0187320969998836,0.031944490969181
1772649393226982100,0.160982177734375,-0.3061152826726436,-0.0464748239923268,0.6848387785036116,0.080838605761528,-0.0189236681908369,0.06471948325634
1772649393236953000,0.170953125,-0.2594996619701385,0.0003768704883754,0.7662911001138388,0.092255562543869,-0.0716027915477752,0.1094889864325523
1772649393246925000,0.180925048828125,-0.2595803259909153,0.0247789788823574,0.970426236932352,0.1218640580773353,-0.0953723043203353,0.1615069210529327
1772649393256897000,0.19089697265625,-0.3155634944975375,0.1354172821622341,1.1815774630580096,0.1825698167085647,-0.0729968026280403,0.207963690161705
1772649393266868200,0.2008681640625,-0.332215354090929,0.2882131307572126,1.216064912136644,0.2663749754428863,-0.0168536398559808,0.2454966902732849
1772649393276840000,0.21083984375,-0.1962543935060501,0.3290565247338265,1.0859802962392568,0.3505363762378692,0.0280934795737266,0.2666243612766266
1772649393286812200,0.220812255859375,-0.0424485641509294,0.2371255522724241,0.8476303167384117,0.4091269969940185,0.0616959109902381,0.2800943553447723
1772649393296784100,0.2307841796875,0.0833908153921365,0.063202159974724,0.5876853952188045,0.4407671391963959,0.066364474594593,0.291192352771759
1772649393306755000,0.240755126953125,0.2599918294012546,-0.0963700508873909,0.4223256869964301,0.4448865056037903,0.0414111949503421,0.2846452295780182
1772649393316727000,0.25072705078125,0.4316431120485067,-0.2026244399946183,0.3066691536957397,0.433356374502182,-0.0179240349680185,0.2767950296401977
1772649393326699000,0.260698974609375,0.5510936673372984,-0.2134343686267733,0.269969727656059,0.4210166037082672,-0.0858674049377441,0.2554146349430084
1772649393336670200,0.270670166015625,0.5007160637527704,-0.2181340707503259,0.1980295864850282,0.3859783411026001,-0.1332406550645828,0.222286120057106
1772649393346642000,0.280641845703125,0.2550485277801751,-0.3279589387554675,-0.1414954330321401,0.3239288330078125,-0.1055613458156585,0.1677003800868988
1772649393356614100,0.2906142578125,-0.0234404968202114,-0.3988523838851601,-0.3687888887286186,0.2627099752426147,-0.0100183486938476,0.117554560303688
1772649393366585000,0.300585205078125,-0.1079231991022825,-0.3982693233001977,-0.4005563747914508,0.2053779512643814,0.0740965232253074,0.0691803693771362
1772649393376557000,0.31055712890625,-0.0645300475776195,-0.4047010368481278,-0.4783199979515746,0.1413865238428115,0.089679904282093,0.0418995432555675
1772649393386529000,0.320529052734375,-0.1325461837053299,-0.3930414325840771,-0.4270652827389538,0.0896072164177894,0.060924157500267,0.0508040897548198
1772649393396500200,0.330500244140625,-0.3251742034077644,-0.3683104575619101,-0.3028559520831331,0.0388909578323364,0.0316058620810508,0.1074222028255462
1772649393406472000,0.340471923828125,-0.4597381566762924,-0.2457273033358156,-0.2996914236376062,-0.0094430185854434,0.0147589705884456,0.1765775829553604
1772649393416444200,0.350444091796875,-0.3949164326757192,-0.0177452077880501,-0.2822714657485485,-0.0353684425354003,0.0117743909358978,0.2279272228479385
1772649393426416000,0.360416015625,-0.1675374175876379,0.1558107394367456,-0.1872899831427261,-0.0443358421325683,0.0083104167133569,0.2484660446643829
1772649393436387000,0.370386962890625,0.0821428611576557,0.2723081440083682,-0.0670139368152245,-0.0295072551816701,0.0012931614182889,0.217175155878067
1772649393446359000,0.380359130859375,0.2367553307205438,0.3499154075630009,0.0303590075043961,-0.0058589186519384,0.0045129228383302,0.1633790433406829
1772649393456331000,0.3903310546875,0.3133352970540523,0.4064904044829309,0.0406863402513787,0.0051370249129831,0.0169673934578895,0.0934629067778587
1772649393466302200,0.40030224609375,0.2457914546132087,0.4117543163605034,-0.0573079508369788,0.0025340509600937,0.0618909262120723,0.0308559853583574
1772649393476274000,0.41027392578125,-0.0019300912797451,0.4740213874422013,-0.1282725980393588,0.0092667192220687,0.1420684307813644,-0.0060200686566531
1772649393486246100,0.42024609375,-0.1503963131725788,0.5179031992666423,-0.1818055969148874,0.0258361082524061,0.2040913254022598,-0.0043454733677208
1772649393496217000,0.430217041015625,-0.151928929567337,0.5519387398593127,-0.188950390635617,0.0397826135158538,0.2063685208559036,0.0269633270800113
1772649393506189000,0.44018896484375,-0.0228337630987167,0.5428932636164129,-0.1924083125371485,0.051766037940979,0.1586867421865463,0.0674132779240608
1772649393516161000,0.4501611328125,0.1172679505527019,0.4630627710543573,-0.2247171754676848,0.0489180088043212,0.1004940271377563,0.0925681218504905
1772649393526132200,0.46013232421875,0.2791343367666006,0.3709434364140033,-0.2667583095951937,0.0395040027797222,0.0394309386610984,0.0935447067022323
1772649393536104000,0.47010400390625,0.4279752371907234,0.2545711195267737,-0.3348183396635577,0.0224620122462511,0.0003390684723854,0.0703654512763023
1772649393546076200,0.480076171875,0.4172749794781207,0.1760522940851747,-0.3739881378721446,0.0105374418199062,0.018422732129693,0.0293557047843933
1772649393556048100,0.490048095703125,0.3828162450373172,0.1496715060293674,-0.3842167594850063,0.0097687859088182,0.0526207648217678,-0.0077981161884963
1772649393566019000,0.50001904296875,0.4382523010551929,0.1480770764447748,-0.3306519041664898,0.0179798454046249,0.0597002431750297,-0.0400726981461048
1772649393575991000,0.509990966796875,0.5059843595445156,0.0483892062462866,-0.2825113754516467,0.0216763466596603,0.053738247603178,-0.0564861632883548
1772649393585963000,0.519962890625,0.6145721600353717,-0.036024376322329,-0.306193371143844,0.0079586682841181,0.0328960828483104,-0.0702975764870643
1772649393595934200,0.529934326171875,0.772289609876275,-0.1236542905889451,-0.3388049250816926,-0.0080870576202869,0.0079258354380726,-0.0972925573587417
1772649393605906000,0.539906005859375,0.8899082735627889,-0.1640858158290386,-0.4287335082121193,-0.0286418665200471,-0.0083087943494319,-0.1449226588010788
1772649393615878100,0.549878173828125,0.9314297859966756,-0.1994767165534198,-0.5029002759240567,-0.0521897785365581,-0.0047717941924929,-0.2046475559473037
1772649393625849000,0.55984912109375,0.8740233066886663,-0.2059891671873629,-0.4695427807234227,-0.0710835754871368,-0.0132310595363378,-0.2581661939620971
1772649393635821000,0.569821044921875,0.7376169404238462,-0.1480560336567461,-0.3600049129661172,-0.0762703195214271,-0.0249621197581291,-0.3091912567615509
1772649393645793000,0.57979296875,0.5284300001084804,-0.1132251049026846,-0.2727594679724425,-0.076627716422081,-0.0442221015691757,-0.3409622311592102
1772649393655764200,0.58976416015625,0.1513829861223697,-0.0678882719643414,-0.2877455315117724,-0.0709319785237312,-0.0371577776968479,-0.3296753764152527
1772649393665736000,0.59973583984375,-0.2932996402412652,-0.0855610721033066,-0.342526210627146,-0.0782929509878158,0.0241098403930664,-0.2694218754768371
1772649393675708200,0.609708251953125,-0.5326332970172166,0.0560226237341761,-0.3023648988968692,-0.065726600587368,0.0561527088284492,-0.173452615737915
1772649393685680000,0.61968017578125,-0.5817080013096332,0.2823834016904235,-0.1201679645768366,-0.0023082117550075,0.0343406200408935,-0.0587305501103401
1772649393695651000,0.629651123046875,-0.5895365029782057,0.3234903419740498,0.0878822998587973,0.0715652406215667,0.0242739263921976,0.0509990938007831
1772649393705623000,0.639623046875,-0.5115203663617373,0.2797689083430916,0.1557680510724894,0.1423448622226715,0.0249266661703586,0.120947815477848
1772649393715595000,0.649594970703125,-0.295707870426774,0.3505575779240578,0.0996719237106852,0.1897187232971191,0.0233575422316789,0.1329879164695739
1772649393725566200,0.659566162109375,-0.2424853988051414,0.2297221441481262,0.0963741973395459,0.1982871890068054,0.0469254553318023,0.1443548202514648
1772649393735538000,0.669537841796875,-0.3303840470105409,0.1473839796140789,0.1437735705645755,0.2257264405488968,0.052307229489088,0.1623985320329666
1772649393745510100,0.67951025390625,-0.3971504753381014,0.2023312292017042,0.2435738881615921,0.2594793438911438,0.0272487457841634,0.1757889091968536
1772649393755481000,0.689481201171875,-0.4729582882553338,0.1949244600765406,0.3124211048185825,0.3180940747261047,0.0166436694562435,0.1846489459276199
1772649393765453000,0.699453125,-0.5748159037083387,0.1902048842087388,0.3853607784209772,0.3346131145954132,0.0408693812787532,0.2065859287977218
1772649393775425000,0.709425048828125,-0.6441437069565057,0.0703954324796795,0.1752069841011427,0.3345929384231567,0.0419380255043506,0.236937329173088
1772649393785396200,0.719396240234375,-0.6214210030168295,0.0713869277350604,0.0037491416667588,0.3377722203731537,0.0716008469462394,0.2262255549430847
1772649393795368000,0.729367919921875,-0.5106073431700467,-0.1459475170701742,0.0167516484397463,0.3212014138698578,0.1180680394172668,0.2313162684440612
1772649393805340200,0.739340087890625,-0.3280518046706914,-0.3358731459461152,0.0137797564894892,0.2963466644287109,0.1294072419404983,0.2140350192785263
1772649393815312100,0.74931201171875,0.0399736984699964,-0.1563286258310079,0.0772592538345605,0.2979500889778137,0.1186515837907791,0.1525828838348388
1772649393825283000,0.759282958984375,0.37587329403162,-0.4652442067466676,0.1492779401345178,0.2729467451572418,0.0671636238694191,0.1045346558094024
1772649393835255000,0.769255126953125,0.577836712834239,-0.5078967690370977,0.102480478325393,0.28294637799263,0.0056658433750271,0.0375826209783554
1772649393845227000,0.77922705078125,0.7985948484778403,-0.2515318979613483,0.1376163083101622,0.2794618904590606,-0.0214792247861623,-0.0447521992027759
1772649393855198200,0.7891982421875,0.7770493716239929,-0.4949481478758156,0.0337969460638239,0.2707062363624573,-0.0286870375275611,-0.0968675166368484
1772649393865170000,0.799169921875,0.6760960115343332,-0.0497590332947671,0.0504345031372271,0.3252597451210022,0.0076797595247626,-0.1623834073543548
1772649393875142100,0.80914208984375,0.5803010571211576,0.2072933816537261,0.1866189337470568,0.3655739426612854,0.0825958028435707,-0.2078451216220855
1772649393885113000,0.819113037109375,0.3143780841052532,0.0304373699702322,0.0027427593694999,0.4018648266792297,0.152183398604393,-0.2111975103616714
1772649393895085000,0.8290849609375,0.1942798785626888,0.4888438396513462,-0.041500889770966,0.449829638004303,0.2385228723287582,-0.2272171676158905
1772649393905057300,0.839057373046875,0.2221767702698707,0.4463179724805057,-0.0633384449065662,0.4778620600700378,0.2698954343795776,-0.2010095417499542
1772649393915028000,0.849028076171875,0.3214239109635353,0.8942962793886661,-0.0390954908633604,0.5893222093582153,0.2571824193000793,-0.2159578055143356
1772649393925000200,0.859000244140625,0.3419792077362537,1.1915531328231097,-0.0184371538412757,0.7144238948822021,0.2613177597522735,-0.1930407732725143
1772649393934972200,0.86897216796875,0.2486228786468505,1.5282796807281671,-0.1837300439051352,0.847880482673645,0.2534345686435699,-0.1980946063995361
1772649393944944000,0.878944091796875,0.1321615683019161,1.606328112179041,-0.6046804787592962,0.9257571697235109,0.2088058441877365,-0.1685910373926162
1772649393954915000,0.8889150390625,-0.1912280897766351,1.4136419325485825,-1.0507058615013956,0.9428484439849854,0.2130251675844192,-0.10257089138031
1772649393964887000,0.898886962890625,-0.264025030440092,1.346815882988274,-1.1058146583262831,0.9059348702430724,0.2551076710224151,-0.0356025099754333
1772649393974859000,0.90885888671875,0.0175789113104343,1.4183192767098545,-1.0220464609891176,0.8702182769775391,0.2685307562351227,0.0122758951038122
1772649393984830200,0.918830322265625,0.5090320566773414,1.5766282627031205,-0.7827653381180018,0.8961907625198364,0.2507027387619018,-0.0013435105793178
1772649393994802000,0.928802001953125,1.0130144287496805,1.4988187545746563,-0.5754825509235263,0.9432969093322754,0.1506771147251129,-0.0758370161056518
1772649394004774100,0.938774169921875,1.2729022132545709,1.1362258709419517,-0.6838329624619335,0.9604548215866088,-0.0404201373457908,-0.1657919436693191
1772649394014745000,0.9487451171875,1.0635264723688362,0.6119592741232365,-0.8531820325814187,0.9122942686080932,-0.127737209200859,-0.2342687398195266
1772649394024717000,0.958717041015625,0.7016010396689176,0.1775008854582905,-0.9279497618611902,0.8205291628837585,-0.1200822070240974,-0.2865404486656189
1772649394034689300,0.968689208984375,0.5977911211043596,-0.0695600776340812,-0.8060493292022496,0.7255105376243591,-0.1370808631181717,-0.3348759710788727
1772649394044660000,0.978659912109375,0.6280529883772135,-0.2350373478215187,-0.4867411682836711,0.6746169924736023,-0.1689269542694091,-0.4066052734851837
1772649394054632200,0.988632080078125,0.7521791342616081,-0.4623313880398869,-0.1751023912155069,0.6485126614570618,-0.1918179243803024,-0.5058347582817078
1772649394064604200,0.998604248046875,0.8051444162517786,-0.6439603862788528,-0.0302621960664167,0.6193065643310547,-0.2284257262945175,-0.6126559972763062
1772649394074576100,1.008576171875,0.541428013369441,-0.8620577052153646,-0.0924359811077825,0.5681086182594299,-0.2246857732534408,-0.6874637603759766
1772649394084547000,1.018547119140625,0.0176151516675949,-0.9638521192390472,-0.0966208473106846,0.5021336078643799,-0.1439078450202942,-0.6995854377746582
1772649394094519000,1.02851904296875,-0.2916203088521957,-0.7761980154916643,0.0672031392443925,0.4670407176017761,-0.0905984789133071,-0.6912422776222229
1772649394104491000,1.038490966796875,-0.2897854946404695,-0.5538574329622089,0.4161941619714722,0.4887707829475403,-0.0822606608271598,-0.6781030893325806
1772649394114462200,1.048462158203125,-0.2571329328387975,-0.5146791226536035,0.6688258744008839,0.5266624689102173,-0.1152033805847168,-0.6616989970207214
1772649394124434000,1.058433837890625,-0.348101490008831,-0.632572146302089,0.4745906386975199,0.5357561111450195,-0.1812449842691421,-0.6256938576698303
1772649394134406100,1.06840625,-0.6831506062209606,-0.907850319097191,0.1312650578536093,0.4969790875911712,-0.2071918100118637,-0.5335558652877808
1772649394144377000,1.078377197265625,-0.9305272841989992,-1.1277287492968142,-0.0099910134647041,0.4231173992156982,-0.2215454578399658,-0.4070785641670227
1772649394154349000,1.08834912109375,-0.9259218362301588,-1.2679852151185274,0.0033055443514138,0.3237826526165008,-0.2742361724376678,-0.2866352498531341
1772649394164321300,1.0983212890625,-0.8360235386401415,-1.323604957140237,0.1578313585441559,0.2345896363258361,-0.3013314306735992,-0.2017595171928405
1772649394174292000,1.1082919921875,-0.6864402954161166,-1.144786194016412,0.4252599503500386,0.1831710934638977,-0.2654156982898712,-0.171951025724411
1772649394184264200,1.11826416015625,-0.4508423180371522,-0.7661684966474771,0.779128808246553,0.1827236860990524,-0.2143019288778305,-0.2029116153717041
1772649394194236200,1.128236083984375,-0.271624984049797,-0.5646403639895841,1.0554325977623462,0.2198393195867538,-0.1553184390068054,-0.2541989982128143
1772649394204208000,1.1382080078125,-0.2662573195368051,-0.599688040766865,1.0395012344632295,0.2479037046432495,-0.1158466711640358,-0.3203729391098022
1772649394214179000,1.148178955078125,-0.3413958548903465,-0.8116344358582049,0.7649361783735453,0.2411758005619049,-0.0596920326352119,-0.3619431853294372
1772649394224151000,1.158151123046875,-0.4674041612595319,-1.1075192702870815,0.444080970676057,0.1746937036514282,-0.0292190797626972,-0.3543300032615661
1772649394234123000,1.168123046875,-0.4759218142360448,-1.338465257141739,0.0832112941067665,0.0619618445634841,-0.0366075560450553,-0.3008693158626556
1772649394244094200,1.17809423828125,-0.5081272167921066,-1.3757359802633524,-0.1523349165523424,-0.0319422781467437,-0.0712653994560241,-0.2172197103500366
1772649394254066000,1.18806591796875,-0.5425631548792124,-1.1183718690171838,-0.2042818152802065,-0.0501870550215244,-0.0710760876536369,-0.1290254890918731
1772649394264038100,1.1980380859375,-0.5912386307209729,-0.7711078527458012,-0.0616309651352465,-0.0169031340628862,-0.0356195569038391,-0.0466176941990852
1772649394274009000,1.208009033203125,-0.4863397478759289,-0.6142465082775801,-0.0252700868675485,0.0179627295583486,-0.0256670024245977,0.0312584117054939
1772649394283981000,1.21798095703125,-0.288234758067131,-0.633862039982155,-0.2188492698149755,0.0151773300021886,-0.0598923489451408,0.1053169220685958
1772649394293953300,1.227953369140625,-0.1538894159853458,-0.7500909298107028,-0.5165428341662511,-0.0312586463987827,-0.0948578119277954,0.1666882783174514
1772649394303924000,1.237924072265625,-0.1213888298749923,-0.7882524642921984,-0.7859539780914783,-0.1075424998998642,-0.1030909717082977,0.2210407257080078
1772649394313896200,1.247896240234375,-0.189258835530281,-0.6622822249110788,-0.9517322770521044,-0.1920575052499771,-0.081210508942604,0.2629283368587494
1772649394323868200,1.2578681640625,-0.2733177594423294,-0.4449851164415478,-1.0117840101718902,-0.2753286957740783,-0.0173332653939723,0.2980540990829468
1772649394333840100,1.267840087890625,-0.2347504206389188,-0.2254098704395815,-0.8837025507904589,-0.3388703465461731,0.0346653163433074,0.3177543878555298
1772649394343811000,1.27781103515625,-0.0861409908831119,-0.0666078402323648,-0.604744520438835,-0.3663773238658905,0.0509446859359741,0.3214609622955322
1772649394353783000,1.287782958984375,0.1271785191923379,-0.0246229115378111,-0.2972329976348206,-0.3668170571327209,0.0331878289580345,0.3033939003944397
1772649394363755000,1.297755126953125,0.3781459151387214,0.0032570290345698,-0.1012689653774723,-0.3722352385520935,-0.0123431710526347,0.266084611415863
1772649394373726200,1.307726318359375,0.4512853856295347,-0.0001982990510761,0.0199208347940817,-0.3874237835407257,-0.0544098950922489,0.2239385843276977
1772649394383698000,1.317697998046875,0.271966344833374,0.1685530609035864,0.189017281859368,-0.3867151141166687,-0.0472076423466205,0.1863619238138198
1772649394393670100,1.327670166015625,0.1004056630790233,0.501396958689019,0.3492067478369921,-0.3589582145214081,-0.0058531402610242,0.1487509906291961
1772649394403641000,1.33764111328125,0.0016477672070264,0.8154064286775886,0.5377833367241546,-0.2964479625225067,0.0392605438828468,0.1091727018356323
1772649394413613000,1.347613037109375,-0.0673562109142541,1.0225503188580274,0.6777311384554952,-0.2160029411315918,0.0838088989257812,0.0734372437000274
1772649394423585300,1.357585205078125,-0.0452279657363891,1.0997206523001193,0.7512835005961358,-0.1372748464345932,0.0986296609044075,0.0438905358314514
1772649394433556000,1.367555908203125,-0.0478495464116334,1.1419047202959656,0.7981758193481713,-0.0697701871395111,0.0793745368719101,0.0170610398054122
1772649394443528200,1.377528076171875,-0.1700777497202157,1.1907878475390374,0.7737712998013943,-0.0269063431769609,0.0636855885386467,0.0214110482484102
1772649394453500200,1.387500244140625,-0.2296118887066841,0.9742018830135464,0.5232979344496503,-0.0272910855710506,0.0471270903944969,0.0373168736696243
1772649394463472000,1.39747216796875,-0.090683895009756,0.7280763741403817,0.1600662779893726,-0.0427012033760547,0.0383152216672897,0.0340616926550865
1772649394473443000,1.407443115234375,0.1327788234174251,0.4894832700660452,-0.1779577989129349,-0.0610831715166568,0.022713603451848,0.0096875103190541
1772649394483415000,1.4174150390625,0.3280290083169937,0.1922665659788996,-0.5078920197967439,-0.0882713869214057,0.008906977251172,-0.0278968848288059
1772649394493387000,1.427386962890625,0.4322931003898382,-0.0920954423081129,-0.7728384759306908,-0.128634363412857,0.0066269068047404,-0.0762173905968666
1772649394503358200,1.437358154296875,0.5236000957340001,-0.3037277664816006,-0.9668253628961742,-0.1756069362163543,0.0077401082962751,-0.120867945253849
1772649394513330000,1.447329833984375,0.6340548591405153,-0.4364769984783604,-0.985409797987342,-0.2105786204338073,-0.0165115762501955,-0.173052430152893
1772649394523302100,1.45730224609375,0.6044955871790647,-0.5310825969764963,-0.9366491280801592,-0.235396608710289,-0.0367191061377525,-0.2183962017297744
1772649394533273000,1.467273193359375,0.4708586856275796,-0.5868312626075,-0.83819189565517,-0.2483680546283722,-0.0369508378207683,-0.24789959192276
1772649394543245000,1.4772451171875,0.3229249631762504,-0.5284244106179103,-0.7218574996255338,-0.2444918304681778,-0.020864013582468,-0.2686536014080047
1772649394553217300,1.48721728515625,0.1435030465275049,-0.3255491376673802,-0.5071924566926435,-0.2011883407831192,0.0526781603693962,-0.2928654253482818
1772649394563188000,1.49718798828125,-0.2072007349342107,0.0401423695677891,-0.191401327451691,-0.0940179526805877,0.2089151740074157,-0.3183731734752655
1772649394573160200,1.50716015625,-0.5107102190226316,0.3563454771431162,0.1761620015373453,0.0413571745157241,0.3280546367168426,-0.3240248560905456
1772649394583132000,1.5171318359375,-0.7828899143457412,0.2643655692397617,0.2709062778538093,0.1390651017427444,0.3926850259304046,-0.2773574888706207
1772649394593104100,1.527104248046875,-1.0685463463574647,-0.040376287921518,0.1762595436276867,0.1742971092462539,0.4296113848686218,-0.1711345613002777
1772649394603075000,1.537074951171875,-1.1074269888937474,-0.322513459765911,-0.0538958773711696,0.1372285634279251,0.4084672331809997,-0.0575092025101184
1772649394613047000,1.547047119140625,-0.8855985936701297,-0.5103005422431975,-0.3299351341992616,0.0584074966609478,0.3447420001029968,0.0323911756277084
1772649394623019000,1.55701904296875,-0.6890858414888381,-0.5823297864697873,-0.4767263355519622,-0.014990821480751,0.310020238161087,0.0946036800742149
1772649394632990200,1.566990234375,-0.474575075802207,-0.5409238632395863,-0.415645478580147,-0.0570945367217063,0.3079788386821747,0.1264752149581909
1772649394642962000,1.5769619140625,-0.2044359463959932,-0.4921641431804746,-0.3408055608469992,-0.0993402600288391,0.2791836857795715,0.1340364515781402
1772649394652934100,1.58693408203125,-0.0042453824847936,-0.5242524221628904,-0.1490481134340167,-0.1510706543922424,0.2109435349702835,0.1330424100160598
1772649394662905900,1.59690576171875,0.1181967558354139,-0.4079850269548595,0.0990267211423255,-0.1877999007701873,0.139191061258316,0.1327281594276428
1772649394672877800,1.6068779296875,0.1426204184740781,-0.217590355795063,0.3007683869530446,-0.1944199204444885,0.0919272974133491,0.1207330673933029
1772649394682849800,1.616849853515625,0.0692798724532127,-0.0008850940051488,0.4550453957501799,-0.1726850569248199,0.0903858542442321,0.1221037954092025
1772649394692820700,1.62682080078125,0.0841939484685659,0.1542577013084664,0.6186052149437368,-0.1432782858610153,0.0893183276057243,0.1282537281513214
1772649394702793000,1.63679296875,0.2126017171949148,0.2472809990512207,0.7953512634467333,-0.1050257086753845,0.0590261965990066,0.1412219852209091
1772649394712765000,1.646764892578125,0.3652437634676694,0.2708581643957644,0.9504971822991968,-0.0557649917900562,0.0016012680716812,0.1597698032855987
1772649394722737000,1.65673681640625,0.6104974579423665,0.2554477562308311,1.022874509311095,-0.0100150825455784,-0.0869299247860908,0.1376786082983017
1772649394732708000,1.6667080078125,0.8611451204150915,0.0622770810190588,0.9447725941073148,0.0275316908955574,-0.129357174038887,0.0775262638926506
1772649394742679800,1.6766796875,0.899369344869256,-0.141672506632097,0.724721656884998,0.0413010343909263,-0.1205106824636459,-0.0040559512563049
1772649394752652000,1.686652099609375,0.7583195367127656,-0.1627600836506113,0.4426757435206324,0.0399917811155319,-0.0764468014240264,-0.0588966123759746
1772649394762622700,1.696622802734375,0.580401010364294,-0.0867259876968339,0.2562850473051891,0.036365620791912,-0.0388597436249256,-0.0899075269699096
1772649394772595000,1.706594970703125,0.4545312356829643,-0.0927652678610757,0.198989517558366,0.0552674680948257,-0.0176101960241794,-0.1010042354464531
1772649394782567000,1.71656689453125,0.3785468971550464,-0.0885087063951417,0.1837245274798013,0.0758819282054901,-0.0052360855042934,-0.1112438216805458
1772649394792537900,1.726537841796875,0.3147358115017414,-0.0983289664028212,0.0923679391065612,0.0878156051039695,0.0077065643854439,-0.1168860346078872
1772649394802509800,1.736509765625,0.2331412318766117,-0.1255071884466335,0.0031657157556153,0.0983241721987724,0.0308763328939676,-0.1110137626528739
1772649394812481800,1.746481689453125,0.166386493986845,-0.1915975989424623,-0.1155144396825693,0.1043831780552864,0.0537842996418476,-0.1090637519955635
1772649394822452700,1.75645263671875,0.2461521046191453,-0.2543523256769404,-0.2857178798753768,0.0910601839423179,0.0562684945762157,-0.1206455752253532
1772649394832425000,1.766425048828125,0.2844634228348732,-0.2965359187487513,-0.3743029759749769,0.0760125815868377,0.0382603891193866,-0.1319811642169952
1772649394842397000,1.77639697265625,0.0974000515222549,-0.2260352905952371,-0.3831018205130472,0.0695410966873169,0.0602293387055397,-0.1085048764944076
1772649394852369000,1.786368896484375,-0.1256149231374263,-0.1353269187313504,-0.3262520617723465,0.0624699220061302,0.0963401496410369,-0.0696813464164733
1772649394862340000,1.796340087890625,-0.1986187845498323,-0.0464748057260178,-0.2625094747779891,0.0576474741101264,0.1035408079624176,-0.0313592590391635
1772649394872311800,1.806311767578125,-0.1500432619512081,-0.1038722432110458,-0.2412021723278798,0.0458759665489196,0.1063308492302894,-0.0146666271612048
1772649394882284000,1.816283935546875,-0.0536164393752813,-0.1269207267726771,-0.1755316494782455,0.0317473635077476,0.1035608947277069,-0.0144216157495975
1772649394892254700,1.826254638671875,0.0444639956265687,-0.0946765265761874,-0.1332437009828165,0.0088915321975946,0.1037787869572639,-0.027141636237502
1772649394902227000,1.83622705078125,0.0711748924195766,-0.0711355650561861,-0.1496882927673868,-0.0146502796560525,0.1004072278738021,-0.031521737575531
1772649394912198700,1.84619873046875,-0.0200496853381395,-0.1079731574575416,-0.183619751931075,-0.0499627813696861,0.1078670546412468,-0.0140132810920476
1772649394922169900,1.856169921875,-0.1288268709212541,-0.1129765187027864,-0.1087976621155627,-0.0720638185739517,0.1333148926496505,0.0153195736929774
1772649394932141800,1.866141845703125,-0.0960930605769157,-0.0217406523660756,0.0455938033740967,-0.093270406126976,0.1444461643695831,0.0234275553375482
1772649394942113800,1.87611376953125,0.0487006102830171,0.0544004841587506,0.2553958799131214,-0.0864021107554435,0.1328446418046951,0.013230312615633
1772649394952084700,1.886084716796875,0.1076087263256311,0.0483686749149113,0.3854169655876234,-0.0727859959006309,0.1181792020797729,-0.0003808492037933
1772649394962057000,1.896056884765625,0.1119043776929378,-0.0287962334333918,0.3501702225742861,-0.0592230483889579,0.1123356893658638,-0.0077346358448266
1772649394972029000,1.90602880859375,0.1875759970098733,-0.0482446284101344,0.2474697448226623,-0.0473996847867965,0.1104861572384834,-0.0207142662256956
1772649394982001000,1.9160009765625,0.2565484109491109,-0.1197224858316592,0.1625342024728655,-0.0472790449857711,0.0975876674056053,-0.0471818260848522
1772649394991972000,1.92597216796875,0.2925070285588502,-0.202977162422426,0.1122479304336011,-0.0477921925485134,0.0913097858428955,-0.0798230767250061
1772649395001943800,1.93594384765625,0.3388391561448574,-0.2840860043572262,0.0136983161505777,-0.0500705279409885,0.0664204135537147,-0.1072589606046676
1772649395011916000,1.945916015625,0.2705763517796993,-0.3452539550906047,-0.0523442457486875,-0.0429854467511177,0.0704710558056831,-0.1208110749721527
1772649395021886700,1.95588671875,0.1672936719596386,-0.4203079904984682,-0.0767789047054015,-0.0366500541567802,0.0766341388225555,-0.1164155304431915
1772649395031859000,1.96585888671875,0.126682260107994,-0.4796185133295133,-0.0930883258029818,-0.0264993626624345,0.1006675213575363,-0.1149532198905944
1772649395041830700,1.97583056640625,0.0989081179976463,-0.5599874601498246,-0.0763642320904415,-0.0205866117030382,0.1069682911038398,-0.1041873916983604
1772649395051801900,1.9858017578125,0.0672065733104944,-0.5448363970408215,0.0039443519991385,-0.0050816722214221,0.0961480736732482,-0.1005560755729675
1772649395061773800,1.99577392578125,0.0815799665778875,-0.4729425792295485,0.1421528009623289,0.0215249042958021,0.0484127774834632,-0.1038679853081703
1772649395071745800,2.005745849609375,0.0370049117922782,-0.3957084598362446,0.3407017716789618,0.0694960951805114,-0.038894884288311,-0.1118363067507743
1772649395081716700,2.015716796875,-0.2604682147413492,-0.3702514720944687,0.4134190712349489,0.1177544444799423,-0.1211809739470481,-0.0854582339525222
1772649395091689000,2.02568896484375,-0.7363865218460559,-0.3741046769239008,0.2883580556532368,0.1388288289308548,-0.1426843702793121,-0.0220514740794897
1772649395101661000,2.035660888671875,-1.1195113944411277,-0.2766933368226513,0.0883761934561189,0.1315682530403137,-0.1174815371632576,0.0829636231064796
1772649395111633000,2.0456328125,-1.2581541414558888,-0.0925190928139723,-0.0353046449297457,0.1131744310259819,-0.0696552246809005,0.198439359664917
1772649395121603800,2.055603759765625,-1.115363042590022,0.0634635325909592,-0.0249631398102268,0.0959395170211792,-0.0231234058737754,0.2877521812915802
1772649395131575800,2.065575927734375,-0.7828665334701538,0.1850849108465015,-0.0070321499593788,0.0888460874557495,0.029915103688836,0.3344139754772186
1772649395141548000,2.075548095703125,-0.298770180606842,0.3093237598577514,-0.0413046274133492,0.0790842697024345,0.0610495880246162,0.3303561210632324
1772649395151518700,2.085518798828125,0.2599620187848806,0.3802659760326147,-0.1092892724242527,0.0644972771406173,0.0609010681509971,0.277904212474823
1772649395161491000,2.095490966796875,0.7249766545593738,0.4610559612765908,-0.1609705698853358,0.0538574196398258,0.0381709858775138,0.1976762115955352
1772649395171462700,2.105462646484375,0.9323720352828502,0.4853645096356049,-0.2484412932685576,0.0367307402193546,0.0005784747190773,0.1062683761119842
1772649395181433900,2.115433837890625,0.951912017533183,0.4590502840099856,-0.4112312423344701,0.0138547178357839,-0.0355172120034694,0.0339968428015708
1772649395191405800,2.12540576171875,0.8773813849449157,0.4023280606390908,-0.6176623811356723,-0.0266729053109884,-0.0816927552223205,-0.031652994453907
1772649395201377800,2.135377685546875,0.7735638675957918,0.3181365598559379,-0.8324503563284873,-0.0865857675671577,-0.1117236241698265,-0.1042989641427993
1772649395211348700,2.1453486328125,0.7542115168720483,0.1400492710781283,-0.987052596758306,-0.1681562066078186,-0.1313421428203582,-0.1940585374832153
1772649395221321000,2.155321044921875,0.670105831208825,0.0030147264449857,-1.1523924312364309,-0.2506827712059021,-0.1564919799566269,-0.2756125330924988
1772649395231293000,2.16529296875,0.3693646427899599,-0.047124702735804,-1.2154093708373606,-0.326761782169342,-0.1692108213901519,-0.2914505302906036
1772649395241265000,2.175264892578125,-0.0168044198065996,-0.0123762281008064,-1.0521752764668315,-0.3845867216587066,-0.1415930390357971,-0.2451554834842682
1772649395251235800,2.18523583984375,-0.2056049901753664,0.0190141682779416,-0.8612031342126428,-0.4272356331348419,-0.0902592092752456,-0.1960306465625763
1772649395261207800,2.195207763671875,-0.1224310324043035,-0.0187095227755606,-0.6941242009822279,-0.4529692232608795,-0.0496609136462211,-0.1778974384069442
1772649395271180000,2.205179931640625,0.097187285554409,-0.0513145191084593,-0.3617095614595338,-0.4435415267944336,-0.0459384731948375,-0.1829799860715866
1772649395281150700,2.215150634765625,0.4356032478511333,-0.0773605131187941,0.0617523264925926,-0.4110208749771118,-0.0807073712348938,-0.2307815849781036
1772649395291123000,2.225123046875,0.6794231101304292,-0.1121408898625522,0.4205367212204262,-0.3657099604606628,-0.1354238241910934,-0.2985454797744751
1772649395301094700,2.2350947265625,0.5698714330434799,-0.1228634142058901,0.6402717608939856,-0.3106696307659149,-0.1486216485500335,-0.3520790040493011
1772649395311065900,2.24506591796875,0.3276379631727933,-0.1258401832606643,0.8052113440081476,-0.2513054609298706,-0.1503022462129593,-0.3898435533046722
1772649395321037800,2.255037841796875,0.1037561425507068,-0.1203093914746772,0.8482000794503838,-0.1909318715333938,-0.2120239436626434,-0.4051114618778229
1772649395331009800,2.265009765625,-0.3952724065065384,-0.2032960921784862,0.7564441712949425,-0.1392542421817779,-0.2169881463050842,-0.3459118902683258
1772649395340980700,2.274980712890625,-0.94136198194623,-0.3020337855126708,0.540561605798453,-0.1033609434962272,-0.1718771308660507,-0.2349787056446075
1772649395350953000,2.284952880859375,-1.0575146647334095,-0.3216103003811091,0.3510710804041475,-0.086197055876255,-0.1656634658575058,-0.121841937303543
1772649395360925000,2.294925048828125,-1.1129928063273429,-0.3915096564395353,0.1460783769082277,-0.0845376402139663,-0.1360493898391723,-0.016043335199356
1772649395370897000,2.30489697265625,-1.0915320851475,-0.4203864260295405,0.0119965446008369,-0.0839237719774246,-0.0923027321696281,0.1130450591444969
1772649395380867800,2.314867919921875,-0.9174532830923796,-0.3289108326528221,-0.0200244595653377,-0.0812353119254112,-0.0727679133415222,0.2083116620779037
1772649395390839800,2.32483984375,-0.6159831958770752,-0.2762686634034849,-0.0457279328814707,-0.075608991086483,-0.0544649995863437,0.2672281861305237
1772649395400812000,2.33481201171875,-0.2976239331811666,-0.3201792446646839,0.0516209729754365,-0.064722254872322,-0.0442368648946285,0.2914922535419464
1772649395410782700,2.34478271484375,0.063038932237029,-0.2906848363666795,0.1654110730834305,-0.0423731878399848,-0.0280712340027093,0.2737282514572143
1772649395420755000,2.3547548828125,0.3539303422927856,-0.1810027378330938,0.2331956837438978,-0.0133631043136119,-0.0232298728078603,0.2368988543748855
1772649395430726700,2.3647265625,0.5771662662267685,-0.0528191104185534,0.2780981255866587,0.0149365700781345,-0.015935668721795,0.1890101134777069
1772649395440697900,2.37469775390625,0.7049427513122558,0.0010510068902745,0.2790545677949674,0.0386741235852241,-0.0156259424984455,0.1270202398300171
1772649395450669800,2.384669921875,0.7199322306513786,-0.0214257503311615,0.1813050817805342,0.0474139153957366,-0.0149500928819179,0.0675462707877159
1772649395460641800,2.394641845703125,0.6514665971904993,-0.0212031753553543,0.0509375024896115,0.0357580557465553,-0.0191301889717578,0.0100020170211792
1772649395470612700,2.40461279296875,0.539665679872036,-0.0092883268217556,-0.0085011037005111,0.0221493989229202,-0.0053270850330591,-0.0318064056336879
1772649395480585000,2.4145849609375,0.3320166166484355,0.0053794006165582,-0.0419879609018564,0.0094615686684846,0.0101727787405252,-0.0514714531600475
1772649395490557000,2.424556884765625,0.0647112493634223,0.0078869447243865,-0.069115366073884,0.0037959162145853,0.0305992346256971,-0.04335817694664
1772649395500529000,2.43452880859375,-0.0994528923988342,0.0125232353560626,-0.1100343095047399,-0.0006683408282697,0.0511058419942855,-0.0203426107764244
1772649395510499800,2.444499755859375,-0.1049690254718065,0.0135487516120541,-0.147699018646311,-0.0054947957396507,0.0667740553617477,-0.0029701923485845
1772649395520471800,2.454471923828125,-0.0721563046723604,0.0505930729661136,-0.1197710011485032,-0.0011320053599774,0.0829242616891861,0.0116207348182797
1772649395530444000,2.464444091796875,-0.003522913429141,0.0525938183292746,-0.1057316986736841,0.0143163995817303,0.1148798763751983,0.016212411224842
1772649395540414700,2.474414794921875,0.0995657051235437,0.0200663716114591,-0.1582238832593895,0.0190954431891441,0.1140790656208992,-0.0035461131483316
1772649395550387000,2.484386962890625,0.1557996335208415,-0.0551375479953363,-0.2797791740087792,0.0094134174287319,0.1071078032255172,-0.0262002199888229
1772649395560358700,2.494358642578125,0.0337158071190118,-0.1169448286787141,-0.3147187142364681,0.0124917645007371,0.1529035121202469,-0.037171646952629
1772649395570329900,2.504329833984375,-0.0531552516043186,-0.0622142905816901,-0.2570007578264922,0.0166302733123302,0.1553669571876526,-0.036436129361391
1772649395580301800,2.5143017578125,-0.0979097546100616,-0.0548748236722312,-0.1962231946501881,0.008287388831377,0.1092631071805954,-0.0269249137490987
1772649395590273800,2.524273681640625,-0.2814753469347953,-0.0535690383032895,-0.1688538704810664,0.016115004196763,0.0948694720864296,0.0135923819616436
1772649395600246000,2.53424609375,-0.4369610922008752,0.0111373750548111,-0.0825725760781206,0.0266549959778785,0.0953451171517372,0.0743441507220268
1772649395610217000,2.544217041015625,-0.422817416036129,0.013166437763581,-0.1189435738810338,0.032289445400238,0.0914262756705284,0.1227044910192489
1772649395620189000,2.55418896484375,-0.372214187002182,-0.0691980850544292,-0.236896437957976,0.0277815125882625,0.0993353277444839,0.1552738845348358
1772649395630161000,2.564160888671875,-0.2067383781194686,-0.1493917849056888,-0.2786580610243603,0.0179747398942708,0.0916776359081268,0.1625242978334427
1772649395640131800,2.5741318359375,0.0287169759184122,-0.3329384807337075,-0.3642440118405968,-0.0163358282297849,0.0610946863889694,0.1374402493238449
1772649395650103800,2.584103759765625,0.1730132186502218,-0.4283593046048656,-0.4074870143048465,-0.0471631959080696,0.02206308580935,0.1038883849978447
1772649395660075800,2.59407568359375,0.1627016679942607,-0.3729890438321978,-0.3346063043480738,-0.0520109497010707,-0.0262170936912298,0.0906277075409889
1772649395670046500,2.60404638671875,0.116105921036005,-0.3994116982683539,-0.1355098740828223,-0.0529887080192565,-0.0876813903450965,0.0764795541763305
1772649395680018700,2.614018798828125,-0.0676128160238266,-0.4658541553385555,-0.0194371337972115,-0.0488685332238674,-0.1040515750646591,0.0818546116352081
1772649395689990400,2.623990478515625,-0.2682984699755907,-0.4029061162553727,0.0508475409175269,-0.0247894655913114,-0.1172297596931457,0.097949169576168
1772649395699961600,2.633961669921875,-0.2765004811316728,-0.3592334536695852,0.1987528409919701,0.0088784825056791,-0.1605748236179351,0.1122282370924949
1772649395709933600,2.64393359375,-0.1890823099195957,-0.4547547422405332,0.2536897153160534,0.0369266904890537,-0.2115363627672195,0.1245263367891311
1772649395719905500,2.653905517578125,-0.1528606574594974,-0.4771037174969911,0.3145430654086172,0.0543160662055015,-0.2512845695018768,0.1346607208251953
1772649395729877500,2.66387744140625,-0.1900987934857606,-0.3437354768190532,0.3967173446178436,0.0782717019319534,-0.251175969839096,0.1527747958898544
1772649395739848700,2.6738486328125,-0.1954313866853713,-0.2005630504854023,0.460131393777579,0.1018681079149246,-0.234723761677742,0.1815558522939682
1772649395749820400,2.6838203125,-0.0973246481984853,-0.0298417969635687,0.493418527155742,0.1201028078794479,-0.2196989804506302,0.2072032839059829
1772649395759792600,2.693792724609375,0.1199316168040037,0.1151715993279591,0.549586660307832,0.1422043889760971,-0.217875525355339,0.2128190845251083
1772649395769763600,2.703763671875,0.3504518525272607,0.201883047042787,0.58219070679266,0.1550290137529373,-0.2181857079267501,0.1879962831735611
1772649395779735600,2.713735595703125,0.5645470231503248,0.2020798117239028,0.5286149647539481,0.1520798206329345,-0.2166003286838531,0.1365362852811813
1772649395789707800,2.723707763671875,0.6499409950584173,0.195735191937536,0.4430675558498129,0.151733860373497,-0.2002681791782379,0.0852916464209556
1772649395799678500,2.733678466796875,0.673373308572173,0.2670642520055175,0.398960155108571,0.1551357805728912,-0.1961445361375808,0.0410839766263961
1772649395809650700,2.743650634765625,0.6066682550430298,0.2922401577835902,0.3493132769513875,0.1702889055013656,-0.2010360062122345,0.0020965442527085
1772649395819622400,2.753622314453125,0.4960246910661459,0.244396602721326,0.2213413058264181,0.1780168712139129,-0.1982452720403671,-0.0186718516051769
1772649395829593600,2.763593505859375,0.3393699020206928,0.1928334426140412,-0.0157581621566787,0.1745244115591049,-0.167384847998619,-0.0299826469272375
1772649395839565600,2.773565673828125,0.2212210769802332,0.104740112086758,-0.2872766901573166,0.1453300416469574,-0.1179507300257682,-0.0454787835478782
1772649395849537500,2.78353759765625,0.1217260990053415,-0.0216198572643101,-0.4976138964863493,0.0988555252552032,-0.0625990703701973,-0.042810246348381
1772649395859509500,2.793509521484375,0.0589987169355154,-0.0984256682429462,-0.5703399638706818,0.0624469183385372,0.0046055330894887,-0.0257034320384264
1772649395869480700,2.803480712890625,0.1500204655975103,-0.1277984046563506,-0.534739183255285,0.0296482183039188,0.0429457686841487,-0.0253765769302845
1772649395879452400,2.813452392578125,0.3520785769462585,-0.1208909268228337,-0.4388011671096086,0.0144942989572882,0.057156927883625,-0.0500829890370368
1772649395889424600,2.823424560546875,0.5249234532922507,-0.1244284350329078,-0.3143810797799378,0.0052124434150755,0.0540326908230781,-0.0840429365634918
1772649395899395600,2.8333955078125,0.5514806208282709,-0.1065729535371065,-0.2006461987242102,-0.0061387480236589,0.047316201031208,-0.1182621642947197
1772649395909367600,2.843367431640625,0.4489642492055892,-0.0209307972879149,-0.1191277165425941,-0.0095028020441532,0.0504839830100536,-0.1438319981098175
1772649395919339800,2.85333984375,0.2956529253691434,0.0916711159488186,-0.0142148051721975,-0.0087821502238512,0.0643771588802337,-0.158208280801773
1772649395929310500,2.863310546875,0.1118657992482185,0.1700263300602324,0.0715451139714568,-0.0091533716768026,0.0732637643814086,-0.158196285367012
1772649395939282700,2.87328271484375,-0.0266366625130176,0.1416096339963376,0.0760810038354247,-0.0099706947803497,0.0603580847382545,-0.1452581137418747
1772649395949254400,2.88325439453125,-0.2031517518043518,0.1040071033707819,0.0432029992474243,-0.0195701345801353,0.0323969051241874,-0.1163207218050956
1772649395959225600,2.8932255859375,-0.4690642034262418,0.0525894709477201,-0.0105069270975887,-0.025194464251399,0.0195950884371995,-0.0637371391057968
1772649395969197600,2.903197509765625,-0.7319628601849079,0.0245329682320356,-0.0400659798633307,-0.0316027104854583,0.0414980947971344,0.0213407650589942
1772649395979169500,2.91316943359375,-0.7734592381775379,0.016411566297803,-0.1330030606273561,-0.0376281142234802,0.0636862218379974,0.0904833525419235
1772649395989141500,2.9231416015625,-0.506593431353569,0.0208751946431584,-0.1745028361534699,-0.0445926561951637,0.0802325680851936,0.1198049113154411
1772649395999112700,2.93311279296875,-0.1711819115698337,-0.0528385138053447,-0.1761267475608736,-0.039674062281847,0.0855716690421104,0.1184935644268989
1772649396009084400,2.94308447265625,0.1544832902252674,-0.1330696047912351,-0.1704874995648861,-0.0308585800230503,0.0711720883846283,0.0961458161473274
1772649396019056600,2.953056640625,0.3535661851555108,-0.2004341816750355,-0.2149145607145503,-0.0348855443298816,0.0656910389661789,0.0622371099889278
1772649396029027600,2.963027587890625,0.4774269581019878,-0.2452721617131494,-0.2728856881679967,-0.0416654124855995,0.0490917861461639,0.0194376315921545
1772649396038999600,2.97299951171875,0.4431751444101333,-0.2517073275934904,-0.1923516139138489,-0.0375100821256637,0.0393539369106292,-0.0179944280534982
1772649396048971800,2.9829716796875,0.3433019807726145,-0.173472159665171,-0.0626905206581577,-0.0220706276595592,0.0448815859854221,-0.0415503047406673
1772649396058942500,2.9929423828125,0.2286941893398761,-0.1605459695314057,-0.0497436530625447,-0.0172468442469835,0.0561768487095832,-0.0504878722131252
1772649396068914700,3.002914794921875,0.138213707947731,-0.1874944927388802,-0.0818689395871013,-0.022627281025052,0.0664673522114753,-0.0520966537296772
1772649396078886400,3.012886474609375,0.0983452234178781,-0.1984496750606224,-0.0603331073444336,-0.0373929105699062,0.0800289660692215,-0.0409417375922203
1772649396088857600,3.022857666015625,0.0421779305160045,-0.1391032954649068,0.0647149026252329,-0.0396631546318531,0.100415900349617,-0.0219332296401262
1772649396098829600,3.03282958984375,0.0276227509409189,-0.0120613351990468,0.2957886075127869,-0.0200726725161075,0.1191453859210014,-0.0045268097892403
1772649396108801500,3.042801513671875,0.0950631330072879,0.0541606840535067,0.4975908078717067,0.0117397829890251,0.12437754124403,0.0057033956982195
1772649396118773500,3.0527734375,0.2124848128169774,0.0540060232147574,0.5555118856383487,0.0367189012467861,0.1277613639831543,-0.0091274818405509
1772649396128744700,3.06274462890625,0.290131531599164,0.0588600208508782,0.5409453444190323,0.0623259171843528,0.1175049841403961,-0.0408648177981376
1772649396138716400,3.07271630859375,0.2428694296866655,-0.0090554861802607,0.4675789333045482,0.0824756622314453,0.1157435700297355,-0.0685680881142616
1772649396148688600,3.082688720703125,0.0998725791156291,-0.1672049159639514,0.2748130395013838,0.0797502249479293,0.1123948916792869,-0.089180901646614
1772649396158659600,3.09265966796875,-0.0823427676439285,-0.2491478889016434,0.0523297605656087,0.065732941031456,0.1046930328011512,-0.0859765857458114
1772649396168631600,3.102631591796875,-0.220471719917655,-0.2414357436217367,-0.1141442655742168,0.0447547473013401,0.0963524654507637,-0.0748335123062133
1772649396178603800,3.112603759765625,-0.2678589095145464,-0.248664635429345,-0.2062837114208378,0.0293829813599586,0.073171243071556,-0.0582108609378337
1772649396188574500,3.122574462890625,-0.273601837080717,-0.2671279648914933,-0.226662555648107,0.0174818839877843,0.0453460291028022,-0.0406210795044899
1772649396198546700,3.132546630859375,-0.2977157031178474,-0.2383149995190091,-0.2991854286105372,0.0112825781106948,0.0185050927102565,-0.0147564588114619
1772649396208518400,3.142518310546875,-0.3561994562685489,-0.1887800390373915,-0.3565399037366732,0.0106064956635236,0.0129195842891931,0.0221206080168485
1772649396218490600,3.15249072265625,-0.3228928144723176,-0.1681786746332421,-0.3453826960368081,0.0059214630164206,-0.0006106051150709,0.0527142062783241
1772649396228461600,3.162461669921875,-0.1570791519373655,-0.1335075578170828,-0.3282615749638527,-0.003838456235826,-0.0188973359763622,0.0596093237400054
1772649396238433500,3.17243359375,-0.0489145452946424,-0.1128798351289704,-0.3246622352976351,-0.0175159201025962,-0.0215402580797672,0.0561203174293041
1772649396248405500,3.182405517578125,0.0003138882547616,-0.0425099937482736,-0.2901422539225779,-0.0241624601185321,-0.0048973402008414,0.05227567628026
1772649396258376700,3.192376708984375,0.1070709661871194,0.060533196493797,-0.2612859060660936,-0.0346585102379322,0.0170258022844791,0.0375151075422763
1772649396268348400,3.202348388671875,0.2632815185964107,0.0987207787320017,-0.1100372503804974,-0.0368110798299312,0.0182884819805622,0.0139997480437159
1772649396278320600,3.212320556640625,0.4135597583472728,0.1531916064469143,0.0900494330311194,-0.0205956231802701,0.0021521234884858,-0.0287927240133285
1772649396288291600,3.22229150390625,0.4693178859263658,0.1998045602682978,0.2645084483091719,0.0048918416723608,-0.0143285356462001,-0.0696274638175964
1772649396298263600,3.232263671875,0.4426525818407535,0.237480777184572,0.3398878980128094,0.0257952604442834,-0.0382999144494533,-0.1074344962835311
1772649396308235500,3.242235595703125,0.3254500977396964,0.222846449692361,0.2618014726391062,0.0358967930078506,-0.0626594871282577,-0.1308436244726181
1772649396318206500,3.25220654296875,0.0501888030141592,0.1536158414746634,0.157928443976771,0.038910161703825,-0.0667136162519455,-0.1236552149057388
1772649396328178700,3.2621787109375,-0.2338081713527441,0.0970398581740446,0.0446540931048803,0.0372876077890396,-0.0642053186893463,-0.0869442224502563
1772649396338150400,3.272150390625,-0.3999620256274938,0.0567644916100427,-0.0568413562385365,0.0277955681085586,-0.0603597089648246,-0.0389868207275867
1772649396348122600,3.28212255859375,-0.472364998537302,-0.0094362656587734,-0.1916698604610748,0.014150071889162,-0.051719918847084,0.0080684898421168
1772649396358093600,3.292093505859375,-0.4307914636552333,-0.0746496193254366,-0.2597108022364787,-0.0012496574781835,-0.0481347739696502,0.0430895909667015
1772649396368065500,3.3020654296875,-0.2667325358331203,-0.1554794799220748,-0.2366427006589248,-0.0152041558176279,-0.0612797513604164,0.0625071749091148
1772649396378037800,3.312037841796875,-0.0840413882553577,-0.1717370977671816,-0.1472345246734097,-0.0204820092767477,-0.0837885290384292,0.0569797791540622
1772649396388008700,3.3220087890625,0.0377139368444681,-0.1924872595248744,-0.0047471579944714,-0.00860914029181,-0.0937114804983139,0.0358772873878479
1772649396397980700,3.331980712890625,0.081946461802721,-0.2239592332398518,0.1050699285630136,0.003614502493292,-0.1050999537110328,0.0214610658586025
1772649396407952600,3.34195263671875,0.0959329015791416,-0.1988665122332051,0.0980642510520294,0.0072882738895714,-0.1131897643208503,0.0118988417088985
1772649396417923600,3.351923583984375,0.0925502734035253,-0.2214078865229152,0.0069280456975102,0.0025917897000908,-0.1131737828254699,0.0063967509195208
1772649396427895600,3.3618955078125,0.063878305670619,-0.1808734306313097,0.0012132117146626,-0.0005958597175776,-0.1045079976320266,0.0111293457448482
1772649396437867500,3.371867431640625,0.0364209744244813,-0.1097173707763664,0.0261294801758602,-0.0070377802476286,-0.0939767956733703,0.0124657191336154
1772649396447838500,3.38183837890625,0.0579167669177055,-0.0696802151487208,0.0185268231524154,-0.0127071775496006,-0.0840527117252349,0.0218745209276676
1772649396457810700,3.391810791015625,0.0279430689364671,-0.0442764006325975,0.0557129732631146,-0.0176108554005622,-0.0754733383655548,0.0326134525239467
1772649396467782400,3.401782470703125,-0.0199696058392524,-0.0025788375120609,0.1490448620310053,-0.0082928761839866,-0.0578065849840641,0.0476814582943916
1772649396477754600,3.411754638671875,-0.0054436523586511,0.0479423027290031,0.2325669025873765,0.0034189079888164,-0.0404310561716556,0.0516024306416511
1772649396487725600,3.4217255859375,0.0897983443468809,0.0469878880809992,0.1561664940718561,0.0082886684685945,-0.026002524420619,0.0462247021496295
1772649396497697500,3.431697509765625,0.1653594890266656,0.0185383309271186,0.0822995860893279,0.0089419418945908,-0.0147610548883676,0.0342146418988704
1772649396507669800,3.441669677734375,0.2010311063885688,-0.0088216956906951,0.0365288552457466,0.0046830745413899,-0.0040339222177863,0.0216140393167734
1772649396517640700,3.451640625,0.2286971119493246,-0.0059278374127112,0.0094132135767489,0.0069536855444312,0.0072458963841199,0.0007764031761325
1772649396527612700,3.46161279296875,0.193874804893136,-0.0088513053776696,0.0081005966082215,0.004228695295751,0.005848282482475,-0.0113378325477242
1772649396537584600,3.471584716796875,0.1223901158720254,-0.0294815853490494,0.0373651964720338,0.0115971295163035,0.005038680974394,-0.0138795534148812
1772649396547555600,3.4815556640625,0.0905441942781209,-0.0203679027081467,0.1110689863147214,0.0300434976816177,-0.0088608209043741,-0.0180448349565267
1772649396557527600,3.491527587890625,0.0848328308939933,-0.0240260964221321,0.1261799000764265,0.0420223958790302,-0.0194349028170108,-0.021123981103301
1772649396567499500,3.50149951171875,0.0070078329354524,-0.0988000362469814,-0.0001510989084839,0.0402412861585617,-0.01511369086802,-0.0280781108886003
1772649396577470500,3.511470458984375,-0.0830868640094995,-0.1155206684939563,-0.11784607923422,0.0315181016921997,-0.014124859124422,-0.0148129072040319
1772649396587442700,3.521442626953125,-0.2064239053428173,-0.0550679898904636,-0.2053138252090662,0.0240812133997678,-0.0024428693577647,0.012069659307599
1772649396597414400,3.531414306640625,-0.2606540927022695,-0.008672277282644,-0.1545299789112061,0.020513642579317,-0.0028482023626565,0.04128959774971
1772649396607386600,3.54138671875,-0.2311445051014423,0.0164086071557365,-0.0983720018269494,0.0242534689605236,-0.0037496360018849,0.0654506236314773
1772649396617357600,3.551357666015625,-0.0936766470849514,0.0367439410348422,-0.0316354206483811,0.037295501679182,-0.0205911993980407,0.0773445665836334
1772649396627329500,3.56132958984375,0.0390618443220853,0.0534564995732158,0.0228071308201178,0.0516863800585269,-0.0311916340142488,0.0855507850646972
1772649396637301800,3.5713017578125,0.1313438221782445,0.0290131093207746,0.0126333446670323,0.0642588958144187,-0.0483272112905979,0.0791775733232498
1772649396647272700,3.581272705078125,0.1960147395312786,0.0006738989398814,-0.1360160517729818,0.0616718344390392,-0.0664144903421402,0.080670490860939
1772649396657244000,3.591243896484375,0.1894470515787601,0.0540761841078288,-0.2938286690840497,0.063121922314167,-0.1173362582921981,0.088470883667469
1772649396667216100,3.601216064453125,0.1825707360684871,0.0835440514587797,-0.3004576587697491,0.0465467311441898,-0.1215600743889808,0.0782520323991775
1772649396677187000,3.61118701171875,0.1338929221391677,0.0177090770287439,-0.3875842631567269,0.0091535523533821,-0.1022186055779457,0.0527368150651454
1772649396687159000,3.621158935546875,0.1071826098680496,0.1031914213400334,-0.47880986382775,-0.0373826883733272,-0.0838705822825431,0.033500999212265
1772649396697131000,3.631131103515625,0.079529463788867,0.1499164207011461,-0.4041163688279688,-0.0816880986094474,-0.0693587511777877,0.0261040702462196
1772649396707103000,3.64110302734375,0.0302314721345901,0.2273410942304879,-0.2453651920251548,-0.111720971763134,-0.0598626434803009,0.0246640369296073
1772649396717074000,3.651073974609375,0.0704594376266002,0.3117644310081377,-0.0856526593768969,-0.1355093866586685,-0.0509876608848571,0.0234187431633472
1772649396727046000,3.6610458984375,0.1745113482534885,0.3300189400251954,0.0002393617138266,-0.1580434143543243,-0.0351317450404167,0.0026511959731578
1772649396737017900,3.671017822265625,0.3162427089333534,0.3180668556205928,0.1115290781071409,-0.1617404222488403,-0.0360846295952796,-0.0308433808386325
1772649396746989000,3.680989013671875,0.4195949468582868,0.2818626474856399,0.1725789554188027,-0.158323049545288,-0.045995082706213,-0.0765550285577774
1772649396756960800,3.690960693359375,0.3684218089818954,0.1752352968801744,0.1460085996076464,-0.1537474691867828,-0.0548383742570877,-0.103871077299118
1772649396766933000,3.70093310546875,0.2147948433250188,0.086921510268934,0.0290626840835437,-0.1567406952381134,-0.0440684556961059,-0.1140320226550102
1772649396776904000,3.710904052734375,0.0855997236132621,-0.0392127423011697,-0.1325061804885044,-0.1726429611444473,-0.0310818180441856,-0.1078122109174728
1772649396786876000,3.7208759765625,0.0031254385441541,-0.148293404342886,-0.2168568538887426,-0.1908186823129654,-0.0195935685187578,-0.1005509123206138
1772649396796848000,3.73084814453125,-0.0404056601464748,-0.2161563774691894,-0.2455705784041434,-0.208814725279808,-0.0025964747183024,-0.0878204703330993
1772649396806819000,3.740819091796875,-0.04408873257339,-0.2713676848204806,-0.260224505645968,-0.2190572321414947,0.0142959896475076,-0.0694344490766525
1772649396816791000,3.750791015625,0.0543324786901473,-0.2968352122225798,-0.2290383266024291,-0.2297130823135376,0.0274594631046056,-0.0681731775403022
1772649396826763000,3.760762939453125,0.203082193699479,-0.30930874495171,-0.0966818567829206,-0.2234401702880859,0.0343436747789382,-0.0807371586561203
1772649396836735000,3.77073486328125,0.2494014618039131,-0.2633372856379486,0.0993373031951487,-0.2132770270109176,0.0433976240456104,-0.0999516025185585
1772649396846706000,3.780705810546875,0.18372165966928,-0.1776469793980941,0.2319592555504292,-0.1876067966222763,0.0642751455307006,-0.1055425405502319
1772649396856678000,3.790677978515625,0.1170581071943044,-0.1020724637800827,0.3413304980365559,-0.1579194813966751,0.0733091160655021,-0.1016737669706344
1772649396866649900,3.80064990234375,0.1157493626832961,-0.0782725590629503,0.4036999335141852,-0.1229602620005607,0.0590288415551185,-0.0987294912338256
1772649396876621000,3.81062109375,0.0263940859287977,-0.1107634274968877,0.3859115441715344,-0.0936295390129089,0.060018204152584,-0.0838466808199882
1772649396886592800,3.8205927734375,-0.1029319666862487,-0.1190880969182588,0.3297878712156787,-0.0698770135641098,0.0688041597604751,-0.0623542889952659
1772649396896565000,3.83056494140625,-0.1378372758507728,-0.0808866322851739,0.3086186437956988,-0.0504897348582744,0.0772048309445381,-0.0411834903061389
1772649396906536000,3.840535888671875,-0.1305488724082708,-0.0810607467430643,0.2484056922322139,-0.0397647731006145,0.0861212536692619,-0.0272543840110301
1772649396916508000,3.8505078125,-0.123726332911849,-0.1202307915468234,0.1941515029426664,-0.0261477641761302,0.0775682479143142,-0.0176409054547548
1772649396926480100,3.860480224609375,-0.1281903265833854,-0.1484827711688354,0.116627168431133,-0.0191776286810636,0.0698572099208831,-0.0075287735089659
1772649396936451000,3.870451171875,-0.1599444782406091,-0.1756257757687941,0.0132137749034911,-0.0106539148837327,0.0597648918628692,0.0103223957121372
1772649396946423000,3.880423095703125,-0.186703890350461,-0.1675088308139704,-0.0389631331879645,-0.0021070323418825,0.0399626940488815,0.0339630097150802
1772649396956395000,3.89039501953125,-0.2674409763634204,-0.1637284720250405,-0.0717974082320928,0.0082912798970937,0.028320150449872,0.0585210807621479
1772649396966367000,3.900366943359375,-0.3399129228562116,-0.1828920952436514,-0.1018579077139496,0.0188377238810062,0.0094427838921546,0.0980643779039383
1772649396976338000,3.910337890625,-0.2554220372676849,-0.2481332684990018,-0.1401705045713111,0.0268612951040267,-0.0205590557307004,0.1176836192607879
1772649396986310000,3.920309814453125,-0.1016495256602764,-0.2849608509629964,-0.1581426529830321,0.02836768142879,-0.0446082949638366,0.1220591217279434
1772649396996281900,3.93028173828125,0.0450058474183082,-0.2644553298824467,-0.1199894114058464,0.0259418096393346,-0.0595518201589584,0.1138749569654464
1772649397006253000,3.940253173828125,0.0925444281846284,-0.1718525773730128,-0.0790142442757263,0.0232233498245477,-0.0716056153178215,0.1066250503063201
1772649397016224800,3.950224853515625,0.0540051464319229,-0.1279287530377507,-0.0853383327307179,0.021637437865138,-0.0703147798776626,0.1122792065143585
1772649397026197000,3.960197021484375,-0.0147550860613584,-0.1290858323846943,-0.0139860379176214,0.0201645698398351,-0.0526166707277298,0.1217493414878845
1772649397036168000,3.97016796875,0.0372743763834238,-0.0748752995737828,0.0084079455243423,0.0176646597683429,-0.044308140873909,0.121281161904335
1772649397046140000,3.980139892578125,0.1236047523587942,-0.029550084007997,0.0428340928697958,0.0090360110625624,-0.034916203469038,0.1129929572343826
1772649397056112000,3.990112060546875,0.1631347987145185,-0.0368437664138153,0.0514863320114091,0.0023826360702514,-0.0280998442322015,0.1040069162845611
1772649397066083000,4.0000830078125,0.1085965683192014,0.0016644260808825,0.0441556603297591,-0.0013487949036061,-0.0115233808755874,0.1036937609314918
1772649397076055000,4.010054931640625,0.0918371566981077,0.0202665429592132,0.082601820438914,0.0004062284715473,0.005834037438035,0.1063217669725418
1772649397086027000,4.020027099609375,0.1783674391597509,-0.0041596769627183,0.1106815213670954,0.0141706895083189,0.0080085331574082,0.0938460826873779
1772649397095999000,4.0299990234375,0.3060831339687109,-0.0194632272196933,0.0966871540125459,0.027415120974183,0.0050926376134157,0.0726196244359016
1772649397105970000,4.039969970703125,0.3852373347043991,-0.0745045848315581,0.0232925397168844,0.0356713011860847,0.0068259625695645,0.0456946454942226
1772649397115942000,4.04994189453125,0.3938467576175928,-0.1684475181698799,-0.0990780677370727,0.0267947167158126,0.0085418373346328,0.0193400047719478
1772649397125913900,4.059913818359375,0.290034500965476,-0.2170468235028907,-0.1965691585436463,0.0116100013256073,0.0241196732968091,0.0075752362608909
1772649397135885000,4.069885009765625,0.2047112562060356,-0.1917645712735131,-0.2093705532539636,0.0062168329022824,0.0344545990228652,-0.0035855397582054
1772649397145856800,4.079856689453125,0.1786941868960857,-0.1589221494555473,-0.1326498267428949,0.00317715248093,0.0319860726594924,-0.0108014112338423
1772649397155829000,4.0898291015625,0.1249929918467998,-0.1383558563647791,-0.0204125638337805,0.0113887432962656,0.0231331903487443,-0.0172587782144546
1772649397165800000,4.099800048828125,-0.0179372232288122,-0.0720412634579464,0.0068439110780134,0.0206635203212499,0.0225957185029983,0.001596899004653
1772649397175772000,4.10977197265625,-0.1699298656821251,-0.0381038860101252,-0.0040951968917623,0.0276484582573175,0.0200694445520639,0.0334656164050102
1772649397185744100,4.119744140625,-0.2661988673478365,-0.07971143275965,-0.0277948195721954,0.0296267736703157,0.029128024354577,0.0653663128614425
1772649397195715000,4.129715087890625,-0.1699427251636981,-0.1066930727854371,-0.0201135443545877,0.0288736317306756,0.0274337213486433,0.0780791789293289
1772649397205687000,4.13968701171875,0.0422387207925319,-0.1400702590672299,-0.0398345091950148,0.025139020755887,0.0165763609111309,0.069411776959896
1772649397215659000,4.149658935546875,0.1395160227179527,-0.1612132560674101,-0.0261975039107725,0.0245699044317007,0.0202579163014888,0.0562032982707023
1772649397225631000,4.159630859375,0.171308168298006,-0.1190992941657081,-0.0325955343848094,0.0200480204075574,0.0195671841502189,0.042789027094841
1772649397235602000,4.169601806640625,0.1836819121807813,-0.0691421079503372,-0.0458525273755192,0.0225918721407651,0.0126869082450866,0.0291781444102525
1772649397245574000,4.179573974609375,0.1824374650776386,-0.0919054361613467,-0.0525479333609342,0.0174231566488742,0.0058314455673098,0.0202131811529397
1772649397255545900,4.1895458984375,0.0897767170369625,-0.0726314479034394,-0.0783091282136738,0.0031619286164641,0.0114576397463679,0.0217154715210199
1772649397265517000,4.19951708984375,-0.0398357513040304,-0.0591264349684119,-0.0980718133039772,-0.008719359524548,0.0275228209793567,0.0336235873401165
1772649397275488800,4.20948876953125,-0.1205132160842418,-0.0278316809838637,-0.0337778029719367,-0.0111420368775725,0.0374761186540126,0.0537962354719638
1772649397285461000,4.2194609375,-0.0608376228004693,-0.0352104295909404,0.0170339177135378,-0.0137317907065153,0.0444278270006179,0.0581920370459556
1772649397295432000,4.229431884765625,0.0576706832021474,-0.063667950855568,0.0200824185639619,-0.0108646303415298,0.0513331405818462,0.0487569905817508
1772649397305404000,4.23940380859375,0.1672580161243677,-0.0979612290689721,-0.0022813524028286,-0.0005328021943569,0.0500118844211101,0.0296725239604711
1772649397315376000,4.249376220703125,0.2941208934962749,-0.1325743503538891,-0.0684392569106072,-0.0009506521746516,0.0426282733678817,0.003764493856579
1772649397325347800,4.259347900390625,0.2977484363436699,-0.1803542655954137,-0.1193588218847289,6.2459148466e-06,0.0396502204239368,-0.0161133278161287
1772649397335319000,4.269319091796875,0.1591302392482757,-0.1965006233520805,-0.140981419095397,-0.0015692801680415,0.0542454086244106,-0.0170100145041942
1772649397345291000,4.279291015625,0.0501706828355789,-0.1605251642053946,-0.1277313673021271,-0.0074855526909232,0.0658030807971954,-0.0092449141666293
1772649397355263000,4.289262939453125,0.0658686027050018,-0.1292340269500389,-0.1213704905007034,-0.0118845617398619,0.0702063515782356,-0.0119267171248793
1772649397365234000,4.29923388671875,0.0682709876716136,-0.078262074201554,-0.0318618863480165,-0.0029662277083843,0.0766837671399116,-0.0105745093896985
1772649397375206000,4.309205810546875,0.0539174681484699,-0.035235564032197,0.0246169201884418,0.0081878900527954,0.079661451280117,-0.0082279983907938
1772649397385177900,4.319177734375,0.0949392143666744,0.0287006823707371,0.0760858261410147,0.0182301364839077,0.0799437463283538,-0.0152920326218009
1772649397395149000,4.329149169921875,0.1409025086402893,0.0186922063145786,0.0962331266347318,0.0336397215723991,0.0661818608641624,-0.0281191486865282
1772649397405120800,4.339120849609375,0.1401601658403873,-0.0425327353030443,0.0774243812683969,0.0460044592618942,0.0375571846961975,-0.0452855825424194
1772649397415093000,4.349093017578125,0.08414894028306,-0.0475168803911656,-0.0010214885348454,0.0468396283686161,0.0176423322409391,-0.0519546717405319
1772649397425064000,4.35906396484375,-0.0862251620352268,-0.0690833635004237,-0.1156719500655308,0.0423245579004287,0.0193139519542455,-0.0364870689809322
1772649397435036000,4.369035888671875,-0.1460644214481115,-0.080785455199331,-0.228158000103943,0.0287341754883527,0.0189344510436058,-0.0213965307921171
1772649397445008100,4.379008056640625,-0.1031616837888956,-0.0893655424201861,-0.3049617652559653,0.0155571214854717,0.0022279098629951,-0.0157969687134027
1772649397454979800,4.388979736328125,-0.0980383494257926,-0.1222573198052123,-0.3025607685288414,1.0663643479e-06,-0.0068081957288086,-0.0038902417290955
1772649397464951000,4.398950927734375,-0.1313040746897459,-0.0796995231261476,-0.2588964719126,-0.0094357412308454,-0.0169733092188835,0.0063753728754818
1772649397474923000,4.408923095703125,-0.161505736207962,-0.0337247210778295,-0.1865828577866777,-0.0079885795712471,-0.0303692761808633,0.0198483038693666
1772649397484895000,4.41889501953125,-0.1383732824236154,-0.047771768467687,-0.1209170111121609,-0.0038251925725489,-0.0443144962191581,0.033656857907772
1772649397494866000,4.428865966796875,-0.0897457373768091,-0.0706323830407112,-0.0655471156656742,0.0019496059976518,-0.0572707802057266,0.0435225367546081
1772649397504838000,4.438837890625,-0.0126163204669952,-0.0868670036027207,-0.0320381562303751,0.0038722972385585,-0.0714216232299804,0.0457219295203685
1772649397514809900,4.448809814453125,0.0095633626371622,-0.0892639086766168,-0.0412407957963645,-0.0027232877910137,-0.0764683112502098,0.0429373271763324
1772649397524781000,4.458781005859375,-0.0336684608459472,-0.0755534728299826,-0.0951115752588957,-0.01015580072999,-0.0653470456600189,0.0578746609389781
1772649397534752800,4.468752685546875,-0.0451677599817514,-0.0502151064991951,-0.1510407120233401,-0.0259613953530788,-0.0472535267472267,0.0665043666958808
1772649397544725000,4.47872509765625,0.0717377869993448,-0.0650931978857144,-0.1262093088340014,-0.0453878864645957,-0.0369462147355079,0.0665982365608215
1772649397554696000,4.488696044921875,0.2029512607961893,-0.0827882463891059,-0.0475796799616888,-0.0492060594260692,-0.0150465108454227,0.0505553521215915
1772649397564668000,4.49866796875,0.3516530450105667,-0.0914510799899697,0.0791812348730862,-0.0488834977149963,-0.0132073778659105,0.0140652144327759
1772649397574640000,4.50864013671875,0.4161193797022104,-0.1158825606089085,0.175865575874038,-0.0367911495268344,-0.0111828437075018,-0.0233295634388923
1772649397584611800,4.51861181640625,0.3766998079836368,-0.1051494966052472,0.2753864189425483,-0.0227112211287021,-0.0122021157294511,-0.0462765432894229
1772649397594583000,4.5285830078125,0.2707598916530609,-0.1011450832694768,0.3078567925777286,-0.0082601103931665,-0.0087597146630287,-0.0550998635590076
1772649397604555000,4.538554931640625,0.118317751866579,-0.0979419033139944,0.3103581078741699,0.0119523629546165,-0.0029501332901418,-0.0545257106423378
1772649397614527000,4.54852685546875,0.0245411515384912,-0.0902357859160751,0.3092828798580914,0.0222761072218418,0.0038694236427545,-0.0496806204319
1772649397624498000,4.558497802734375,-0.035550621330738,-0.093868187601678,0.2243513012973591,0.0303865056484937,0.0237440261989831,-0.039610493928194
1772649397634470000,4.568469970703125,-0.0804910022974014,-0.0945788566216826,0.1202217588569968,0.0251126494258642,0.0443004369735717,-0.0271626133471727
1772649397644441900,4.57844189453125,-0.0351812034964561,-0.122484589222446,0.0526204871404916,0.0199695527553558,0.0547067373991012,-0.0231295228004455
1772649397654413000,4.5884130859375,0.014489128601551,-0.1199688435418531,0.0090208897909149,0.0208510588854551,0.0633012950420379,-0.0206623692065477
1772649397664385500,4.598385498046875,0.0736000737398862,-0.0954474561497569,-0.018749525992386,0.0203162860125303,0.0598309598863124,-0.0266107227653265
1772649397674357800,4.608357666015625,0.1436363175183534,-0.0781285109497606,-0.0336454087639227,0.0155028887093067,0.0516177713871002,-0.0335421338677406
1772649397684329500,4.61832958984375,0.132853642219305,-0.0343021921722218,0.0012669146632775,0.0202954858541488,0.0363889634609222,-0.0388449691236019
1772649397694300700,4.62830078125,0.0449216762661933,-0.0136734283044934,0.0044324294894933,0.0217863246798515,0.0155537202954292,-0.0337183848023414
1772649397704272400,4.6382724609375,-0.0870604438155889,0.0117109325924888,-0.03506543162968,0.0238264612853527,0.0203390158712863,-0.0187608487904071
1772649397714244600,4.64824462890625,-0.2393032616376876,0.0621029300285503,-0.0583843844294548,0.026696017012,0.0324617251753807,0.0184917151927948
1772649397724215600,4.658215576171875,-0.2319727726191282,0.0665412412695586,-0.0795585437528789,0.0323017127811908,0.0341149792075157,0.042763415724039
1772649397734187500,4.6681875,-0.052473699080944,0.0255259247921407,-0.0603701879518106,0.0364975221455097,0.0231512803584337,0.0419988222420215
1772649397744159500,4.678159423828125,0.1366062727510929,-0.0150878251470625,-0.0825831522710621,0.0364561900496482,0.0175403114408254,0.0273661166429519
1772649397754130700,4.688130615234375,0.2442044776827096,-0.0806335525732487,-0.0854732476893812,0.0348108895123004,0.0196873527020216,0.002582473680377
1772649397764102400,4.698102294921875,0.3411316509962082,-0.1027445908879861,-0.0534249719237908,0.0374058075249195,0.020595071837306,-0.0283350218087434
1772649397774074600,4.70807470703125,0.4083902467548847,-0.0933176410468295,-0.001391162097454,0.0361448004841804,0.0081011177971959,-0.0677980110049247
1772649397784045600,4.718045654296875,0.3402934466063976,-0.0876471576623618,-0.0314960121776908,0.0276167150586843,-0.0011540385894477,-0.0915204882621765
1772649397794017500,4.728017578125,0.1336503455549478,-0.0565414965091273,-0.0180537622805684,0.0176002997905015,0.0008731596171855,-0.0894288420677185
1772649397803989800,4.73798974609375,-0.1668488508015871,0.0119098892306908,-0.0110879783885553,0.0081835407763719,0.0272091832011938,-0.051329493522644
1772649397813961500,4.74796142578125,-0.3470867600083351,0.0594585895322263,-0.0212047371247783,-0.0014168880879878,0.052838385105133,-0.0106680840253829
1772649397823932700,4.7579326171875,-0.2692506561338901,0.0809334123026579,-0.0182556415282189,-0.0112509597092866,0.065316267311573,0.0142384404316544
1772649397833904400,4.767904296875,-0.0968470938146114,0.0542168529538437,-0.0074274100543931,-0.0158627554774284,0.0883227884769439,0.027427477762103
1772649397843876600,4.777876708984375,0.1472550925374031,0.0371780033368617,-0.0278687433249317,-0.0236601494252681,0.0865468382835388,0.015034700743854
1772649397853847600,4.78784765625,0.3855629133969545,-0.0168519122101366,-0.0796383309908211,-0.0364579707384109,0.0773011445999145,-0.014232107438147
1772649397863819500,4.797819580078125,0.4427279851645231,-0.0441500343065708,-0.1277911711979657,-0.0411566346883773,0.080181136727333,-0.0357458852231502
1772649397873791500,4.80779150390625,0.3693096977323293,-0.0981395447779446,-0.193667555350624,-0.0555369071662426,0.0810871422290802,-0.044611282646656
1772649397883762700,4.8177626953125,0.2327759056955576,-0.1752410142349079,-0.2973588890368118,-0.0762014985084533,0.0933108702301979,-0.0481696799397468
1772649397893734400,4.827734375,0.049890696850419,-0.1991660066364333,-0.2927614599776454,-0.0981097221374511,0.1207472905516624,-0.0406036376953125
1772649397903706600,4.83770654296875,-0.0982639748752117,-0.2331203352190554,-0.2426961189463734,-0.1166249141097068,0.1543193757534027,-0.0178257171064615
1772649397913677600,4.847677490234375,-0.1789554681807756,-0.2375998917859047,-0.1544863224325701,-0.1286570727825164,0.1764656901359558,-0.000738876115065
1772649397923649500,4.8576494140625,-0.1149929913580417,-0.2056919926053844,-0.0543069606564007,-0.1351605951786041,0.1802875250577926,0.006398239172995
1772649397933621800,4.867621826171875,-0.0126011228978633,-0.1804085895985364,0.0029819384202361,-0.1399356424808502,0.1831983625888824,0.0036005887668579
1772649397943593500,4.877593505859375,0.0285819513618946,-0.1609662225037813,0.0126416010387241,-0.1470973193645477,0.196648821234703,0.0028146172408014
1772649397953564700,4.887564697265625,0.1118108541905879,-0.1040174969006329,0.0157061945074237,-0.1534976959228515,0.2051083445549011,-0.0046747247688472
1772649397963536400,4.897536376953125,0.1805196487575769,-0.1092348844890482,0.0175189704172778,-0.1620619148015976,0.2042888402938842,-0.0215995982289314
1772649397973508600,4.907508544921875,0.2051110691785812,-0.0975639003144577,0.0470667528703343,-0.1671719849109649,0.217291459441185,-0.0445515178143978
1772649397983479600,4.9174794921875,0.2286743155956268,-0.0440021320021711,0.1047091872255317,-0.1628511250019073,0.219353437423706,-0.0625268146395683
1772649397993451500,4.927451416015625,0.1477864229351282,0.0330910445504821,0.1414767009322065,-0.1423157453536987,0.2172703146934509,-0.0730340555310249
1772649398003423700,4.937423828125,0.0792909788578748,0.0633159042811952,0.1379544359570369,-0.1211399435997009,0.2079815119504928,-0.0796615555882453
1772649398013394700,4.947394775390625,0.0477186135083436,0.0307796258029527,0.0581416343152988,-0.1063636615872383,0.1875619888305664,-0.0903442949056625
1772649398023366700,4.95736669921875,0.0271978035271167,0.0050684989033266,-0.0073542346495058,-0.0933940634131431,0.1604102700948715,-0.0963923335075378
1772649398033338600,4.967338623046875,-0.0681762951254844,-0.0286765160438604,-0.0765485848145559,-0.0880347192287445,0.1442230492830276,-0.0909384489059448
1772649398043309600,4.9773095703125,-0.1469949802964925,-0.0804945094287395,-0.1682012335249222,-0.0920591428875923,0.1200786903500557,-0.0734359920024871
1772649398053281500,4.987281494140625,-0.2514712538152933,-0.1086502164688892,-0.1928089474936015,-0.0906940028071403,0.1016706526279449,-0.0508063174784183
1772649398063253800,4.997253662109375,-0.2677139480859041,-0.1334218522950075,-0.1229413200139999,-0.085812970995903,0.0760148912668228,-0.0357600823044776
1772649398073225500,5.0072255859375,-0.2534603818058967,-0.1647052629016339,-0.0551965162075357,-0.0732726827263832,0.0468050800263881,-0.0212969910353422
1772649398083196700,5.01719677734375,-0.2541962948650121,-0.193094340306241,-0.0525126108858035,-0.062035571783781,0.0139140337705612,-0.001935554202646
1772649398093168400,5.02716845703125,-0.3265057442724705,-0.1703118872696533,-0.0632811252287589,-0.0547997616231441,-0.0102517567574977,0.0323356017470359
1772649398103140600,5.037140625,-0.3981511768132448,-0.1673753040947951,-0.0361077026576502,-0.0423063300549984,-0.0060557136312127,0.0700458735227584
1772649398113111600,5.047111572265625,-0.2983902413785457,-0.1376188473271206,0.1038117543286178,-0.0213957242667675,-0.0193038750439882,0.0918116196990013
1772649398123083500,5.05708349609375,-0.0997322938621044,-0.0897680405401624,0.2216808399790897,0.0008479673415422,-0.0417247042059898,0.0829078629612922
1772649398133055700,5.0670556640625,0.0736708008885383,-0.1236754977737553,0.2565991182230412,0.0271568037569522,-0.0723321437835693,0.0696514472365379
1772649398143026700,5.077026611328125,0.0800993726313114,-0.1341306216188706,0.2223236496609635,0.0464076176285743,-0.0899642780423164,0.0700391009449958
1772649398152998700,5.08699853515625,-0.0162970548063516,-0.1307997966957278,0.1727557732904329,0.0554410591721534,-0.0777957588434219,0.0788730680942535
1772649398162970600,5.096970703125,-0.0507879379510879,-0.0791299613435752,0.1963116035860031,0.0655281096696853,-0.0701304674148559,0.0875255540013313
1772649398172942600,5.106942626953125,-0.0070399816393852,-0.0192779885795898,0.2025260759203694,0.0742768570780754,-0.064821183681488,0.0840509310364723
1772649398182913500,5.11691357421875,0.05662146641016,-0.0182325711798854,0.1813301431565545,0.0867239907383918,-0.0680193901062011,0.0769288912415504
1772649398192885800,5.1268857421875,0.0679062460124492,-0.0262578192632645,0.1512865034779533,0.0966836810111999,-0.0600530728697776,0.077471375465393
1772649398202857500,5.136857421875,0.0502946014761924,-0.0190757257394492,0.0901168813772965,0.0972463488578796,-0.0477886423468589,0.0808906406164169
1772649398212828700,5.14682861328125,0.1483522401243448,-0.0182836985789239,0.0315146757789654,0.1029543057084083,-0.0479212626814842,0.0719048753380775
1772649398222800400,5.15680029296875,0.2307376778662204,-0.0651298035690561,-0.0036702449113829,0.099794678390026,-0.0438159555196762,0.0509812533855438
1772649398232772600,5.166772705078125,0.3006301292598247,-0.0642191184649244,-0.0546367406000383,0.0908725559711456,-0.0470367819070816,0.0252045132219791
1772649398242743600,5.17674365234375,0.2917401358395814,-0.0574124706573784,-0.1608542865619063,0.0785512775182724,-0.0450179353356361,0.0035723836626857
1772649398252715500,5.186715576171875,0.1781406446665525,-0.0624712153516709,-0.2109205409086309,0.0561354495584964,-0.0352928675711154,0.0009984383359551
1772649398262687700,5.196687744140625,0.0935889688014984,-0.0554773378763347,-0.2174498148132115,0.0295095164328813,-0.0110890194773674,-0.0018044421449303
1772649398272658700,5.20665869140625,0.1242903965353965,0.0122372580215334,-0.1484896575673483,0.0171239543706178,-0.0028470689430832,-0.016880065202713
1772649398282630700,5.216630615234375,0.1453074656009674,0.042895504200831,-0.070316229763627,0.0060484097339212,0.0084526892751455,-0.0238656196743249
1772649398292602600,5.2266025390625,0.096161449638009,0.0579590351568534,-0.0204700227921945,-0.0026164511218667,0.0303483996540308,-0.0248171668499708
1772649398302574600,5.23657470703125,0.1294786128282546,0.0274788124255835,0.0372112480193376,-0.0080402372404932,0.0563669204711914,-0.027441531419754
1772649398312545500,5.246545654296875,0.2383902384459972,0.0401526352334767,0.0713847631774377,-0.0047706742770969,0.08018409460783,-0.0414992906153202
1772649398322517800,5.256517822265625,0.4097802398085594,0.0763449154686182,0.1077355036436114,0.0066397343762218,0.0840426981449127,-0.0761693790555
1772649398332489500,5.266489501953125,0.4651479067653417,0.0514477170340716,0.1366097433498129,0.0229334868490695,0.0682296454906463,-0.1084844395518302
1772649398342460700,5.276460693359375,0.2878834604114293,0.0087910082914866,0.087800046669133,0.0394361913204193,0.0556694716215133,-0.1160027384757995
1772649398352432400,5.286432373046875,0.037115386429429,-0.0294594465824775,0.0378323025271296,0.0498949587345123,0.0350462198257446,-0.1009707897901535
1772649398362404600,5.296404541015625,-0.2269067214012146,-0.0606654628376476,-0.0471931100632064,0.0585715025663375,0.0308589059859514,-0.0628328621387481
1772649398372375600,5.30637548828125,-0.4009814318031072,-0.0620827640233561,-0.1323749918568879,0.0519431605935096,0.0305459853261709,-0.0116045605391263
1772649398382347500,5.316347412109375,-0.4926104987084865,-0.0348575792989693,-0.2357973358759656,0.0400756895542144,0.040706917643547,0.0447465255856514
1772649398392318500,5.326318359375,-0.4621475559055805,-0.0103979685640893,-0.2768638710839673,0.029335955157876,0.0553375259041786,0.0978089421987533
1772649398402290700,5.336290771484375,-0.2901192566394805,0.0134455013001337,-0.2702124869033694,0.0168933421373367,0.0605877563357353,0.1311017721891403
1772649398412262700,5.3462626953125,-0.0159404964536428,0.0220796933284029,-0.2865603768478147,-0.0003841817378997,0.0632186979055404,0.1210334226489067
1772649398422233600,5.356233642578125,0.2551461429357528,-0.0091153996739536,-0.2527020742518827,-0.0239541344344615,0.0580055378377437,0.0895317941904068
1772649398432205600,5.36620556640625,0.4394125770062208,-0.0023338497750461,-0.2004444656070321,-0.0459358692169189,0.0526544488966465,0.0434742830693721
1772649398442177500,5.376177490234375,0.4949883337557315,0.0568593302866443,-0.1588246073652058,-0.0629288032650947,0.0417025573551654,-0.0017450535669922
1772649398452148700,5.386148681640625,0.4384650670230388,0.0889878316815942,-0.0470236672138562,-0.0684098526835441,0.0302565582096576,-0.0319556854665279
1772649398462120400,5.396120361328125,0.2203986546814441,0.0559131720103323,-0.0188783400038257,-0.0766359791159629,0.0476870872080326,-0.0416545458137989
1772649398472092700,5.4060927734375,0.0566629674643278,0.0148886858457699,-0.0157576370002934,-0.0823282226920127,0.0600947514176368,-0.0516105070710182
1772649398482064400,5.416064453125,-0.0422556719273328,0.0084888287408277,0.0307682047932175,-0.074542611837387,0.0589776635169982,-0.0573248267173767
1772649398492035600,5.42603564453125,-0.1399801330983638,-0.0541478428382426,0.084729790644627,-0.0621051229536533,0.0303771737962961,-0.0485683530569076
1772649398502007600,5.436007568359375,-0.3308241919934749,-0.1410492601672187,0.1028626825760118,-0.0453672744333744,-0.0044701257720589,-0.0159587673842906
1772649398511979500,5.4459794921875,-0.5280681810587644,-0.2068925457678735,0.0167774907004786,-0.0434833541512489,-0.0176623612642288,0.0368860699236393
1772649398521950500,5.455950439453125,-0.6126455758869648,-0.2569827837783843,-0.1338675867685116,-0.0463780090212821,-0.0256362818181514,0.0886477380990982
1772649398531922700,5.465922607421875,-0.5505979927748441,-0.2183464713919907,-0.2197424923276528,-0.0516089908778667,-0.0258296281099319,0.1371915787458419
1772649398541894700,5.475894775390625,-0.342036490881443,-0.1595674616217613,-0.2120708251886069,-0.0559435375034809,-0.0263207834213972,0.1610245704650879
1772649398551865600,5.485865478515625,-0.0796732561737298,-0.1088333362171426,-0.1577359718782827,-0.0536529533565044,-0.026138624176383,0.1620935648679733
1772649398561837600,5.495837646484375,0.2033493202030658,-0.0037493425961583,-0.0729908238343196,-0.0506796725094318,-0.0304797701537609,0.1426018178462982
1772649398571809500,5.5058095703125,0.4016057011812925,0.0585435935791581,-0.0395481619677273,-0.047169093042612,-0.0362151563167572,0.1072957590222358
1772649398581780700,5.51578076171875,0.4630781147539615,0.084634129984118,0.0035970609441632,-0.0473982095718383,-0.0315789431333541,0.0722265690565109
1772649398591752400,5.52575244140625,0.4224702100336551,0.1291136154407635,0.0937164585055317,-0.040090762078762,-0.0237239487469196,0.0415275134146213
1772649398601724700,5.535724609375,0.3680401161879301,0.1686940768094733,0.1261803750004619,-0.033290147781372,-0.0102502387017011,0.0169573221355676
1772649398611696400,5.5456962890625,0.3280710938930511,0.1264718322277069,0.0893374214373994,-0.0262639299035072,0.0004474129527807,-0.0088875908404588
1772649398621667600,5.55566748046875,0.3227706493973731,0.0859937644321471,0.0638524953759275,-0.0213355366140604,0.0050696413964033,-0.0338072851300239
1772649398631639600,5.5656396484375,0.3021393647789955,0.0275718244712799,-0.0161353477388853,-0.021547257900238,0.0091605233028531,-0.0494885109364986
1772649398641611500,5.575611572265625,0.1353261698126792,-0.0333077743073925,-0.0946959801953285,-0.0279385112226009,0.0216852556914091,-0.0446990206837654
1772649398651582500,5.58558251953125,0.0452455013930797,-0.0617879092626273,-0.1613528472011909,-0.0300456043332815,0.0168026164174079,-0.0381718799471855
1772649398661554000,5.595553955078125,-0.0149321961939334,-0.1155592469386756,-0.1759408330673351,-0.0322221592068672,0.0203888155519962,-0.0331520400941371
1772649398671526000,5.60552587890625,-0.0106254389107227,-0.1597172453559935,-0.1519315964484587,-0.0347138121724128,0.0174729209393262,-0.0352942869067192
1772649398681496800,5.615496826171875,0.0477133528113365,-0.1670614341063424,-0.1273217270553112,-0.0389517769217491,0.0125438245013356,-0.041397962719202
1772649398691469000,5.625468994140625,0.0462193148612976,-0.1844290407536551,-0.0835157934786751,-0.0472315475344657,0.0136879188939929,-0.0493067502975463
1772649398701441000,5.63544091796875,0.0701981563419103,-0.160242146012932,-0.0538231865942943,-0.0473371483385562,0.0049994271248579,-0.0576859153807163
1772649398711413000,5.6454130859375,0.0527612838506698,-0.1367093312667682,0.0203182731464505,-0.0398222394287586,-0.0100945709273219,-0.0623930506408214
1772649398721384000,5.655384033203125,-0.0652361500203609,-0.1205778057530522,0.0764296848423546,-0.0337291471660137,-0.016405476257205,-0.0526386424899101
1772649398731356000,5.66535595703125,-0.2358265254378318,-0.0565096765987575,0.0938823257248848,-0.0243393760174512,-0.0074194381013512,-0.0256011672317981
1772649398741328100,5.675328125,-0.270783857050538,0.0011539923407137,0.103185064664483,-0.0131344273686409,-0.0153032150119543,-0.0029556420631706
1772649398751298800,5.685298828125,-0.2875730792880058,-0.0059907283147796,0.0988075984989292,0.0017904601991176,-0.015141561627388,0.0242528095841407
1772649398761271000,5.69527099609375,-0.2097252849757671,-0.0242916337568312,0.0680591076197568,0.0100168976932764,-0.0154546350240707,0.0424567870795726
1772649398771244000,5.705244140625,-0.0338899946421384,-0.0720082745037972,-0.0026272477976279,0.0110938809812068,-0.0163995251059532,0.0379997193813324
1772649398781215000,5.715215087890625,0.1321037006348371,-0.0554851558566093,-0.0085029851303435,0.0129015380516648,-0.0175582077354192,0.0222412515431642
1772649398791187000,5.72518701171875,0.222000829181075,-0.065831923956424,-0.0123979878414655,0.018715750426054,-0.015996528789401,0.0004336904967203
1772649398801159000,5.735158935546875,0.2260749467521906,-0.0598280804317444,0.0067000958602642,0.0162415038794279,-0.0127517925575375,-0.0146562997251749
1772649398811130000,5.745130126953125,0.1866419310301542,-0.0995143402624875,-0.0242496486454736,0.0089971739798784,-0.007008952088654,-0.0236966684460639
1772649398821101800,5.755101806640625,0.1211918459981679,-0.0636725539654493,-0.0128811362824868,0.0062632905319333,0.004457926377654,-0.0267233252525329
1772649398831074000,5.765073974609375,0.1431488262623548,-0.0532134845975786,0.1065740129830315,0.0084681222215294,0.0167633276432752,-0.0373336263000965
1772649398841045000,5.775044921875,0.1801098989129066,-0.0499533137578517,0.1511216226392891,0.0212663374841213,0.0313539542257785,-0.0567250214517116
1772649398851017000,5.785016845703125,0.2231125898152589,-0.0633226080166176,0.1439342958179302,0.0321962162852287,0.0351510867476463,-0.0760257467627525
1772649398860989000,5.794989013671875,0.2434370004415512,-0.0651681262854486,0.108886491176486,0.0460974462330341,0.0371816679835319,-0.096022218465805
1772649398870961000,5.8049609375,0.167863580802083,-0.0866501094490289,0.0888027209056541,0.0527798496186733,0.0441966988146305,-0.0994081571698188
1772649398880931800,5.814931884765625,0.0767208361089229,-0.0823120802447199,0.060665937761683,0.06222939863801,0.0512051805853843,-0.0932224094867706
1772649398890904000,5.824904052734375,0.0193529352456331,-0.0971704074848443,0.0104364556772634,0.0647495537996292,0.0567157939076423,-0.0811026319861412
1772649398900876000,5.8348759765625,-0.0553121373772621,-0.0808215676923282,-0.0341968914671102,0.0561893098056316,0.0569794215261936,-0.0488694570958614
1772649398910847000,5.844846923828125,-0.1339326696276664,-0.0865143725064583,-0.0899751530853565,0.0559562854468822,0.0763094499707222,-0.0466696880757808
1772649398920819000,5.85481884765625,-0.1183329494357109,-0.1097223026798106,-0.0829386603110004,0.0454263985157012,0.092507392168045,-0.0286436453461647
1772649398930791000,5.864791015625,-0.1274795479655265,-0.0626104594255797,-0.138114960280992,0.0396089889109134,0.0753848627209663,-0.0157278478145599
1772649398940762000,5.87476220703125,-0.0899520736038684,-0.0644396841467358,-0.1250552434280514,0.0402880944311618,0.051073133945465,-0.0071660513058304
1772649398950733800,5.88473388671875,-0.1021153896063566,-0.0822103369032964,-0.119670773910731,0.0308373346924781,0.0330653712153434,0.0050504012033343
1772649398960706000,5.8947060546875,-0.1481441503316164,-0.0539119151905179,-0.1785121813926845,0.0234137587249279,0.0273068845272064,0.0305476747453212
1772649398970677800,5.904677734375,-0.0686649554252624,-0.0052649895898066,-0.1198075885655358,0.0177337676286697,0.0169495865702629,0.0355512239038944
1772649398980649000,5.91464892578125,0.0943359877765178,0.0042594475427642,-0.0716426012628711,0.0113182449713349,0.0065258364193141,0.0230635851621627
1772649398990621000,5.924620849609375,0.2207405999869108,0.0132358223385177,-0.0346814281476195,0.0060571692883968,-0.0058330949395895,0.004196953959763
1772649399000593000,5.934593017578125,0.2542944945424795,0.0395203104129992,-0.0216381144402083,0.0057883132249116,-0.0137658566236495,-0.0161685403436422
1772649399010563800,5.944563720703125,0.2111293065547943,0.0511870568038895,-0.0273327641515526,0.0029389970004558,-0.0174040012061595,-0.0266925543546676
1772649399020536000,5.9545361328125,0.1799801350533962,0.0205337059954181,-0.0981285210604313,-0.0027849259786307,-0.0321398377418518,-0.0393575690686702
1772649399030508000,5.964508056640625,0.0578700051665306,-0.0736879529527388,-0.104728348583728,-0.0092295091599226,-0.0330375880002975,-0.0334224477410316
1772649399040479000,5.97447900390625,-0.1139478662192821,-0.1193276047625578,-0.0476572752425447,-0.0129562932997941,-0.0373332798480987,-0.0163411498069763
1772649399050451000,5.984450927734375,-0.2390010638207197,-0.1069304800041951,0.0111050847869832,-0.0083024203777313,-0.0391551479697227,0.0127240568399429
1772649399060423000,5.9944228515625,-0.2941156327992678,-0.0890158156670629,0.0197038949746172,-0.0050285360775887,-0.0292746350169181,0.0431942269206047
1772649399070395000,6.004394775390625,-0.2224211004197597,-0.1007688703682273,0.003447866298398,-0.005624019075185,-0.0193325206637382,0.061743676662445
1772649399080365800,6.01436572265625,-0.036440263646841,-0.0953402877145446,0.0190059758383315,-0.0068834191188216,-0.0251251980662345,0.062871977686882
1772649399090338000,6.024338134765625,0.1075111111700534,-0.0847951474984176,0.0391673596563283,-0.0050927097909152,-0.028829388320446,0.0537884645164012
1772649399100309800,6.034309814453125,0.1353618256479501,-0.0906909458050504,0.1033506122234277,0.0021611722186207,-0.0227648597210645,0.0468545258045196
1772649399110281000,6.044281005859375,0.128491355356574,-0.0420115975057706,0.1221161851683165,0.0150865577161312,-0.0180790275335311,0.0478753149509429
1772649399120253000,6.0542529296875,0.1329939274728298,-0.0505319173634052,0.123968060112698,0.0251233093440532,-0.0142302867025136,0.0449178889393806
1772649399130225000,6.064224853515625,0.2325380052864551,-0.0890333878563717,0.0871735214017797,0.0289867557585239,-0.0058320080861449,0.0275309067219495
1772649399140195800,6.07419580078125,0.2933919946998357,-0.0886554213894531,0.0630708708784077,0.0302209705114364,-0.0022898307070136,0.0048228586092591
1772649399150168000,6.08416796875,0.2348971356332302,-0.1116814191246405,0.0644633481501135,0.0385606586933136,0.0057891346514225,-0.012233356013894
1772649399160140000,6.09414013671875,0.1731464896410703,-0.1142716182809323,0.0773212496874854,0.0386445634067058,0.011082099750638,-0.0230813808739185
1772649399170111000,6.104111083984375,0.1605132180392742,-0.1176681288514286,0.0644614393208175,0.0378168523311615,0.016977272927761,-0.0374169088900089
1772649399180083000,6.1140830078125,0.1033148285239934,-0.1182559021441265,0.0863422947420272,0.0416046530008316,0.0190423559397459,-0.042891401797533
1772649399190055000,6.124054931640625,0.0727647919595241,-0.0988928108306601,0.097514298152225,0.0487182214856147,0.0128646213561296,-0.0448403023183345
1772649399200027000,6.13402685546875,-0.0166144501924514,-0.0946152431093156,0.1289524335296824,0.0608668327331543,0.0148328151553869,-0.0325754061341285
1772649399209997800,6.143997802734375,-0.0630740035504102,-0.1318086449447087,0.0982460190934129,0.0720409303903579,0.0118916202336549,-0.023745160549879
1772649399219970000,6.153969970703125,-0.054653965729475,-0.1710023720181547,0.0728018725669011,0.0849677249789238,0.0165614821016788,-0.0132262920960783
1772649399229941800,6.163941650390625,-0.0549514873713254,-0.2243299479820765,0.0501387533273547,0.0879770964384079,0.0277574118226766,-0.0017193055246025
1772649399239913000,6.173912841796875,0.002780570629239,-0.2744643173952587,-0.0513342284559272,0.0793029144406318,0.0414702966809272,-6.06887624599e-05
1772649399249885000,6.183885009765625,0.0685661712259054,-0.2811538050965406,-0.1093304812174756,0.0685820952057838,0.0663207843899726,0.0021779644303023
1772649399259857000,6.19385693359375,0.1612719274520874,-0.2298633792497217,-0.1154443518547341,0.058929692953825,0.0787977054715156,-0.0050509688444435
1772649399269827800,6.203827880859375,0.2107552125453949,-0.1338051159915514,-0.0071261072865687,0.0644871741533279,0.0706915780901908,-0.0175763480365276
1772649399279800000,6.213800048828125,0.1926362030088901,-0.1123330514337867,0.1502182805913966,0.0847161784768104,0.0645962283015251,-0.0269383508712053
1772649399289772000,6.22377197265625,0.0940332054376602,-0.0306202705227769,0.2206824948578141,0.1023550927639007,0.045673131942749,-0.0234445501118898
1772649399299743000,6.233742919921875,-0.0686275460243225,0.0321937486508861,0.182775866719149,0.1164470538496971,0.0365918949246406,-0.0048254840075969
1772649399309715000,6.24371484375,-0.212500594907999,0.013467073811125,0.1313782359044998,0.1285468637943267,0.0338293984532356,0.0209525842219591
1772649399319687000,6.25368701171875,-0.3072159373909234,0.0200602432647719,0.0941114126398693,0.1287889927625656,0.0265873838216066,0.0485420115292072
1772649399329659000,6.263658935546875,-0.3720937754929065,0.0111728801930323,0.0077934851541183,0.1209915280342102,0.026438245549798,0.0856491699814796
1772649399339629800,6.2736298828125,-0.4064356055557727,-0.0174189715083688,-0.0933989443884231,0.1043548211455345,0.0457668527960777,0.122276559472084
1772649399349602000,6.28360205078125,-0.2619406253814697,0.000812741154991,-0.1663472214223817,0.0868573188781738,0.0557358637452125,0.1379886865615844
1772649399359573800,6.29357373046875,0.0062748424857854,0.0040375484203919,-0.2242783821916207,0.0759220570325851,0.0557998605072498,0.1283652037382125
1772649399369545000,6.303544921875,0.2504500940740108,-0.0364742755142971,-0.2454383668592199,0.0598655939102172,0.0517760924994945,0.0966504216194152
1772649399379517000,6.313516845703125,0.423386155834794,-0.0692854254111647,-0.249721304875426,0.0474945493042469,0.0331844948232173,0.0586042925715446
1772649399389489000,6.323489013671875,0.4767822304576635,-0.0672931556154042,-0.2173510306138545,0.0319912247359752,0.0177352298051118,0.0166376698762178
1772649399399459800,6.3334599609375,0.350742359906435,-0.0277760052738711,-0.1518099610964767,0.0196722820401191,0.014031826518476,-0.0066313855350017
1772649399409431800,6.343431884765625,0.181226335722208,0.0153012852346524,-0.1149574268543161,0.0106596136465668,0.0066508753225207,-0.0162818823009729
1772649399419404000,6.353404052734375,0.0486965186297893,0.0595282572349533,-0.1035772971187718,0.0076264082454144,0.0075731659308075,-0.0143677471205592
1772649399429376000,6.3633759765625,-0.0603694207668304,0.0464215594351291,-0.0586324226400814,0.006601623725146,0.0143889933824539,-0.0040679723024368
1772649399439347000,6.373346923828125,-0.0620388152837753,0.0427167135678231,-0.0032269992224872,0.0086979968473315,0.0017241789028048,0.0069143115542829
1772649399449319000,6.38331884765625,-0.0173217216789722,0.029460999218747,0.0206322162001393,0.0158856026828289,-0.0089329928159713,0.009500240907073
1772649399459291000,6.393290771484375,-0.0176531455904245,-0.0211467233272269,0.018787318985816,0.0207103639841079,-0.0115729589015245,0.0155748147517442
1772649399469261800,6.40326171875,-0.0021323358535766,-0.0433810957606881,-0.0653431175261735,0.0164194777607917,-0.0090019442141056,0.0153329987078905
1772649399479234000,6.413234130859375,0.0213192668825387,-0.0639615269746631,-0.0873168114631436,0.0189577136188745,-0.0138101782649755,0.0169567167758941
1772649399489205800,6.423205810546875,0.034903555598855,-0.0695572646224871,-0.0950733804066665,0.0149390026926994,-0.0208422560244798,0.0185905657708644
1772649399499177000,6.433177001953125,-0.0645230333149433,-0.1003263872977346,-0.100644330673106,0.0080413799732923,-0.0091472715139389,0.0338652618229389
1772649399509149000,6.44314892578125,-0.0910030439615249,-0.0757843589764088,-0.0842673790309578,0.005371029023081,0.0030108578503131,0.044028416275978
1772649399519121000,6.453120849609375,0.0414168830156326,-0.0304122355289757,-0.0322554887754842,0.0086020715534687,-0.0020175159443169,0.037003006786108
1772649399529091800,6.463091796875,0.1691021826863288,-0.0336794571639969,0.0152350150654092,0.0149406604468822,-0.0019778348505496,0.0191449150443077
1772649399539063800,6.473063720703125,0.2694885565429926,-0.0539098693639039,0.0558549755496904,0.0214479919523,-0.0103725586086511,-0.0036945480387657
1772649399549036000,6.4830361328125,0.2736211263030767,-0.0618541794318705,0.0005811243562027,0.0271423626691102,-0.0263792220503091,-0.02525470033288
1772649399559008000,6.493008056640625,0.1601905619561672,-0.102156452269107,-0.1040040711634792,0.0189634263515472,-0.0173515453934669,-0.0264575779438018
1772649399568979000,6.50297900390625,-0.0002659574598073,-0.1118070182656869,-0.175425083831232,0.0137841096147894,-0.0101162698119878,-0.0184204243123531
1772649399578951000,6.512950927734375,-0.039405543193221,-0.1092499176613986,-0.1053158022160176,0.0152903329581022,-0.0138238416984677,-0.0105770276859402
1772649399588923000,6.5229228515625,-0.0263315420866012,-0.124240310315974,-0.0109106216608081,0.0279038622975349,-0.026418462395668,-0.0053657544776797
1772649399598893800,6.532893798828125,-0.0542629205852746,-0.1266282283658161,0.0093617299846839,0.0421701595187187,-0.0341206267476081,0.0029397611506283
1772649399608866000,6.542865966796875,-0.0630552988499403,-0.1404200954182073,-0.0141811768972314,0.0506334193050861,-0.0465847477316856,0.0120251346379518
1772649399618837800,6.552837646484375,-0.0311556012421846,-0.1399920792644843,-0.0204473520193714,0.0535085722804069,-0.0614119358360767,0.0133502390235662
1772649399628809000,6.56280908203125,0.0052519291788339,-0.137232916749455,-0.0398958017950411,0.0488999746739864,-0.0703929141163826,0.0080955559387803
1772649399638781000,6.572781005859375,-0.0614484481751918,-0.1075074579082429,-0.0745033427225425,0.0394907444715499,-0.0837443321943283,0.0257727243006229
1772649399648753000,6.5827529296875,-0.1904693803638219,-0.0753973324202001,-0.1097515379074495,0.0277949385344982,-0.0809347033500671,0.0399244949221611
1772649399658724900,6.592724853515625,-0.1494020414382219,-0.0671921429263427,-0.0603393909547477,0.0201106052845716,-0.0772174149751663,0.0451770834624767
1772649399668696800,6.60269677734375,-0.1077665472358465,0.0276078456327319,-0.0108238566928077,0.0166836492717266,-0.0733856633305549,0.048012550920248
1772649399678668800,6.612668701171875,-0.0284328982800245,0.1271747928652912,-0.0121980585223063,0.0184108857065439,-0.0762938037514686,0.0484593324363231
1772649399688640800,6.622640869140625,0.0551022940188646,0.080185553077422,-0.01478388289758,0.0168084613978862,-0.0953178331255912,0.0413063503801822
1772649399698611700,6.63261181640625,0.106793902811408,0.0924530235741287,-0.0850083427245263,0.0075068599544465,-0.1204665005207061,0.0410504527390003
1772649399708584000,6.642583984375,0.0783919841915369,0.0493604258986189,-0.1468845513251144,-0.0043244995176792,-0.1045423969626426,0.0518272034823894
1772649399718556000,6.652555908203125,0.1186439150810241,0.0480910635499283,-0.1017557168479543,-0.0148939844220876,-0.1075694635510444,0.048614427447319
1772649399728526800,6.66252685546875,0.1631061571419239,0.035628947263956,-0.0560335332872578,-0.0158639084547758,-0.1058125793933868,0.0369260795414447
1772649399738498800,6.672498779296875,0.1073164653807878,-0.0363253685628995,-0.0656374699634034,-0.0230261012911796,-0.0805528834462165,0.0323460809886455
1772649399748470800,6.682470703125,0.1021171431720256,-0.0474260237699374,-0.1483732098471373,-0.0407353229820728,-0.0519484058022499,0.0284655913710594
1772649399758442000,6.69244189453125,0.1121831946343183,-0.0278717207333073,-0.2096721848153509,-0.0520006567239761,-0.0211908519268035,0.0237053856253623
1772649399768413700,6.70241357421875,0.1932137106359004,-0.0394341847658157,-0.1647374481381848,-0.0607416853308677,-0.024583451449871,0.0097442958503961
1772649399778386000,6.712385986328125,0.2865875753819942,-0.117166097613424,-0.0750397511541843,-0.0693491697311401,-0.0212003327906131,-0.0113889295607805
1772649399788357600,6.722357666015625,0.2904389901131391,-0.1330940633790567,0.0589709886783733,-0.0664050430059433,-0.02669976092875,-0.0380096212029457
1772649399798328800,6.732328857421875,0.2427683073997497,-0.0967542278993874,0.118803462157445,-0.0617001578211784,-0.0316698551177978,-0.05640409886837
1772649399808300800,6.74230078125,0.0719838707149028,-0.1477148920688778,0.0886325976362917,-0.0636248216032981,-0.0175851974636316,-0.0580323562026023
1772649399818272800,6.752272705078125,-0.0787958888173103,-0.1323230790065601,0.0521576645348686,-0.0737660303711891,0.0103184785693883,-0.0407057218253612
1772649399828243700,6.76224365234375,-0.1394341896533966,-0.1252288464292884,0.0930140093246009,-0.0738411322236061,0.0387154966592788,-0.0227168668061494
1772649399838216000,6.7722158203125,-0.0335562326431274,-0.1160284718856215,0.2002307680574245,-0.0582809709012508,0.051023706793785,-0.0248281098902225
1772649399848188000,6.78218798828125,0.1130570548593997,-0.1328767308339476,0.3398702527582645,-0.0318530909717083,0.049692653119564,-0.0399737767875194
1772649399858158800,6.792158935546875,0.196153855741024,-0.1685973749693483,0.3679603654826059,0.0029183165170252,0.0355671197175979,-0.0645344033837318
1772649399868130800,6.802130859375,0.2116974618315696,-0.2216337129017338,0.320766031576693,0.0328463874757289,0.0244883727282285,-0.0833299234509468
1772649399878102800,6.812102783203125,0.1445657073229551,-0.2866234869455918,0.2281680831065401,0.0511633343994617,0.0067453612573444,-0.0982733741402626
1772649399888074000,6.822073974609375,-0.0202601132184267,-0.3533554650142789,0.0801360148472711,0.0516400411725044,-0.017877958714962,-0.0962038338184356
1772649399898045700,6.832045654296875,-0.3056219461977482,-0.3373434376943856,-0.0344954268891131,0.0455772653222084,-0.0184233486652374,-0.0569217726588249
1772649399908018000,6.842017822265625,-0.5790554409742354,-0.2379828997541218,-0.0631085953731788,0.0403729155659675,-0.0060875872150063,0.0025711171329021
1772649399917989600,6.85198974609375,-0.6512976703643798,-0.122463071510382,-0.0064807677208911,0.0478314124047756,-0.0026798190083354,0.0589369721710681
1772649399927960800,6.8619609375,-0.545339049333334,-0.0930250147758051,0.1432300565387122,0.0588164217770099,-0.0251760724931955,0.0934880301356315
1772649399937932800,6.871932861328125,-0.4505880510151386,-0.0056538245106115,0.0914257446193136,0.0560749359428882,-0.0189428441226482,0.1277354657649994
1772649399947904800,6.88190478515625,-0.3114981447547674,0.0309298296622931,0.0136429372681071,0.0452068448066711,-0.0150391813367605,0.1385066211223602
1772649399957875700,6.891875732421875,-0.0925409210532903,0.0385608359973877,0.0422188105156645,0.0416303388774395,-0.0355454161763191,0.1373851895332336
1772649399967848000,6.901847900390625,-0.011848258703947,0.1101152292538434,-0.0156257359826238,0.0373828597366809,-0.0359371677041053,0.1347095072269439
1772649399977820000,6.91181982421875,0.0236304664343595,0.1875936422644183,-0.0832481098526623,0.0334604531526565,-0.0300200618803501,0.1352225095033645
1772649399987790800,6.921790771484375,0.0676239219397306,0.3129934248138219,-0.1245705103847198,0.0349925719201564,-0.0213365592062473,0.1326965093612671
1772649399997762800,6.9317626953125,0.1770183626383543,0.3724069696279242,-0.1990659255291335,0.0341106690466403,-0.0129394177347421,0.122486263513565
1772649400007734800,6.94173486328125,0.3317909911990165,0.4019657666653394,-0.266615978515055,0.023924347013235,-0.0020151315256953,0.1074900031089782
1772649400017706800,6.951706787109375,0.5447404989182949,0.3820676551597192,-0.3010039675408974,0.0119978170841932,-0.0124386847019195,0.0678554996848106
1772649400027677700,6.961677734375,0.7496955007523298,0.308543130874075,-0.3009429580686614,-0.0003968016244471,-0.0338228046894073,0.0105852857232093
1772649400037650000,6.97164990234375,0.8059247529745102,0.2219809919694438,-0.1968891477456316,-0.0142422653734683,-0.0476171895861625,-0.0582360737025737
1772649400047621600,6.98162158203125,0.6968003613889217,0.2333717161642387,-0.0091276535132172,-0.0125748608261346,-0.0497873984277248,-0.1134567186236381
1772649400057592800,6.9915927734375,0.4202689005970955,0.2364806784976273,0.0408947679708246,-0.0077105816453695,-0.0382839441299438,-0.1394173800945282
1772649400067564800,7.001564697265625,0.0782271490186452,0.1146702622096985,-0.0349216803440125,-0.0088813072070479,-0.0272925458848476,-0.1354809552431106
1772649400077536800,7.011536865234375,-0.1606488271176815,-0.0280890532784163,-0.1472490281227976,-0.0116319991648197,-0.0160742718726396,-0.1095422133803367
1772649400087507700,7.0215078125,-0.2062982331365346,-0.1409761949310079,-0.2316019665453582,-0.0261203944683074,-0.0266829747706651,-0.0953909754753112
1772649400097480000,7.03147998046875,-0.1872235303103923,-0.2702259674394503,-0.2637526615058072,-0.0371762178838253,-0.0335292629897594,-0.0841577500104904
1772649400107452000,7.041451904296875,-0.1866249798953533,-0.3188356480360031,-0.1643764693386852,-0.0426364950835704,-0.0354619175195694,-0.0673292353749275
1772649400117422800,7.0514228515625,-0.1322211895346641,-0.2557191205181181,-0.0392230262331664,-0.0323416404426097,-0.0588727742433548,-0.0584067814052104
1772649400127394800,7.061394775390625,-0.1059884316474199,-0.2436183848904445,0.1281168412220664,-0.0101327421143651,-0.0781117156147956,-0.0481235198676586
1772649400137366800,7.07136669921875,-0.1495586933046579,-0.1940492846772074,0.2754838331687264,0.0183379445225,-0.0911973342299461,-0.0299835912883281
1772649400147338800,7.0813388671875,-0.2094002908051014,-0.1216747706769034,0.2987547455756925,0.0453802160918712,-0.0799121856689453,0.0025948581751435
1772649400157309700,7.091309814453125,-0.1827215427160263,-0.0582500174600631,0.2430775925446301,0.0573978908360004,-0.0788833200931549,0.0289916507899761
1772649400167282000,7.101281982421875,-0.1088654483884573,-0.0757881583686918,0.0778695312200114,0.0591510497033596,-0.0628175288438797,0.0516405068337917
1772649400177253600,7.111253662109375,0.0208984111219644,-0.0966669149421155,-0.0048063773684203,0.0462269000709056,-0.0381962805986404,0.0578501857817173
1772649400187224800,7.121224853515625,0.2397434066206216,-0.0303418371738865,-5.89819119311e-05,0.0432585403323173,-0.0328249521553516,0.035809863358736
1772649400197196800,7.13119677734375,0.4343248984783888,0.0232766114953905,0.0821882438024971,0.047853335738182,-0.0276986453682184,0.0006444678292609
1772649400207168800,7.141168701171875,0.510845828101039,0.0485865189166739,0.1700449799617752,0.0591448731720447,-0.0285561829805374,-0.0395301170647144
1772649400217139700,7.1511396484375,0.4770756604462862,0.0805719951117411,0.1609166842736303,0.0639630779623985,-0.0252241026610136,-0.066459372639656
1772649400227112000,7.16111181640625,0.3193400904268026,0.1013201841080561,0.0564074583332985,0.0605843290686607,-0.0093884151428937,-0.0769479647278785
1772649400237084000,7.171083984375,0.1637087992101907,0.0585689472161233,-0.0859385910456534,0.0453690439462661,0.0149258412420749,-0.0670560300350189
1772649400247056000,7.181055908203125,0.0909650500386953,0.0274491844723001,-0.2329303290722891,0.0214647762477397,0.0411411970853805,-0.0648706406354904
1772649400257026800,7.19102685546875,0.1300181265324354,0.0012181436181068,-0.2930880433171987,0.000837632920593,0.0614303946495056,-0.0697259157896041
1772649400266998800,7.200998779296875,0.2696802797228098,0.0127367319762706,-0.2533175758017227,-0.0186175573617219,0.0632669106125831,-0.0923449397087097
1772649400276970800,7.210970703125,0.3573480417817831,-0.0031790684275329,-0.1992991314968094,-0.0310751292854547,0.055731326341629,-0.1189839467406272
1772649400286941700,7.220941650390625,0.2762900532513856,-0.0391815251789987,-0.1948866122841835,-0.0470261313021183,0.0539424791932106,-0.1331418305635452
1772649400296914000,7.230913818359375,0.1564858622193336,-0.0107749669166281,-0.1721488203732296,-0.0620808713138103,0.0539402216672897,-0.1382920145988464
1772649400306885600,7.2408857421875,0.0206476512312889,-0.0201550819413736,-0.1111816163763403,-0.0644643977284431,0.0562116317451,-0.1349883675575256
1772649400316856800,7.25085693359375,-0.0306873992085456,-0.0331441081782802,-0.045534204974235,-0.0657035186886787,0.0483342222869396,-0.1273531317710876
1772649400326828800,7.260828857421875,-0.0624631781756877,-0.0541234025167301,-0.0440127995266579,-0.064385250210762,0.0428012385964393,-0.1189559027552604
1772649400336800800,7.27080078125,-0.0704910018086433,-0.0817121233238838,-0.093785331623815,-0.067492626607418,0.0353534072637558,-0.1131931766867637
1772649400346771700,7.280771728515625,-0.0603016162276267,-0.0757801029263995,-0.1357355177985504,-0.0702705681324005,0.0303301569074392,-0.0989894717931747
1772649400356744000,7.290743896484375,-0.0766337423473596,-0.1087443610257469,-0.1740001107957214,-0.07906124740839,0.0386806577444076,-0.0949750542640686
1772649400366716000,7.3007158203125,-0.0519838697373867,-0.1396880548166111,-0.2326683354015462,-0.0975241437554359,0.0422120094299316,-0.0911310464143753
1772649400376686800,7.310686767578125,0.0256271932095289,-0.1682281032655388,-0.2206430396302603,-0.110233724117279,0.0373929589986801,-0.094033345580101
1772649400386658800,7.320658935546875,0.0962064578235149,-0.204637241121754,-0.1296857162402942,-0.1168189197778701,0.0259901043027639,-0.1038532182574272
1772649400396630800,7.330630859375,0.1017015481084585,-0.1970155506042763,-0.0195187887652544,-0.1066459491848945,0.0176413729786872,-0.1089236512780189
1772649400406602800,7.340602783203125,0.0634901831358671,-0.1535047092503867,0.0822112776182126,-0.0921570211648941,0.0143513027578592,-0.1076274886727333
1772649400416573700,7.35057373046875,0.0492021300643682,-0.1226151202669367,0.1268654985872563,-0.0758413672447204,0.0033496706746518,-0.1011482328176498
1772649400426546000,7.3605458984375,-0.0170370595186948,-0.1262505906924605,0.1071344507442321,-0.0641532838344574,0.0058937887661159,-0.0913989320397377
1772649400436517600,7.370517578125,-0.0222556709498167,-0.1432589538396336,0.0671225711217382,-0.0632901191711425,0.0077170096337795,-0.0836806893348693
1772649400446488800,7.38048876953125,0.018909283131361,-0.2004645950796082,0.009840051553538,-0.0692814290523529,0.0196077581495046,-0.088747888803482
1772649400456460800,7.390460693359375,0.0058984103888273,-0.2213252497407607,-0.0298873805378098,-0.0806088298559188,0.0234138891100883,-0.0854114666581153
1772649400466432800,7.400432861328125,-0.0440863944858312,-0.2126097909035161,-0.0463996718303067,-0.1009673625230789,0.0415739864110946,-0.0774012058973312
1772649400476403700,7.41040380859375,-0.0791243901193141,-0.2061620943351648,0.033689626931562,-0.0994117856025695,0.0458852723240852,-0.0756123512983322
1772649400486376000,7.4203759765625,-0.0887438668578863,-0.1632960719571448,0.11252186113731,-0.08074302226305,0.0451470427215099,-0.0597489699721336
1772649400496348000,7.430347900390625,-0.1501730258107185,-0.153622965335194,0.1669556539106182,-0.0615037195384502,0.0544792339205741,-0.0424077846109867
1772649400506320000,7.44031982421875,-0.0648328299164772,-0.151978833123669,0.0960245162521954,-0.0432637296617031,0.0386747047305107,-0.0312171801924705
1772649400516290800,7.450290771484375,0.0222924958288669,-0.1763667668618261,0.0308654591891914,-0.0321384854614734,0.0365134105086326,-0.0259751230478286
1772649400526262800,7.4602626953125,0.1393447578042745,-0.1994472712632268,0.0121140837330138,-0.0217484291642904,0.0210716035217046,-0.0340223982930183
1772649400536234800,7.47023486328125,0.2261900975644588,-0.2025877429797314,0.0345252352221985,-0.0152680482715368,-0.0274523831903934,-0.0428956747055053
1772649400546205700,7.480205810546875,0.0130050275236368,-0.1815079108762554,0.0278793240844504,-0.014512775465846,-0.0248611271381378,-0.0160712506622076
1772649400556178000,7.490177978515625,-0.2388379822134971,-0.1114530537288635,0.1033189384435303,-0.0162185747176408,0.005470426287502,0.0225850157439708
1772649400566149600,7.500149658203125,-0.2002688898444175,-0.0885192825880833,0.1508074877893552,-0.010901041328907,0.0206863973289728,0.0260612405836582
1772649400576120800,7.510120849609375,-0.0355535439401865,-0.1197263400228694,0.1776197260649874,-0.0018642991781234,0.0412144809961319,0.0150354141369462
1772649400586092800,7.5200927734375,0.128433487689495,-0.1295086700398009,0.138342284497153,0.0110823921859264,0.0495744124054908,-0.0076978607103228
1772649400596064800,7.530064697265625,0.3425917866766452,-0.1382944541668985,0.1594466482536867,0.0256389118731021,0.0277059096843004,-0.0479387193918228
1772649400606037000,7.540037109375,0.3962427128434181,-0.1395490025389474,0.1548826465400867,0.0350579805672168,0.0115455836057662,-0.0806218311190605
1772649400616007700,7.550007568359375,0.2950485297352075,-0.1162900088986381,0.0810019200947601,0.0388393960893154,0.0235242489725351,-0.1015874817967414
1772649400625980000,7.55997998046875,0.1863765580922365,-0.0913431261034682,-0.0246715501522412,0.039464708417654,0.0194807723164558,-0.1078384518623352
1772649400635951900,7.569951904296875,0.1553665028005838,-0.0822435998520813,-0.0690414697206113,0.0335622020065784,-0.0007519908249378,-0.1140908151865005
1772649400645922800,7.5799228515625,0.02648293325603,-0.161633636903949,-0.1397206419119611,0.0236081033945083,-0.0101308450102806,-0.0969104990363121
1772649400655894800,7.589894775390625,-0.2683925779998302,-0.1514755506434943,-0.214889864664711,0.0093544498085975,0.0190419852733612,-0.0466350317001342
1772649400665866800,7.59986669921875,-0.3461930260390043,-0.0791245179834775,-0.224476736041624,-0.0096586570143699,0.0405518040060997,-0.0113731790333986
1772649400675837700,7.609837646484375,-0.2065928321689367,-0.1235068906080443,-0.153511029393319,-0.0174017585813999,0.0423085205256938,-0.0016717092366889
1772649400685810000,7.619809814453125,-0.0701437958061695,-0.0835410101183224,-0.0933391130931209,-0.0129867689684033,0.0524104237556457,0.0011656226124614
1772649400695782000,7.629781982421875,0.0760357764542102,-0.0172469394097104,0.0603354271656833,0.0026365304365754,0.0259944908320903,-0.0115441661328077
1772649400705752800,7.6397529296875,0.1709159541100263,-0.006769845761382,0.1667557656906545,0.0141565650701522,-0.0015615022275596,-0.0244141593575477
1772649400715725000,7.64972509765625,0.1176665944814682,-0.008128941353294,0.125440306356037,0.0219127796590328,-0.0097356438636779,-0.0269579980522394
1772649400725696800,7.65969677734375,0.0174333653599023,-0.0393922087876126,0.0630031165715539,0.0172573085874319,-0.0107487104833126,-0.0217677634209394
1772649400735669000,7.6696689453125,-0.0581219341009855,-0.0762691650849766,-0.0106696205457439,0.01204848382622,0.0112598724663257,-0.0136630022898316
1772649400745639700,7.6796396484375,-0.0465980850458145,-0.0838790190341882,-0.0927913338840939,0.0097198151051998,0.0099645107984542,-0.0139229269698262
1772649400755612000,7.68961181640625,-0.0328302564561367,-0.117330540060671,-0.0670278192101046,0.0073624881915748,0.0115998648107051,-0.0024202743079513
1772649400765584000,7.699583984375,-0.1185848783701658,-0.100008370857127,-0.0938767545006237,0.0055166515521705,0.0199331622570753,0.0147637724876403
1772649400775554800,7.709554931640625,-0.1488426539897918,-0.0300865244056796,-0.1580500062635168,-0.0005621397867798,0.0296000968664884,0.0362592712044715
1772649400785526800,7.71952685546875,-0.0882867707401514,-0.001585501926043,-0.1152246172899846,-0.0009158076718449,0.0251446291804313,0.0494959838688373
1772649400795498800,7.729498779296875,0.0439408485352992,-0.0012500274605583,-0.0723959449474001,-0.00030885823071,0.0227317381650209,0.0450834855437278
1772649400805469700,7.7394697265625,0.183359840619564,0.0007848028352949,-0.0582470628845738,-0.002107290783897,0.0191969256848096,0.0243457164615392
1772649400815442000,7.74944189453125,0.2909329111099243,0.0095361367035191,-0.0012052841365337,-0.0009339535608887,0.0027535492554306,0.0005322999786585
1772649400825414000,7.759413818359375,0.2355722584158182,0.0549036570410709,0.0761713535665767,0.0110864900052547,0.0056457421742379,-0.0149904675781726
1772649400835385900,7.7693857421875,0.1049462291181087,0.0840430322231724,0.0354555406255414,0.0129137514159083,0.0085002705454826,-0.0152977360412478
1772649400845357000,7.779357177734375,0.0217547356903552,0.0642199678482953,-0.0553551454019267,0.0162030234932899,0.0079484637826681,-0.0143184922635555
1772649400855328800,7.789328857421875,-0.0202870012253522,0.0682817099950276,-0.0896989573593251,0.0108128217980265,0.0008719330653548,-0.003558387979865
1772649400865301000,7.799301025390625,-0.1468891818344593,0.0262651805858127,-0.1472025403662584,-0.0007322486490011,0.0187582559883594,0.0157521925866603
1772649400875271700,7.809271728515625,-0.1551531523108482,0.0308507822098676,-0.267872664045263,-0.0193561557680368,0.0255507882684469,0.0271900463849306
1772649400885244000,7.819243896484375,-0.0570300472110509,-0.0352827367753256,-0.2682860123528167,-0.0278777386993169,0.0178246907889843,0.0319712199270725
1772649400895215900,7.8292158203125,0.0641442631304264,-0.0431842397480271,-0.1309410865962505,-0.0324988104403018,0.0095619549974799,0.0204293932765722
1772649400905186800,7.839186767578125,0.1108107372373342,-0.0162929174873512,-0.0450334295449778,-0.0225345939397811,0.0101819382980465,0.0149480765685439
1772649400915158800,7.84915869140625,0.0832569598793983,0.0237020886321552,0.0186538150995271,-0.0092544490471482,0.0147647624835371,0.0088930632919073
