time,seconds_elapsed,acc_z,acc_y,acc_x,gyro_z,gyro_y,gyro_x
1772649469519676700,0.0636767578125,0.7350684249848127,-0.0111275432139635,0.1137512842012569,0.0619574226438999,-0.0409443862736225,-0.0758398249745369
1772649469529648600,0.073648681640625,0.577642651566863,0.0002577010881155,-0.0215903023762628,0.0431802757084369,-0.0274333730340003,-0.119266390800476
1772649469539620600,0.08362060546875,0.2489344288140535,-0.0169371793407946,-0.1828952553151175,0.0132894767448306,0.019199775531888,-0.1348987966775894
1772649469549591600,0.093591552734375,0.0639350042939186,-0.0526486903216689,-0.2778351272689178,-0.0204479806125164,0.0553029216825962,-0.1279269009828567
1772649469559563500,0.1035634765625,-0.0913239464789628,0.0012253770764917,-0.3204428640369325,-0.0430640168488025,0.0859403386712074,-0.1177612990140914
1772649469569535700,0.11353564453125,-0.064083472853899,0.0232565185554325,-0.2426645912969484,-0.0512710809707641,0.1006250083446502,-0.1078852266073226
1772649469579507700,0.1235078125,-0.0786409905165433,0.0557901301525533,-0.180390432887338,-0.0524864420294761,0.0909658670425415,-0.090853676199913
1772649469589478700,0.133478759765625,-0.2576566644519567,0.0965396353006362,-0.1479767578754574,-0.0438921526074409,0.1018004044890403,-0.0507816262543201
1772649469599450600,0.14345068359375,-0.3427946157723665,0.1231078356873243,-0.1588458693489432,-0.0367120057344436,0.0989761278033256,-0.0001203148858621
1772649469609422600,0.153422607421875,-0.329376915794611,0.0252441852413117,-0.1925005573978647,-0.0424657650291919,0.0773528516292572,0.0381682217121124
1772649469619393500,0.1633935546875,-0.1355740070939064,-0.1143284630347043,-0.1076637079158797,-0.0402354188263416,0.0363295674324035,0.0487165004014968
1772649469629365800,0.17336572265625,0.0509679706931114,-0.1841316287096589,-0.0288794364711269,-0.0362385474145412,-0.0021914597600698,0.0387815795838832
1772649469639337500,0.18333740234375,0.1182312426269054,-0.1791165039613843,-0.0013103519462049,-0.0398802049458026,-0.024480739608407,0.0231049172580242
1772649469649309700,0.193309814453125,0.0898135419160127,-0.118645960907638,0.031236849784851,-0.0354175493121147,-0.0328691639006137,0.0108234835788607
1772649469659280600,0.20328076171875,0.1171867020100355,-0.0803908298585563,0.0738754200825467,-0.0269609987735748,-0.0395166352391243,-0.0032888383138924
1772649469669252600,0.213252685546875,0.0849959125012159,-0.003460515717417,0.1520249738203361,-0.0090813338756561,-0.0487487465143203,-0.0072782533243298
1772649469679224800,0.223224853515625,-0.1032277347624301,0.0812791570004075,0.1778005259919911,0.0167877003550529,-0.05579075217247,0.0145837096497416
1772649469689196500,0.233196533203125,-0.2429576924920082,0.0720944184172898,0.260263339819014,0.0443602055311203,-0.0947701036930084,0.0441445335745811
1772649469699167700,0.243167724609375,-0.3696650870412588,0.0739002987954765,0.3421842287890613,0.060634259134531,-0.1157151758670806,0.0836373418569564
1772649469709139700,0.2531396484375,-0.499082909592986,0.0106931703846901,0.2655438375052064,0.0633544102311134,-0.0936247855424881,0.1288423687219619
1772649469719111700,0.263111572265625,-0.4160550822943449,0.068651657552272,0.1140767167633399,0.055335845798254,-0.0603434778749942,0.1591310799121856
1772649469729083600,0.273083740234375,-0.041057986575365,-0.037728111500293,-0.0672686422286555,0.0311261154711246,-0.0556390061974525,0.1452296376228332
1772649469739054300,0.283054443359375,0.2277770744949579,-0.1658179003186523,-0.1844866161597892,-0.0025799192953854,-0.0383582524955272,0.1158292219042778
1772649469749026600,0.293026611328125,0.3269219238579273,-0.0949901408363133,-0.2127179274531081,-0.0337223932147026,-0.012676591053605,0.0860518887639045
1772649469758998300,0.302998291015625,0.4600941305071115,-0.0178995215669274,-0.1453357053147629,-0.0532837882637977,-0.0051372624002397,0.0425588823854923
1772649469768970500,0.312970458984375,0.548061752295494,0.0583905949745327,-0.0568378856398165,-0.0463699586689472,-0.0141179738566279,-0.001292462227866
1772649469778941400,0.32294140625,0.4976660285323858,0.0718417588304728,0.0533206712990999,-0.0330845639109611,-0.0168247297406196,-0.0357171557843685
1772649469788913400,0.332913330078125,0.4303548258036375,0.1141946075219661,0.0866063799051567,-0.0148749351501464,-0.0197712518274784,-0.0619735270738601
1772649469798885600,0.3428857421875,0.3505015368878841,0.1063702705718576,0.0611588175788521,-0.00771444151178,-0.0296622775495052,-0.0803991705179214
1772649469808856600,0.352856689453125,0.207931387296319,0.024889380454272,0.0271956846352666,0.0071625090204179,-0.036454938352108,-0.0865430831909179
1772649469818828500,0.36282861328125,0.1069055464923381,0.0039804479382932,-0.02741312677823,0.0008380366489291,-0.0359369851648807,-0.0840946733951568
1772649469828800500,0.372800537109375,-0.0687818598031997,0.0252330062601715,-0.1416064921911805,-0.0148804727941751,-0.0072089354507625,-0.0683268904685974
1772649469838772500,0.3827724609375,-0.2474362992107868,-0.0110791009623557,-0.2305638556692749,-0.0383034534752368,0.0464718230068683,-0.0455760732293129
1772649469848743400,0.392743408203125,-0.1754635344117879,-0.046278716898337,-0.3154210172869265,-0.0579967312514781,0.0668037235736846,-0.0279568638652563
1772649469858715600,0.402715576171875,-0.0559726471126079,-0.0416153281971812,-0.3903278262438252,-0.0727805718779563,0.0707852467894554,-0.0092124016955494
1772649469868687400,0.412687255859375,-3.62403571605e-05,-0.045059477301687,-0.3791077093755826,-0.0866548418998718,0.0733235031366348,0.0031963309738785
1772649469878659600,0.42265966796875,0.0845031605482101,-0.0201614020843058,-0.2157688759889453,-0.0883141085505485,0.0610853061079978,0.0028344776947051
1772649469888630300,0.43263037109375,0.150158997285366,0.0129507400531321,-0.0066870034832507,-0.0702237859368324,0.0413624681532382,-0.0078794192522764
1772649469898602500,0.4426025390625,0.1366255619734525,0.0099574034560471,0.1410486025800928,-0.0517898090183734,0.0238742306828498,-0.0156891196966171
1772649469908574500,0.452574462890625,0.1231739597260952,-0.0083470456499606,0.1980736448224633,-0.0338140055537223,0.0111304707825183,-0.030039295554161
1772649469918546400,0.46254638671875,0.0886217017829418,0.0167458945523947,0.2362132232004776,-0.0105307903140783,0.0037865713238716,-0.033619824796915
1772649469928517600,0.472517578125,0.0575830049186944,-0.0363376069899648,0.1885466686729341,-0.003002832410857,-0.0027179329190403,-0.0360430367290973
1772649469938489300,0.4824892578125,0.0029003976166248,-0.0992131653588265,0.0684088617723435,-0.0055412952788174,0.0010593147017061,-0.0336356684565544
1772649469948461600,0.492461669921875,-0.0186620303720235,-0.0968887409992516,0.0355818567192181,-0.0048451451584696,0.0055009345524013,-0.0336401984095573
1772649469958433300,0.502433349609375,-0.0049748658031225,-0.0828128693737089,0.0800897280201315,0.0004202397540211,-0.0052014905959367,-0.039651870727539
1772649469968404500,0.512404541015625,-0.0584323152244091,-0.1210964227996766,0.1583256813997402,0.0051689227111637,-0.021799374371767,-0.036038227379322
1772649469978376400,0.52237646484375,-0.2148977191776037,-0.0583779546886682,0.1700029309183359,0.0129005061462521,-0.0242078453302383,-0.0093351732939481
1772649469988348400,0.532348388671875,-0.4001514107197523,0.0102446228995919,0.1801977963920682,0.0269795730710029,-0.0269519668072462,0.0382877364754676
1772649469998320600,0.542320556640625,-0.3845078513860702,-0.0225849029041826,0.1462204887926578,0.0337034687399864,-0.03797497600317,0.0679647997021675
1772649470008291600,0.55229150390625,-0.1470300516098737,-0.0556727873831987,0.0147557071158662,0.0370806232094764,-0.048948798328638,0.0685395076870918
1772649470018263600,0.562263671875,0.1683370435327291,-0.088091175102815,0.0111387952603399,0.0514051131904125,-0.0653853341937065,0.0388102754950523
1772649470028235500,0.572235595703125,0.4662877244502306,-0.1551459188524633,0.1049631071876734,0.0656034871935844,-0.0756174623966217,-0.0146979596465826
1772649470038207500,0.58220751953125,0.6812246065944433,-0.161763948752731,0.0819126325983554,0.0784055218100547,-0.0870163515210151,-0.0876221135258674
1772649470048178400,0.592178466796875,0.7257528996288776,-0.1821487843293696,0.1575959423530846,0.0975427329540252,-0.0995182916522026,-0.1621650457382202
1772649470058150700,0.602150634765625,0.6422779130846261,-0.1846805678293109,0.2929272997975349,0.1185942888259887,-0.1125135645270347,-0.2238062620162964
1772649470068122400,0.612122314453125,0.3702683136314153,-0.0981587609350681,0.3226988262701779,0.1359194815158844,-0.1618923097848892,-0.2514932751655578
1772649470078093600,0.622093505859375,-0.3319605025470256,-0.0332785847455263,0.2683574336212128,0.1446244567632675,-0.1784437596797943,-0.1880141049623489
1772649470088065300,0.632065185546875,-1.0522709188610315,0.0812330528363585,0.1752537641186267,0.1385921239852905,-0.1464757025241851,-0.0626141056418418
1772649470098037500,0.64203759765625,-1.4024457080125807,0.198530667874962,0.1220803923357278,0.131360724568367,-0.1253638714551925,0.0607743933796882
1772649470108009500,0.652009521484375,-1.3993664466977118,0.11121961029917,0.0777828393172472,0.1198694556951522,-0.1021000891923904,0.1788416504859924
1772649470117980400,0.66198046875,-1.06831253760159,0.0480728337734937,0.0109245679877698,0.1073420569300651,-0.0741399526596069,0.2680784165859222
1772649470127952600,0.67195263671875,-0.3632178105980158,0.0549585746992379,-0.0840006909187883,0.0979139283299446,-0.0516096092760562,0.2866062819957733
1772649470137924400,0.68192431640625,0.3992424791812896,-0.0397335330385714,-0.1841733489595353,0.0852618962526321,-0.0687551647424697,0.2372577637434005
1772649470147896600,0.691896484375,0.810311589756608,-0.0964925812885165,-0.210485967149958,0.0839841067790985,-0.0892900004982948,0.1758527308702469
1772649470157867500,0.701867431640625,0.9349597136884928,-0.0428383671861141,-0.2132757439989596,0.0826430469751358,-0.1057836487889289,0.1206672415137291
1772649470167839500,0.711839599609375,0.8158937738031149,0.0078002254221588,-0.2607547035325318,0.082442782819271,-0.1048158556222915,0.0813169032335281
1772649470177811500,0.7218115234375,0.5646633430063724,0.0547436898395419,-0.3070176383398473,0.0669777914881706,-0.072238378226757,0.0584486164152622
1772649470187783400,0.731783447265625,0.3725041098594665,0.1007590065613388,-0.3866015357296913,0.0417302325367927,-0.0207695923745632,0.0386131256818771
1772649470197754400,0.74175439453125,0.3087409550011157,0.1091903694938868,-0.4199708674985915,0.0147242359817028,0.0216976292431354,0.0163183491677045
1772649470207726600,0.7517265625,0.2957645690500736,0.127205918655917,-0.3862525030963122,-0.0056835669092834,0.0471611768007278,-0.0028883693739771
1772649470217698600,0.761698486328125,0.3580442073523998,0.0849317612238228,-0.342141850952059,-0.0330078639090061,0.0570452325046062,-0.0434264726936817
1772649470227670500,0.77167041015625,0.3835264391332864,0.0885617882892489,-0.2766121978778392,-0.0525269731879234,0.0361010693013668,-0.0782246738672256
1772649470237641500,0.781641357421875,0.2105669964969158,0.1088563152339309,-0.1644743767552077,-0.0641511902213096,0.0218681171536445,-0.0810976549983024
1772649470247613400,0.791613525390625,-0.0130085346549749,0.1505981193549931,-0.0295451703708618,-0.0698383674025535,0.009807726368308,-0.0695824101567268
1772649470257585400,0.80158544921875,-0.1935690999448299,0.1754522093001753,0.0585305149018764,-0.0685185641050338,0.0001218216493725,-0.0424089021980762
1772649470267557400,0.811557373046875,-0.4004933560252189,0.1829599545817822,0.0420836032960563,-0.0593405067920684,0.0191924516111612,0.0086018200963735
1772649470277528600,0.821528564453125,-0.3099561760097742,0.1256550359521061,-0.0720128776136785,-0.0698338970541954,0.0364268347620964,0.0340962596237659
1772649470287500300,0.831500244140625,-0.0006757073044776,0.0148716981783509,-0.1232416912000626,-0.0817704498767852,0.0366124548017978,0.0219085700809955
1772649470297472500,0.841472412109375,0.2800222255170345,-0.0988782343160361,-0.1295872608345001,-0.0875728353857994,0.0274348445236682,-0.0132284490391612
1772649470307444500,0.851444580078125,0.3535007187038659,-0.1430897164862603,-0.0866722482156008,-0.0887970924377441,0.0155411660671234,-0.0429285541176795
1772649470317415400,0.86141552734375,0.2407072832167148,-0.1746921116478741,-0.0751454765509814,-0.0885189548134803,0.0043811285868287,-0.0491352975368499
1772649470327387600,0.8713876953125,0.1177040038824081,-0.2157319049794226,-0.0704095340702682,-0.098598226904869,-0.0007345373742282,-0.0454111322760582
1772649470337359400,0.881359375,0.0160948102325201,-0.2028733732543885,-0.0428026382856071,-0.1090745106339454,-0.0017881640233099,-0.044241864234209
1772649470347331600,0.89133154296875,-0.1101420441955327,-0.1573597224444151,0.0391362977977842,-0.103735402226448,0.0002669971436262,-0.0294341556727886
1772649470357302500,0.901302490234375,-0.2342027236282825,-0.0942589039523154,0.1685136422086507,-0.0783893093466758,0.0047073862515389,-0.0032507523428648
1772649470367274500,0.9112744140625,-0.2490063250064849,-0.0597033580735325,0.2484887308731675,-0.061895553022623,0.0122009888291358,0.0215699076652526
1772649470377246700,0.921246826171875,-0.1471159763276577,-0.0842599263768643,0.2264884229239076,-0.0367091782391071,0.0152030251920223,0.0409129410982131
1772649470387217400,0.931217529296875,0.0265618437111377,-0.1184596445553004,0.1418710614114999,-0.0256650522351264,0.0147066116333007,0.0421158894896507
1772649470397189600,0.941189697265625,0.3001911533206701,-0.114010921518132,0.1557972954332828,-0.0095685869455337,0.0149814011529088,0.0095912031829357
1772649470407161600,0.95116162109375,0.4921376204997301,-0.1225952099900692,0.1623855147171765,4.27616760134e-05,0.0114276800304651,-0.0391931124031543
1772649470417133600,0.961133544921875,0.4252601330131292,-0.0768289726585149,0.1383840230133384,0.0131057761609554,0.0203757137060165,-0.0703090950846672
1772649470427104500,0.9711044921875,0.2680027018994093,0.0020438538525253,0.1972647395923733,0.0307590719312429,0.0228844135999679,-0.0788506492972374
1772649470437076500,0.981076416015625,0.0349807124882936,0.0232794610396027,0.1998973531182855,0.0435215830802917,0.0128467986360192,-0.068865917623043
1772649470447048400,0.99104833984375,-0.2464776833117008,0.0465025157168507,0.1308374070260673,0.048060942441225,0.0065830433741211,-0.030569389462471
1772649470457020400,1.0010205078125,-0.3779576990902423,0.0672965166162699,-0.0571081539485603,0.0321023762226104,-0.001004708232358,0.0113049829378724
1772649470466991400,1.010991455078125,-0.4228022184669971,0.0016682985384017,-0.2075759249221533,0.0108855022117495,0.0176126528531312,0.0478118583559989
1772649470476963600,1.020963623046875,-0.2694447174012661,-0.0290351019568741,-0.1754549857791513,0.0033263363875448,0.0164137110114097,0.0679168105125427
1772649470486935600,1.030935546875,-0.0100052611857652,-0.0059677492979913,-0.0502035621918737,0.0085586477071046,0.0048390789888799,0.0600511617958545
1772649470496907500,1.040907470703125,0.1584241368055343,0.0062939125124365,0.0359213543392717,0.0185071527957916,-0.0036896942183375,0.0422157049179077
1772649470506878700,1.050878662109375,0.2740916664242744,-0.0467472111929208,0.052439723746106,0.0317579768598079,-0.0256780833005905,0.0095507036894559
1772649470516850400,1.060850341796875,0.3500309967666864,-0.0606776099331676,-0.0074480509836226,0.0389749817550182,-0.0260406322777271,-0.0137451021000742
1772649470526822700,1.07082275390625,0.2654302210628986,-0.0654075610645115,-0.1039158631570637,0.0302938744425773,-0.0136172529309988,-0.0283575989305973
1772649470536794400,1.08079443359375,0.2512625795006752,-0.0937012700695544,-0.1700557570841163,0.0214329492300748,-0.0062228729948401,-0.039717897772789
1772649470546765600,1.090765625,0.2463917585939168,-0.0880403947636485,-0.1045306340545415,0.0134285520762205,-0.0065336637198925,-0.0582162141799926
1772649470556737500,1.100737548828125,0.1282552085131406,-0.0918420520689338,-0.0231070270821452,0.0029785274527966,-0.0083955004811286,-0.056872796267271
1772649470566709500,1.11070947265625,-0.090702599710226,-0.0219020352065563,0.0222938110031187,-0.0041717938147485,-0.0044518909417092,-0.0316057875752449
1772649470576681700,1.120681640625,-0.3249479934364557,0.0186043819006532,0.0990473803378641,0.0013772761449217,-0.0111397467553615,0.0053712436929345
1772649470586652400,1.13065234375,-0.4977525377720594,-0.0126109867047518,0.1280338208474218,0.0053070364519953,-0.0154817653819918,0.0494180619716644
1772649470596624600,1.140624755859375,-0.4548042074054479,-0.0403944811653345,0.103537531363964,0.0099982470273971,-0.0124287642538547,0.0849797502160072
1772649470606596400,1.150596435546875,-0.2125268983930349,-0.0981181366637349,0.0842251473244279,0.0104382019490003,-0.0217919051647186,0.0855086520314216
1772649470616568600,1.160568603515625,0.0425222139090299,-0.1077118944391608,0.0277092601805925,0.0032023913227021,-0.0201471038162708,0.0759189650416374
1772649470626539500,1.17053955078125,0.2191752503663301,-0.0891178878020495,-0.0252015151433646,-0.0026187463663518,-0.0120329856872558,0.0562326163053512
1772649470636511500,1.180511474609375,0.3563175296902656,-0.047692748414725,-0.034562194815278,-0.0079443203285336,-0.0017086949665099,0.0279236920177936
1772649470646483500,1.1904833984375,0.4625263260900974,-0.0516707852002233,-0.0606450959030538,-0.0123971253633499,0.0041665043681859,-0.0080369729548692
1772649470656455400,1.200455322265625,0.4782166471749544,-0.0851669582191854,-0.1073989560324698,-0.0170380603522062,0.007276170887053,-0.0348678044974803
1772649470666426400,1.21042626953125,0.3865601077407598,-0.0715836924161762,-0.053679421608895,-0.0118925664573907,0.0085957674309611,-0.0573574006557464
1772649470676398600,1.220398681640625,0.246865221324563,-0.0625420886307954,0.0304444572981446,0.0015972512774169,0.0037271161563694,-0.0586004592478275
1772649470686370600,1.23037060546875,0.0668014996409416,-0.0702993516940623,0.0398562095701694,0.0006667426787316,0.0155187956988811,-0.0524307116866111
1772649470696341500,1.240341552734375,-0.019312018713355,-0.0730786071490496,0.0262592805679887,-0.0010662372224032,0.0190830491483211,-0.0456020608544349
1772649470706313700,1.250313720703125,-0.0709480979263782,-0.0727795511372387,0.0797133689884096,0.0027583288028836,0.0092450659722089,-0.0363981761038303
1772649470716285400,1.260285400390625,-0.1654179412156343,-0.0610126871064305,0.1407504598837345,0.0045515964739024,0.0095961634069681,-0.0154235828667879
1772649470726258000,1.2702578125,-0.2132733328461647,-0.0475431838762015,0.0626732407297939,0.0039329440332949,0.0108758136630058,0.0049298917874693
1772649470736228600,1.280228515625,-0.1150140341460704,-0.0773039697591215,-0.0071435150790959,0.0021889475174248,-0.003824163461104,0.0074610658921301
1772649470746200800,1.290200927734375,-0.025514965006709,-0.1547908218044787,-0.0185331432953476,-0.0034779929555952,-0.0091299787163734,0.0042844479903578
1772649470756172500,1.300172607421875,0.0220090027123689,-0.1532039179392159,-0.1044719626698642,-0.0224415622651577,-0.0079273292794823,0.0018507610075175
1772649470766144800,1.310144775390625,0.0288724587410688,-0.1075564846817404,-0.1507104206230491,-0.0295063965022563,-0.0068580699153244,0.0042521338909864
1772649470776115700,1.32011572265625,0.1070785649716854,-0.0570134614024311,-0.0465704663865268,-0.0368148013949394,-0.0069167530164122,-0.0093678757548332
1772649470786087700,1.330087646484375,0.1433352887451648,-0.0362725058645009,0.0451170527078211,-0.0400297716259956,-0.0158969312906265,-0.0276419539004564
1772649470796060000,1.340059814453125,0.0155517893970012,0.0450944755498319,0.0852227069944143,-0.038280926644802,-0.0065518533810973,-0.0157839283347129
1772649470806031600,1.350031494140625,-0.1205032792121171,0.125632824120298,0.055708589348942,-0.038852971047163,-0.0014074251521378,0.0103131867945194
1772649470816002800,1.3600029296875,-0.1054535941183567,0.0806185011345893,-0.0232821644533425,-0.0480887591838836,0.0069447001442313,0.0240312702953815
1772649470825974800,1.369974853515625,0.070767480662465,0.047982817402482,0.0436079633191227,-0.0380039028823375,0.0008516544476151,0.0150241935625672
1772649470835946800,1.37994677734375,0.2262315986186265,0.0697323654610663,0.1561714625079184,-0.0177040100097656,-0.0133860576897859,-0.0075568906031548
1772649470845918700,1.389918701171875,0.2816846057713031,0.0582773438584059,0.2345505872178822,0.0016001784242689,-0.0254432521760463,-0.0318534411489963
1772649470855890000,1.399889892578125,0.2442980011850595,0.0264591139890253,0.1787581189777702,0.0210192129015922,-0.0200494993478059,-0.0464126355946064
1772649470865861600,1.409861572265625,0.1182856031626462,-0.0445703786104917,-0.0019721037905663,0.019970990717411,-0.012106355279684,-0.0488342456519603
1772649470875833900,1.419833740234375,-0.0665811348885297,-0.1296655137024819,-0.2931983718238771,0.0006819227710366,0.0146245062351226,-0.0208682604134082
1772649470885805800,1.429805908203125,-0.1581447353422641,-0.1963119689121842,-0.3961194517899304,-0.0279409326612949,0.0383756421506404,0.0072973323985934
1772649470895776800,1.43977685546875,2.0458266139e-05,-0.2199674236573278,-0.2812763172313571,-0.0399032607674598,0.0304299853742122,0.0005726344534195
1772649470905748700,1.449748779296875,0.1690215186655521,-0.1760345392327755,-0.0393686452489346,-0.0319233685731887,0.0226535554975271,-0.0242179334163665
1772649470915720700,1.459720703125,0.2081242795199155,-0.098639091797918,0.1462355402313172,-0.0117190852761268,0.006079719401896,-0.0446679554879665
1772649470925692700,1.469692626953125,0.108966570675373,-0.0289942584898322,0.26221520453915,0.0148193156346678,-0.0231213085353374,-0.05072558298707
1772649470935663600,1.47966357421875,-0.0939560485482215,-0.0365258961036801,0.2630862882852554,0.0289671961218118,-0.0325420349836349,-0.0297654177993536
1772649470945635800,1.4896357421875,-0.2197024891108274,0.0010819500178098,0.182483350045979,0.0314284898340702,-0.0288849808275699,0.0009815758094191
1772649470955607600,1.499607666015625,-0.2083954976767301,-0.0665334963545203,0.0881372062016278,0.0226724371314048,-0.012209172360599,0.0166918132454156
1772649470965578800,1.509578857421875,-0.0762631554692983,-0.1186954260725527,-0.021391090009734,0.0076500782743096,0.0035476861521601,0.0163573194295167
1772649470975550700,1.51955078125,0.1199333703696727,-0.1064048304285854,-0.0607869885917752,0.0035293186083436,0.0086969211697578,0.00210802257061
1772649470985522700,1.529522705078125,0.2357131281912326,-0.0921802710473537,-0.0247928612772375,0.0016983957029879,0.0029210573993623,-0.0189597122371196
1772649470995495000,1.539494873046875,0.1671551402717828,-0.0429693731546401,-0.0135921797618269,0.0011151134967803,0.00382148521021,-0.0236218981444835
1772649471005465900,1.5494658203125,0.028486089771986,-0.0652174453198909,-0.1127767035480588,-0.0092629585415124,0.0065006255172193,-0.0129362288862466
1772649471015437800,1.559437744140625,-0.0223778360247611,-0.0812850022193044,-0.153169650343433,-0.018028438091278,0.0061139217577874,-0.004842028953135
1772649471025409800,1.569409912109375,-0.0234346516013145,-0.1179991874366998,-0.1059603745967149,-0.0221379622817039,0.0027130646631121,-0.0058516329154372
1772649471035381800,1.5793818359375,-0.0195744690418243,-0.1143251020338386,0.0004669599246233,-0.0240048356354236,0.0055730338208377,-0.0058545623905956
1772649471045352700,1.589352783203125,-0.005654664760828,-0.0769471191454678,0.0791674986086785,-0.0185509510338306,0.0075142118148505,-0.0042148544453084
1772649471055324700,1.59932470703125,-0.0012128829210996,-0.0309012611549347,0.1511103797260671,-0.0096767079085111,0.0114620011299848,0.0067513845860958
1772649471065296600,1.609296630859375,0.0094856212258338,-0.0468356201287359,0.1112708290297538,-0.0014334260486066,0.0189183205366134,0.0110595803707838
1772649471075268900,1.619268798828125,0.0863812293797731,-0.0739318629775196,0.0439740932177752,0.0018663383089005,0.0216252971440553,0.0077219461090862
1772649471085239600,1.629239501953125,0.1841056905508041,-0.1130412727683782,0.013378025554493,0.0037521226331591,0.0226306393742561,-0.0101063195616006
1772649471095211800,1.639211669921875,0.2000508631795644,-0.1834977147202938,0.0171890352100133,0.0024327905848622,0.0207033436745405,-0.0352150462567806
1772649471105183700,1.649183837890625,0.1083627595633268,-0.1743446864496916,0.0514606495808809,0.002731064800173,0.0191864073276519,-0.0403096713125705
1772649471115155700,1.65915576171875,-0.023215455892682,-0.1317494073044508,0.0624982494890689,0.0076932250522077,0.0162426754832267,-0.0305136051028966
1772649471125127000,1.669126953125,-0.112780576005578,-0.1084299065154045,0.1171565260674804,0.0239382404834032,0.0137741910293698,-0.0097747705876827
1772649471135098600,1.6790986328125,-0.1509773279309272,-0.1441952665753662,0.1327127724438905,0.0350466147065162,0.008535074070096,0.0147923165932297
1772649471145070800,1.68907080078125,-0.1665373006343841,-0.1847193654697388,0.0991860581561923,0.0441492944955825,0.0087132398039102,0.0305877905339002
1772649471155042600,1.69904248046875,-0.1443763222306966,-0.2349842293947935,0.0397303912334144,0.0344026014208793,0.0151552725583314,0.0384374074637889
1772649471165013800,1.709013671875,-0.0901227539956569,-0.2413923428714275,-0.0194174518492072,0.0239587500691413,0.0284060984849929,0.0339672937989234
1772649471174985700,1.71898583984375,-0.0422194315701723,-0.1257546969342976,0.0569988483551889,0.0225005075335502,0.0294739305973052,0.0405779853463172
1772649471184957700,1.728957763671875,0.0049614217996597,0.006169336284697,0.1612635980151593,0.0349798165261745,0.0253116786479949,0.0444845780730247
1772649471194928600,1.7389287109375,0.017286650365591,0.0634761546105146,0.234817713721469,0.0575233176350593,0.0135914124548435,0.0538020133972168
1772649471204900900,1.74890087890625,-0.0497679472535848,0.0690871994253247,0.2444642976626753,0.0806384906172752,0.0044027077965438,0.0738417655229568
1772649471214872800,1.758872802734375,-0.0795545982301235,-0.0113682201020419,0.1320347270518541,0.0913051888346672,0.0024001891724765,0.0927535369992256
1772649471224844800,1.7688447265625,-0.0517237574964761,-0.0397970267288386,-0.0245090028345584,0.0890207290649414,0.0065997280180454,0.1055995598435401
1772649471234815700,1.778815673828125,-0.0363408949255943,-0.0048819268226623,-0.0996047950249165,0.0805698260664939,0.0059168003499507,0.1164800971746444
1772649471244787700,1.78878759765625,0.0364560457378625,-0.0080352032218128,-0.1591647991050034,0.0547004155814647,0.0010080621577799,0.0991828665137291
1772649471254759700,1.798759765625,0.1944797850489616,-0.0095018417082726,-0.2143463689051568,0.0332698039710521,-0.0126154981553554,0.0621947757899761
1772649471264731600,1.808731689453125,0.2183130805790424,0.0015988134987652,-0.2017046948011964,0.0125141898170113,-0.0209288224577903,0.0389997102320194
1772649471274702800,1.818702880859375,0.0321200623601675,0.0756890088431537,-0.1593951737947762,0.0013149054720997,-0.0075452323071658,0.0391196571290493
1772649471284674600,1.828674560546875,-0.059439446440339,0.1432358469586819,-0.1151141335196793,-0.0038564207497984,0.0073359794914722,0.056680541485548
1772649471294646800,1.838646728515625,0.0608370382785797,0.1129280216522514,-0.0731453157097101,-0.0032910949084907,-6.7087821662e-06,0.0557150058448314
1772649471304618800,1.84861865234375,0.2179272961318492,0.0135113696105778,-0.0838511263802647,-0.0063638500869274,0.0004305825568735,0.0347506031394004
1772649471314589700,1.858589599609375,0.3268494431436061,-0.0359906932484358,-0.09219422650747,-0.013055307790637,0.0080578755587339,0.0168861169368028
1772649471324562000,1.86856201171875,0.3213315565049648,-0.0208119018822908,-0.1066395890325307,-0.0205422528088092,0.0137133635580539,0.0070406780578196
1772649471334533600,1.87853369140625,0.2427840894907713,-0.0017602146055549,0.0032055911082774,-0.010743573307991,0.0264156833291053,-0.0023120613768696
1772649471344505900,1.888505859375,0.1929629507452249,0.0573874823465943,0.1480691123340279,0.0107758324593305,0.0359737686812877,-0.008624019101262
1772649471354476800,1.898476806640625,0.1972778913348913,0.0784487558800727,0.2410647183522581,0.0388484820723533,0.0338029935956001,-0.0175297185778617
1772649471364448800,1.90844873046875,0.2159177098751068,0.0396579105190932,0.2656734552342444,0.0593801252543926,0.0186778362840414,-0.0351510606706142
1772649471374420700,1.918420654296875,0.178322430974245,-0.0187381643481552,0.2381765956953167,0.0790711119771003,0.0032612029463052,-0.0504806376993656
1772649471384392700,1.928392822265625,0.0348603009790182,-0.1117112662736326,0.1731048424564301,0.0894888639450073,-0.0154376495629549,-0.0539667159318923
1772649471394363600,1.93836376953125,-0.1866875237375497,-0.1588688848983496,0.0488444757331162,0.0970055311918258,-0.0220211241394281,-0.0241127870976924
1772649471404335600,1.948335693359375,-0.3514858717501163,-0.1506377937782555,-0.0518988218024373,0.1015637964010238,-0.0260166637599468,0.0189569182693958
1772649471414307800,1.958307861328125,-0.3716922089546918,-0.1894768621951341,-0.0773031660415232,0.1013690084218978,-0.0450195558369159,0.056524071842432
1772649471424279800,1.96827978515625,-0.3061176207602024,-0.192696481828764,-0.0858882582310587,0.103950947523117,-0.056922823190689,0.0824653953313827
1772649471434250800,1.978250732421875,-0.1997054107427597,-0.1744596180662512,-0.0491704928170889,0.1122599095106124,-0.0612892806529998,0.0997058823704719
1772649471444222700,1.98822265625,-0.0589618920564651,-0.1319056938447058,-0.0495163105800747,0.1207857578992843,-0.0653063878417015,0.1061635091900825
1772649471454194700,1.998194580078125,0.0713145931512117,-0.0635743542879819,-0.0922129312079399,0.1162869706749916,-0.0618392154574394,0.1049892529845237
1772649471464166700,2.008166748046875,0.1894470515787601,-0.0049740620855242,-0.1451112123765051,0.1145716235041618,-0.0521098896861076,0.0929216742515564
1772649471474137900,2.018137939453125,0.3512695986509322,0.082119772543013,-0.1215183745387941,0.112279824912548,-0.0554959923028945,0.0687862560153007
1772649471484109600,2.028109619140625,0.4238847530066967,0.1307036976438015,-0.0251266963414847,0.1115181595087051,-0.0697428360581398,0.0386957339942455
1772649471494081800,2.038081787109375,0.3329126887053251,0.2242923011191189,0.1746990528453141,0.1242876425385475,-0.0716437101364135,0.0129180047661066
1772649471504052700,2.048052734375,0.1732259846180677,0.2943596706882119,0.2795419677194207,0.1396077424287796,-0.0730684995651245,0.0028941323980689
1772649471514024700,2.058024658203125,-0.0276268425941467,0.2826292662102729,0.222191091056168,0.1428363472223281,-0.0671262070536613,0.0070255496539175
1772649471523997000,2.067996826171875,-0.1540595118552446,0.1908758422728627,0.0550142504092305,0.1201163828372955,-0.0497144572436809,0.0173594132065773
1772649471533968600,2.07796875,-0.1578004519492387,0.1056362572088837,-0.0736171710051596,0.0916280746459961,-0.0407415814697742,0.0218998864293098
1772649471543939800,2.08793994140625,-0.0664583852916955,0.066961074116826,-0.0697409871589392,0.077217973768711,-0.0325414426624774,0.0148885827511549
1772649471553911800,2.097911865234375,0.0557774168014526,0.034902532685548,-0.0412025826778262,0.0666588619351387,-0.0314951315522193,0.0035767708905041
1772649471563883800,2.1078837890625,0.104593177896738,-0.0152396547079086,-0.099261169219017,0.0503621809184551,-0.0311579760164022,-0.0038603725843131
1772649471573855700,2.117855712890625,0.071890347212553,-0.0226639594897627,-0.2466030632570385,0.0228407010436058,-0.0174968987703323,-0.0046011027880012
1772649471583826700,2.12782666015625,0.0653419484823942,-0.0115809130046516,-0.2760440426010638,0.005899800453335,-0.0090815769508481,-0.0041443710215389
1772649471593798700,2.137798583984375,0.1343476801693439,0.0348825128108263,-0.1179508182503283,-0.0023506723809987,-0.009358812123537,-0.0095716267824172
1772649471603770600,2.1477705078125,0.1330664081871509,0.0816891260407865,-0.0187787155542522,0.0046039070002734,-0.0125900246202945,-0.0189973544329404
1772649471613742800,2.157742919921875,0.0919622443825006,0.1075984971925616,-0.0145669430781155,0.0100510884076356,-0.0102121084928512,-0.017153525725007
1772649471623713800,2.1677138671875,0.0362421107262372,0.0870687001872807,-0.0758907419603318,0.0121019892394542,-0.0116022787988185,-0.0127944648265838
1772649471633685800,2.177685791015625,0.0686789839506149,-0.0062606678299605,-0.1087487632062286,0.0076787318103015,-0.0080406665802001,-0.0115074403584003
1772649471643657700,2.18765771484375,0.0632908611714839,-0.0225743815101683,-0.155640351305902,-0.004327330738306,-0.0114764105528593,-0.0086378846317529
1772649471653629700,2.197629638671875,0.0892804579526185,-0.0215694422513246,-0.196342071789503,-0.0205022953450679,-0.0101319141685962,-0.0151696475222706
1772649471663600600,2.2076005859375,0.1459323195010423,-0.0031372020471841,-0.1690213725350797,-0.035728920251131,0.0014613587409257,-0.0251386575400829
1772649471673572900,2.21757275390625,0.2052227128595113,0.0270097336091101,-0.1371549196097999,-0.0524541549384593,0.0062817274592816,-0.041682444512844
1772649471683544600,2.227544677734375,0.0962532195746898,0.0556241259358823,-0.0719153355233371,-0.0565322525799274,0.0146405901759862,-0.039846196770668
1772649471693516800,2.237516845703125,-0.0631131665170192,0.0890265562567859,0.0702433837231248,-0.0419464968144893,0.0271352380514144,-0.0237159766256809
1772649471703487700,2.24748779296875,-0.1303781920164823,0.0994234471086412,0.1563828402362763,-0.0238015837967395,0.0285989120602607,-0.0061281947419047
1772649471713459700,2.257459716796875,-0.0853355197191238,0.0338546310678124,0.1488661079306155,-0.0143404323607683,0.0218091141432523,0.0003210009308531
1772649471723432000,2.267431884765625,-0.043277416190505,-0.0077054598107933,0.0775737266112119,-0.0094452761113643,0.0099111758172512,0.0090090306475758
1772649471733403400,2.2774033203125,-0.0094873747915029,-0.0516089720103889,0.0637977877803146,0.0018202075734734,-0.0011406228877604,0.0114660337567329
1772649471743374300,2.287374267578125,0.0581412233233451,-0.1110885312654078,0.0320232509221881,0.0054767276160418,-0.0203305631875991,0.0058723301626741
1772649471753346600,2.2973466796875,0.0971650737226009,-0.1731631485149264,-0.0307532309863716,0.0006412845104932,-0.0200238786637783,-0.0066343559883534
1772649471763318300,2.307318359375,0.0546773466050624,-0.1936081167809665,-0.172188092937693,-0.0199260413646698,-0.004088588990271,-0.0006217375630512
1772649471773290500,2.31729052734375,0.0282423441439867,-0.1438304518509656,-0.2214727867189794,-0.0397607907652854,0.0114702442660927,0.004755400121212
1772649471783261200,2.32726123046875,0.1001987423300743,-0.0837136176057159,-0.1771104248359799,-0.0479942187666893,0.0115272356197237,-0.0007725229952484
1772649471793233400,2.3372333984375,0.1004080011665821,0.0144913936238735,-0.0096254680879414,-0.0326422676444053,0.0122027061879634,-0.0008699242025613
1772649471803205400,2.347205322265625,-0.0144447049379348,0.0561400395687669,0.1654490670062601,-0.0113372448831796,0.0224462896585464,0.0149247515946626
1772649471813176300,2.35717626953125,0.0005880290210247,0.0654619216002523,0.1672341237921267,0.0105614513158798,0.0166138876229524,0.0234696455299854
1772649471823148500,2.3671484375,0.0704050770908594,0.0531763674575835,0.181048202676326,0.039587777107954,-0.0039853984490036,0.0139360604807734
1772649471833120300,2.377120361328125,0.1185328559219837,0.0169128486171364,0.1924918261021375,0.0578460320830345,-0.0324943773448467,0.0046208398416638
1772649471843092500,2.387092529296875,0.1007411786437034,-0.0391764836777001,0.0185501674953848,0.0577181950211524,-0.0473572127521038,0.0027379852253943
1772649471853063400,2.3970634765625,-0.0009936872124671,-0.0536018263280391,-0.1845779842376708,0.031666949391365,-0.0392029583454132,0.0174821857362985
1772649471863035400,2.407035400390625,-0.0532037669211626,-0.0500697066791355,-0.2938638499952852,-0.002340022008866,-0.0143689829856157,0.0305737517774105
1772649471873007400,2.41700732421875,0.0531651884764432,0.0229119429014623,-0.2058016087260097,-0.0229957103729248,0.0119999609887599,0.0303840078413486
1772649471882979300,2.426979248046875,0.1826882249683141,0.1192040331818163,-0.0072279054269194,-0.024645272642374,0.0235775206238031,0.0140588320791721
1772649471892950300,2.4369501953125,0.2654068401873111,0.2169252064172178,0.1113219746951013,-0.014173349365592,0.0237633157521486,-0.0003755711077246
1772649471902922500,2.446922607421875,0.1724181753665208,0.2149890507228672,0.134437477344647,-0.0136258043348789,0.0224684868007898,-0.0160043314099311
1772649471912894500,2.45689453125,0.0831476542860269,0.1327653794139623,0.022646716094017,-0.0267249345779418,0.0352770537137985,-0.0160721726715564
1772649471922866400,2.466866455078125,0.0709901835024356,0.1059512414421886,-0.0680105101045221,-0.0398204959928989,0.033142264932394,-0.0164093263447284
1772649471932837400,2.47683740234375,0.0476677601039409,0.0613284750573337,-0.0928263138659298,-0.0433300621807575,0.0113544231280684,-0.0127890817821025
1772649471942809300,2.486809326171875,-0.0203740949869155,-0.0230149648845195,-0.0360087403617799,-0.0391427725553512,-0.0130555788055062,-0.0020682611502707
1772649471952781300,2.49678125,-0.1313753863602876,-0.1275304744351655,-0.1039580217983573,-0.046156745404005,-0.0199254024773836,0.0123247075825929
1772649471962753300,2.506753173828125,-0.152887545466423,-0.1556125865161418,-0.2076954596485942,-0.0616661943495273,-0.0203472469002008,0.0322113297879695
1772649471972724500,2.516724365234375,-0.0793418322622776,-0.1761648876141756,-0.271912641884759,-0.0849939957261085,-0.0068401666358113,0.0375014133751392
1772649471982696200,2.5266962890625,0.0578811110824346,-0.2079991918355226,-0.2826091732703149,-0.1017913520336151,0.0039253951981663,0.0243453979492187
1772649471992668400,2.53666845703125,0.1917775403529405,-0.1782848754428327,-0.1962809161867946,-0.1105968728661537,0.0214517377316951,0.0119405183941125
1772649472002640400,2.546640380859375,0.2538169401586055,-0.0642142596267163,-0.0715947983320802,-0.1133111715316772,0.0372842326760292,-0.0077695362269878
1772649472012611300,2.556611328125,0.2106967603564262,0.0478609445884823,0.0819550104353576,-0.108842596411705,0.0606682337820529,-0.0093427067622542
1772649472022583600,2.56658349609375,0.1467477275371551,0.0945152898661792,0.2040929781772196,-0.0952330455183982,0.0688297599554061,-0.0115051930770277
1772649472032555300,2.57655517578125,0.1191816752195358,0.0925702932782471,0.241895031696558,-0.0885394588112831,0.0796665325760841,-0.0189537815749645
1772649472042527500,2.586527587890625,0.1436684662222862,0.0994040848210453,0.2740036958798766,-0.069350853562355,0.0796785131096839,-0.0252889096736907
1772649472052498400,2.59649853515625,0.1723228982985019,0.0731697925638407,0.2785533950734883,-0.0484993606805801,0.0635282397270202,-0.0424076244235038
1772649472062470400,2.606470458984375,0.1670505108535289,-0.0043419016618281,0.2154659475196153,-0.0395452789962291,0.0531222037971019,-0.0545268692076206
1772649472072442400,2.6164423828125,0.0880243204116821,-0.0903041749771684,0.0544441223710775,-0.0359930507838726,0.0501098074018955,-0.0606040097773075
1772649472082413300,2.626413330078125,0.0291530292481183,-0.1057870638564228,-0.0959380161456763,-0.0428605452179908,0.0470644831657409,-0.0574484281241893
1772649472092385300,2.63638525390625,-0.0603407791942358,-0.1427951174538582,-0.2400176204521208,-0.062495183199644,0.0529207624495029,-0.0496397204697132
1772649472102357500,2.646357421875,-0.145110481724143,-0.0933914004027843,-0.2464070292282849,-0.0714769586920738,0.0675897225737571,-0.0274691693484783
1772649472112329500,2.65632958984375,-0.1001285997033119,-0.0171898389276117,-0.1512196853194385,-0.0714775398373603,0.0593669563531875,-0.0235165618360042
1772649472122300400,2.666300537109375,-0.0562730913639068,-0.000434957351163,-0.0314277692470699,-0.059152964502573,0.0423008874058723,-0.0180288515985012
1772649472132272400,2.6762724609375,-0.0732253952085971,0.010488295462355,0.0704606066703796,-0.0384300090372562,0.02249276638031,-0.006466451101005
1772649472142244400,2.686244384765625,-0.1271557228386402,0.0123597153574228,0.1022897232599556,-0.0209133308380842,0.0034255995415151,0.0080344602465629
1772649472152216300,2.69621630859375,-0.1822574323356151,-0.0270534996856003,0.0338547771982848,-0.0138158462941646,-0.0103194136172533,0.0238840673118829
1772649472162187300,2.706187255859375,-0.1887988168030977,-0.0843522808354347,-0.0466387823823839,-0.017111774533987,-0.0214466322213411,0.0466908477246761
1772649472172159500,2.716159423828125,-0.1781049888312816,-0.1216585136618465,-0.1114724160164594,-0.0283496249467134,-0.0180418882519006,0.0636114925146102
1772649472182131200,2.726131103515625,-0.0523737458378076,-0.1118612692035734,-0.1653106083836406,-0.0446340590715408,-0.0117496382445096,0.0579376257956028
1772649472192103400,2.736103515625,0.2066448546171188,-0.1033346292030066,-0.1739907584454864,-0.0528644956648349,-0.0163589175790548,0.0249455496668815
1772649472202074400,2.746074462890625,0.3793582135379314,-0.108421065621823,-0.1273754300039261,-0.0585506111383438,-0.0290137268602848,-0.0158468894660472
1772649472212046300,2.75604638671875,0.3148340111792087,-0.0599726034689694,-0.0103034404147416,-0.0528226941823959,-0.0360792241990566,-0.0358647108078002
1772649472222018600,2.7660185546875,0.1066805055648088,0.0351971317179501,0.0816139419127255,-0.0358221381902694,-0.0446878932416439,-0.0307604968547821
1772649472231990300,2.775990234375,-0.1115133325487375,0.0335053061734884,0.1036452295221388,-0.0220515094697475,-0.0472943820059299,0.0003170267445966
1772649472241961500,2.78596142578125,-0.2484434304267168,-0.022313684747368,0.0372870166692882,-0.0180642269551754,-0.0466664098203182,0.0360342785716056
1772649472251933400,2.795933349609375,-0.2345464224994182,-0.0876144244365394,-0.0739274790633469,-0.0272836685180664,-0.0395689234137535,0.0599156282842159
1772649472261905400,2.805905517578125,-0.0709627109736204,-0.1304800449557602,-0.1243482642024755,-0.0439856834709644,-0.0235705189406871,0.0612192451953887
1772649472271877400,2.81587744140625,0.1449964999556541,-0.1453003052078187,-0.0943087344434112,-0.0556984208524227,-0.0059751719236373,0.0351301357150077
1772649472281848300,2.825848388671875,0.2980705079048872,-0.1486512961361557,-0.0122670686379075,-0.0617184937000274,-0.0011591117363423,0.0031791259534657
1772649472291820300,2.8358203125,0.3296674231737851,-0.0883035757444798,0.1178212735865265,-0.0527430064976215,-0.0039552245289087,-0.0266929995268583
1772649472301792300,2.845792236328125,0.1943810008496046,-0.0063981035392731,0.3126870622783899,-0.0228514224290847,-0.0087917912751436,-0.0262983180582523
1772649472311764500,2.855764404296875,-0.0192629188746213,0.0879599499385803,0.4001811482708901,0.0072232913225889,-0.0134084206074476,-0.0080104181542992
1772649472321735400,2.8657353515625,-0.2121551424711942,0.0509363334458321,0.2754259107027202,0.0200567990541458,-0.005563280545175,0.023532060906291
1772649472331707400,2.875707275390625,-0.228153506591916,0.0129978671304881,0.1581278572726994,0.0251750089228153,0.0015801428817212,0.0468758158385753
1772649472341679400,2.885679443359375,-0.0686123484551906,-0.0344874490786343,0.063183089948073,0.0293330028653144,0.0064380150288343,0.0486039407551288
1772649472351651300,2.8956513671875,0.1696679998755454,-0.101623076044768,-0.0177750184044241,0.0289953779429197,-0.0031271744519472,0.0265879891812801
1772649472361622300,2.905622314453125,0.3134942870080471,-0.1473469355393201,-0.077735273848474,0.0177413895726203,-0.0139872785657644,-0.0071342871524393
1772649472371594500,2.915594482421875,0.2187111399859189,-0.1059131744541227,-0.1321138567026704,0.0082954224199056,-0.0110239461064338,-0.0176981575787067
1772649472381566200,2.925566162109375,0.0035673370927572,-0.0251520499784499,-0.1056530622132122,0.00013736076653,0.0077119246125221,-0.0072367284446954
1772649472391537400,2.935537353515625,-0.1375613815188408,0.0484483160223811,-0.0109941260926425,0.0012775678187608,0.016200091689825,0.013498748652637
1772649472401509400,2.94550927734375,-0.1478665024340152,0.0927067060742527,0.1003041024006903,0.0152911227196455,0.0049439743161201,0.0343470387160778
1772649472411481300,2.9554814453125,-0.0870750568628311,0.0859193109564483,0.1588637703318148,0.026394635438919,-0.0168547313660383,0.0434658825397491
1772649472421453600,2.96545361328125,-0.0346370136171579,0.0489946978587657,0.1349337364289909,0.0367487408220768,-0.030734859406948,0.046921070665121
1772649472431424300,2.97542431640625,0.0173158764600753,-0.0105880295097827,0.074018664478138,0.0322180613875389,-0.0304612591862678,0.0471488386392593
1772649472441396500,2.985396484375,0.0540378796577453,-0.0466837175026536,-0.062467415959388,0.0204010847955942,-0.0195774547755718,0.0409047938883304
1772649472451368400,2.995368408203125,0.121622638630867,-0.0245149211186915,-0.0828342774879187,0.0147218946367502,-0.0014189570210874,0.0323808118700981
1772649472461340400,3.00534033203125,0.1953542297959327,0.0144897861886769,0.0103152039177715,0.0139522403478622,0.0152913136407732,0.0135168433189392
1772649472471311400,3.015311279296875,0.3200976307958364,0.0241495949376374,0.0634528468001633,0.022114560008049,0.0069833500310778,-0.0132457045838236
1772649472481283300,3.025283447265625,0.3222773129224777,0.0350732861425727,0.0612612550400197,0.0314894206821918,-0.0033694223966449,-0.0351968072354793
1772649472491255300,3.03525537109375,0.1592898137241601,0.0349945218179374,0.0633543548617512,0.043269757181406,-0.008878331631422,-0.0294289197772741
1772649472501227300,3.045227294921875,-0.0012520458877086,-0.024722353324294,0.0223657071955502,0.0444575287401676,-0.0122341811656951,-0.0185941159725189
1772649472511198200,3.0551982421875,-0.0918149448662996,-0.0822980517193675,-0.0818300688814371,0.0426434315741062,-0.0168060418218374,-0.0014696680009365
1772649472521170400,3.06517041015625,-0.1190735386699438,-0.1059838285375386,-0.0791972361598163,0.0299340300261974,-0.0089617008343338,0.0158717725425958
1772649472531142400,3.075142333984375,-0.0828548088192939,-0.0510783722650259,-0.1153322332497686,0.0183580163866281,0.0012363549321889,0.0230800937861204
1772649472541114400,3.0851142578125,0.0354015682488679,0.0080254855453968,-0.0443172806322574,0.0127403438091278,-0.000987651059404,0.0178840011358261
1772649472551085600,3.09508544921875,0.0931242738991975,0.0638821050629019,0.1462906314194202,0.0182068012654781,0.0013351114466786,0.007384187541902
1772649472561057300,3.105057373046875,0.069269935581088,0.0997206034243106,0.1897247725415974,0.0266229212284088,0.0090835783630609,0.0065916301682591
1772649472571029500,3.115029541015625,0.0101870474934577,0.0878757057212293,0.145800144488737,0.0356812439858913,0.0143532482907176,0.0135477306321263
1772649472581001200,3.125001220703125,0.0457096117734909,0.0649633244283497,0.1026800377517938,0.0445495694875717,0.0102016469463706,0.0106094656512141
1772649472590972400,3.134972412109375,0.1262070438116788,-0.0085228406082838,0.0236618844859302,0.0418179631233215,0.010096751153469,-0.0014044963754713
1772649472600944400,3.1449443359375,0.2207604737311601,-0.0616407558768987,-0.0997521676063537,0.0316092669963836,0.0060093323700129,-0.0168777294456958
1772649472610916400,3.154916259765625,0.2308528286784887,-0.0804189599744975,-0.1886032211657613,0.0145464446395635,0.000261717941612,-0.0368582159280777
1772649472620888600,3.164888671875,0.1528290932774543,-0.037764497987926,-0.166630824136734,-7.24452547729e-05,-0.0050017535686492,-0.0414273999631404
1772649472630859300,3.174859375,-0.0110626612842082,-0.0152479841448366,-0.1358389416404068,-0.007142121437937,-0.0068883569911122,-0.0243071485310792
1772649472640831500,3.18483154296875,-0.2011024180591106,0.0206016931977123,-0.1295544545434415,-0.015864772722125,-0.003622788703069,0.0017460233066231
1772649472650803200,3.19480322265625,-0.273833307749033,0.0364741659164428,-0.1187838350083679,-0.0220290869474411,-0.0049637504853308,0.0329998359084129
1772649472660775400,3.204775390625,-0.1898725835144519,-0.0221430774208158,-0.1256452452104538,-0.0349784418940544,-0.0092559671029448,0.0429443456232547
1772649472670746400,3.214746337890625,0.0134609545975923,-0.0697808077126741,-0.0740820120379328,-0.0455989129841327,-0.0103941559791564,0.0328829623758792
1772649472680718300,3.22471826171875,0.168754976683855,-0.0105566845234483,-0.0381073200762271,-0.0549364909529686,-0.0060643879696726,0.0111361183226108
1772649472690690300,3.234690185546875,0.2480915482491254,0.0463155417773872,0.0117645990084856,-0.06415805965662,0.012433523312211,-0.007917839102447
1772649472700662300,3.244662353515625,0.3029325609833002,0.0398060868181288,0.1149265750583261,-0.0570274479687213,0.015188030898571,-0.0320468768477439
1772649472710633200,3.25463330078125,0.3219271843105554,0.0486569903369992,0.1785838583894073,-0.0391359105706214,0.0087537262588739,-0.0584518685936927
1772649472720605400,3.26460546875,0.2064513778716325,0.0211809543903917,0.1504751505624502,-0.026351936161518,-0.0005795883480459,-0.0697082504630088
1772649472730578000,3.274577880859375,-0.0205266552001237,-0.0535095449347048,0.0471188940495252,-0.0223926603794097,-0.0002510068006813,-0.0565474107861518
1772649472740550000,3.2845498046875,-0.2396563128590583,-0.1198467880647629,-0.0917211291030049,-0.0318250432610511,0.0034598414786159,-0.020365972071886
1772649472750520800,3.294520751953125,-0.294514276728034,-0.1527280440557748,-0.1769269580278545,-0.0420429557561874,0.0106763821095228,0.0157698579132556
1772649472760492800,3.304492919921875,-0.1419634158700704,-0.1611363183736801,-0.1274615739174187,-0.050800759345293,0.0022847615182399,0.0218421313911676
1772649472770465000,3.314465087890625,0.0098889413297176,-0.1059292488060891,-0.0076963997215032,-0.042245727032423,-0.0124528128653764,0.0151861635968089
1772649472780435700,3.324435791015625,0.085128014448285,-0.0456900302901864,0.1758840248461812,-0.0246454291045665,-0.0204039458185434,0.0079199951142072
1772649472790408000,3.334407958984375,0.0792939014673233,-0.0048734512552618,0.2563089761700481,-1.0156072676e-06,-0.0306475758552551,0.0025904416106641
1772649472800380000,3.3443798828125,0.018646248281002,-0.0131825760476291,0.2510571931216865,0.0157736875116825,-0.0321866162121295,0.0077034439891576
1772649472810351900,3.354351806640625,-0.0336918417215347,-0.0400519513379782,0.1506177008382976,0.0208629854023456,-0.0290776081383228,0.0151912784203886
1772649472820323000,3.364322998046875,-0.0328045374929904,-0.1093715712796896,0.0307624372061341,0.0132159851491451,-0.0231451503932476,0.0247248616069555
1772649472830294800,3.374294677734375,-0.0214683199644088,-0.1520563553392887,-0.0546609799921512,0.0057397997006773,-0.0109549239277839,0.0296483542770147
1772649472840267000,3.38426708984375,0.0870522605091333,-0.1721769870217889,-0.0542215656615793,0.0051605626940727,-0.005994520150125,0.0232019070535898
1772649472850238700,3.39423876953125,0.1290823069870471,-0.1326943600043654,0.0443131159137934,0.0169549584388732,-0.0024235672317445,0.0130729796364903
1772649472860210000,3.4042099609375,0.1332365040570497,-0.0930361572243273,0.0783118316274136,0.0291660856455564,-0.0002280571497976,0.008202058263123
1772649472870182000,3.414181884765625,0.1277308923780918,-0.1300376349505037,0.0167398301377892,0.0361247658729553,-0.0117583069950342,0.0025441022589802
1772649472880153900,3.42415380859375,0.1007651440411806,-0.1425204652309417,-0.0010434446383267,0.0405498743057251,-0.0060207922942936,0.0023297178559005
1772649472890126000,3.4341259765625,0.0752069244146347,-0.117101288748905,-0.0583336040902882,0.0313702709972858,0.0051421672105789,0.0004723988822661
1772649472900096800,3.4440966796875,0.1066898579150438,-0.0877093361783772,-0.0960589391116052,0.0197205357253551,0.0150930685922503,-0.0081402640789747
1772649472910069000,3.454069091796875,0.1412380242049694,-0.0322349209114909,-0.0266699802607297,0.0117333531379699,0.0143683822825551,-0.0219011083245277
1772649472920041000,3.464041015625,0.1233300270706415,0.0063596712250262,0.0391235844466835,0.0074318153783679,0.0171199589967727,-0.0290596857666969
1772649472930013000,3.474012939453125,0.1187087970107793,0.0451806194633245,0.0254034674562513,0.0068406467325985,0.0183114111423492,-0.0334257073700428
1772649472939984000,3.48398388671875,0.025856325790286,0.0679516195241361,0.0035196985587477,0.0036898613907396,0.017954546958208,-0.0207027215510606
1772649472949955800,3.493955810546875,-0.0566033462315797,0.050749505636841,0.0211653184298425,0.0113268978893756,0.0163368694484233,-0.0064395535737276
1772649472959928000,3.503927978515625,-0.087336338147521,0.0007216653380542,0.0353085562031716,0.0151472017168998,0.0059066005051136,0.0045925909653306
1772649472969899800,3.513899658203125,-0.0521978047490119,-0.0595692102998495,-0.0189402627915143,0.0154826501384377,0.0040057632140815,0.0144312679767608
1772649472979871000,3.52387109375,-0.0005611410140991,-0.095787501759082,-0.0821104201927781,0.01218166295439,0.0039586252532899,0.0143593624234199
1772649472989843000,3.533843017578125,0.0208896432936191,-0.1030112424675375,-0.1152915359131991,0.0142711782827973,0.0077341883443295,0.0220130216330289
1772649472999815000,3.54381494140625,0.0813736303508281,-0.1035597431957721,-0.1427431680709123,0.0013039815239608,0.002833439502865,0.0096149407327175
1772649473009787000,3.553786865234375,0.1687608219027519,-0.1240725890662521,-0.1741957794982939,-0.0155836511403322,0.0026530767790973,-0.0131938830018043
1772649473019758000,3.563758056640625,0.1375344935119152,-0.0944365255415439,-0.1255206689827144,-0.0265995506197214,0.0069639356806874,-0.0131294336169958
1772649473029729800,3.573729736328125,0.0708756172120571,-0.010725026827678,-0.0074484893750399,-0.0288180131465196,0.0041947937570512,-0.0139002092182636
1772649473039702000,3.583701904296875,0.0366471843957901,0.050119098778814,0.1384316615473479,-0.0184958688914775,-0.0017603004816919,-0.0119425198063254
1772649473049674000,3.593674072265625,-0.002827332380414,0.0723403560023754,0.2084202667918056,0.0038558295927941,-0.0044776028953492,-0.0081210099160671
1772649473059645000,3.60364501953125,-0.0411807361721992,0.0153953567262738,0.1777732726588845,0.0109028201550245,-0.0020535939838737,0.0010344055481255
1772649473069617200,3.6136171875,-0.0567167434781789,-0.0512576743546873,-0.0009299743264913,0.0089238714426755,0.000830961856991,0.0065224431455135
1772649473079588900,3.6235888671875,-0.0142588269770145,-0.112594478848949,-0.1492765884276479,-0.0062838434241712,0.0072390595450997,0.0104732429608702
1772649473089561000,3.63356103515625,0.0508580805778503,-0.1754891072444617,-0.2200356665879488,-0.0295532085001468,0.014282789081335,0.0077041732147336
1772649473099531800,3.64353173828125,0.2004576904147863,-0.1532174350079149,-0.2503586163982749,-0.0509208180010318,0.021193690598011,-0.0099070444703102
1772649473109504000,3.65350390625,0.2160480582565069,-0.0316011530525982,-0.095661683422327,-0.0504582785069942,0.0219959150999784,-0.0210304111242294
1772649473119476000,3.66347607421875,0.1371919636845588,0.0746087393257766,0.0534070344083011,-0.0395715422928333,0.0254252683371305,-0.0158984996378421
1772649473129447000,3.673447021484375,0.0353986456394195,0.0573622748401016,0.0554538108702749,-0.0345739051699638,0.0324240326881408,-0.0072154086083173
1772649473139419000,3.6834189453125,-0.0504009844601154,0.0342223684016615,-0.0665980129580944,-0.0392661280930042,0.0257562771439552,0.0096631729975342
1772649473149390800,3.693390869140625,-0.1137087967664003,-0.0667687664151191,-0.1871669778175652,-0.0542047135531902,0.0124489562585949,0.0272226259112358
1772649473159363000,3.703363037109375,-0.2426654315471649,-0.1345749130539596,-0.2345597203724086,-0.0792219117283821,0.0313342288136482,0.0507777556777
1772649473169334000,3.713333984375,-0.2740191857099533,-0.0868344530399888,-0.1626851552508771,-0.0845468938350677,0.0409249700605869,0.0695642232894897
1772649473179306000,3.723305908203125,-0.2075952872097492,-0.0526863189183175,-0.0395442210115492,-0.0783537179231643,-0.0074215214699506,0.0751312971115112
1772649473189278000,3.73327783203125,-0.166446115219593,-0.0893654328223317,0.0457932714689523,-0.0601447261869907,-0.0192679688334465,0.0906309559941291
1772649473199250000,3.74325,-0.1957932057350873,-0.0120296796854585,0.0484180670145899,-0.0523278154432773,-0.0169329084455966,0.1112478226423263
1772649473209220900,3.753220947265625,-0.1228022038042545,0.0225945475153625,-0.0733202338851988,-0.0567251779139041,-0.0111690089106559,0.1177822947502136
1772649473219193000,3.763193115234375,0.0467401238650083,-0.0375571388475596,-0.0861101573534309,-0.0504422485828399,0.0022911396808922,0.1073818579316139
1772649473229164800,3.773164794921875,0.2088748056262731,-0.0286771553646773,0.0210713565360754,-0.0298267155885696,-0.0051106167957186,0.0839342325925827
1772649473239137000,3.783136962890625,0.3563596152663231,-0.089529464277625,0.1153058566994965,-0.0184739269316196,-0.0393849685788154,0.0510660260915756
1772649473249107700,3.793107666015625,0.4076484884768724,-0.1762514699190855,0.1073995405543595,-0.0192255228757858,-0.0434036292135715,0.0236014164984226
1772649473259080000,3.803079833984375,0.2487251699775457,-0.146275653045997,0.0959126625087112,-0.0238559618592262,-0.036755047738552,0.0112315658479928
1772649473269052000,3.813052001953125,0.0750251381069421,-0.0549831976838409,0.1080846002090722,-0.0329271666705608,-0.0185744948685169,0.0143799195066094
1772649473279023900,3.82302392578125,0.0019441198050975,-0.0107533030740916,0.1955664112418889,-0.0315934568643569,0.0020423671230673,0.023117484524846
1772649473288995000,3.8329951171875,0.0489718284398317,0.0472640016086399,0.3212706931632011,-0.0224891267716884,0.0062155602499842,0.0133403660729527
1772649473298966800,3.842966796875,0.1640805551320314,0.0725443541418761,0.4022140423379838,-0.0008655902929604,-0.0050243106670677,-0.0048034838400781
1772649473308939000,3.85293896484375,0.2036906809866428,0.0431437068082392,0.3442573818013071,0.008853405714035,-0.0138501059263944,-0.0214134771376848
1772649473318910700,3.86291064453125,0.1175181259214878,0.0579774110637605,0.1523281580179929,0.0094920322299003,-0.009312080219388,-0.024559736251831
1772649473328882000,3.8728818359375,-0.0265834710210561,0.0703481592718511,0.0172051826272159,0.0098565127700567,0.0026424108073115,-0.0061857192777097
1772649473338854000,3.88285400390625,-0.0729056617349386,-0.0016675678860396,-0.0596971475284546,0.0120163364335894,0.0106888860464096,0.0105250841006636
1772649473348825900,3.892825927734375,-0.0206301155745983,-0.0570410800617188,-0.128519412407279,0.0096071828156709,0.0141987791284918,0.0142697030678391
1772649473358798000,3.902798095703125,0.0462193148612976,-0.094128117179498,-0.1488192000489681,0.0073120701126754,0.0136139495298266,0.0236320458352565
1772649473368769000,3.91276904296875,0.1600479386150836,-0.1366699125718325,-0.1878141166146844,-0.0007144282571971,0.009880430996418,0.0123907541856169
1772649473378741000,3.922740966796875,0.2569032157361507,-0.2111896584399044,-0.2746669090289622,-0.0171442683786153,-0.003462805878371,-0.0121252415701746
1772649473388713000,3.932712890625,0.2272282084405422,-0.179661570623517,-0.2242621251765638,-0.0327250324189662,-0.0061950562521815,-0.0302179083228111
1772649473398685000,3.942684814453125,0.0345697935998439,-0.0516657436989247,-0.0451903371397405,-0.025964867323637,0.0034186891280114,-0.0210726130753755
1772649473408656000,3.95265576171875,-0.1450759949326515,0.1148732374358922,0.1893689448412507,-0.0046657044440507,-0.0037385232280939,0.0028868715744465
1772649473418628000,3.962628173828125,-0.2089525470376014,0.1563707114070653,0.2615476074758917,0.0119122071191668,-0.0188881810754537,0.0218765400350093
1772649473428599800,3.972599853515625,-0.1760842966586351,0.0842206903450191,0.202564380370453,0.0246575102210044,-0.0210325121879577,0.0407280288636684
1772649473438572000,3.982572021484375,-0.1173351705700159,0.0122805857066065,0.1507008490771055,0.0275382511317729,-0.011957524344325,0.0565852895379066
1772649473448542700,3.992542724609375,0.0075303955048322,-0.0560871403377503,0.0554324758213013,0.0309873595833778,-0.0032878830097615,0.0525189638137817
1772649473458515000,4.002514892578125,0.1785679301679134,-0.1008338253632187,-0.0453891476474702,0.032993521541357,-0.0041225180029869,0.0308842398226261
1772649473468487000,4.01248681640625,0.2922714662373066,-0.1592280005343258,-0.1029695952828973,0.0233188979327678,0.0026258062571287,0.0045803054235875
1772649473478457900,4.022457763671875,0.3015326310575008,-0.1499249693337827,-0.1008113212704658,0.0131040774285793,0.0033302120864391,-0.0140863237902522
1772649473488430000,4.03243017578125,0.19550854357481,-0.0470147760879248,-0.033609131874144,0.0049918689765036,0.0066088498570024,-0.0171533413231372
1772649473498401800,4.04240185546875,0.0283574949562549,0.0793252464536577,0.0125356564462184,0.0061519420705735,0.0145360138267278,-0.0037224874831736
1772649473508374000,4.0523740234375,-0.0818780727416276,0.1528156492739915,0.0420186483010649,0.0083406446501612,0.0244288649410009,0.0121899107471108
1772649473518345000,4.062344970703125,-0.0997778865694999,0.1698522704012691,-0.0004163987811654,0.0010899226181209,0.0296148397028446,0.026533430442214
1772649473528317000,4.07231689453125,-0.0479588520050048,0.124624669991061,-0.0223241330761462,-0.0041006375104188,0.0376422852277755,0.0334036238491535
1772649473538289000,4.082288818359375,0.0616430939644575,0.0638718759298324,-0.0569391540572047,-0.0079142842441797,0.0424551516771316,0.0220942478626966
1772649473548260900,4.0922607421875,0.1521481252759695,0.0187014855995774,-0.0477652291290462,-0.0079294592142105,0.0380829721689224,0.0076381615363061
1772649473558231800,4.102231689453125,0.1580173095703125,0.0093043463747948,0.020762071391195,-0.0001407782547175,0.0144892297685146,-0.0076518445275723
1772649473568204000,4.1122041015625,0.0964998878121376,-0.0258020383197814,0.053138081273809,0.0139766903594136,0.0070501752197742,-0.0121036199852824
1772649473578176000,4.122176025390625,0.0192167416453361,-0.0444430259037762,0.019915391433984,0.0162161439657211,0.0018615387380123,-0.0112625937908887
1772649473588148000,4.13214794921875,-0.0534083495825529,-0.037863282187283,-0.0764548786491155,0.0120396111160516,0.0031246161088347,-0.0039439406245946
1772649473598119000,4.142118896484375,-0.0575496871709823,-0.0420398372195661,-0.1400910461269319,0.0037822141312062,0.0061076232232153,0.0064109624363482
1772649473608091000,4.1520908203125,0.0388420640915632,-0.0457522088062018,-0.1943967098753899,-0.0116454754024744,-0.002975920215249,-0.0017466568388044
1772649473618062800,4.162062744140625,0.1103857898235321,-0.018361366925016,-0.1826374446291476,-0.0264627709984779,-0.0145532144233584,-0.0125508354976773
1772649473628034800,4.172034912109375,0.0833732797354459,0.0629957506824284,-0.1113520775724202,-0.0419878810644149,-0.0111694484949111,-0.0172801129519939
1772649473638006000,4.182006103515625,0.0390133290052413,0.1772863659247756,-0.0677456486232578,-0.0530376024544239,-0.0103651732206344,-0.0168606638908386
1772649473647977700,4.191977783203125,-0.0263946704506874,0.2249303067617118,-0.0484842641185969,-0.0628702566027641,-0.0085913091897964,-0.0071773254312574
1772649473657950000,4.201949951171875,-0.0551490557700395,0.244957707202807,-0.0776415311504155,-0.0719215422868728,0.0034168846905231,4.6765373554e-05
1772649473667922000,4.211921875,0.045205753904581,0.2726102687600999,-0.1074840039674192,-0.0777349025011062,0.0185484196990728,0.0054889908060431
1772649473677892900,4.221892822265625,0.1910556558191776,0.218004160760343,-0.1339637954182923,-0.0776329040527343,0.0175273641943931,-0.0110652185976505
1772649473687865000,4.231864990234375,0.3073959701329469,0.0813197082065045,-0.1573489087894558,-0.0788338854908943,0.0095474077388644,-0.0386792495846748
1772649473697836800,4.2418369140625,0.34771161390841,-0.060295478747785,-0.1716351352300494,-0.0803108736872673,0.0018263710662722,-0.0633350610733032
1772649473707809000,4.25180908203125,0.2087158156722784,-0.1292105364765972,-0.0997280560784041,-0.0758271738886833,-0.0047770026139914,-0.07346723228693
1772649473717780000,4.261780029296875,0.0449281060069799,-0.1664758527707308,-0.0258631939224898,-0.0684688612818718,-0.0219943393021821,-0.0710442885756492
1772649473727751000,4.2717509765625,-0.106148590645194,-0.1827732729032635,0.0203211226906627,-0.0628776103258133,-0.0309004355221986,-0.0502625443041324
1772649473737723100,4.28172314453125,-0.2431429859310388,-0.1948630122128874,0.0512082091897726,-0.0651040077209472,-0.0291155856102705,-0.0220463555306196
1772649473747695000,4.291695068359375,-0.2957634000062942,-0.1836131577935069,0.0746538205765187,-0.0615198798477649,-0.0211258493363857,0.0062705585733056
1772649473757666000,4.301666015625,-0.2262029570460319,-0.1955729140479117,0.188693237536773,-0.0552337542176246,-0.0177305862307548,0.0227118488401174
1772649473767638300,4.31163818359375,-0.1223147125482559,-0.1756860180560499,0.2515298521347344,-0.0377871729433536,-0.0210131499916315,0.027211295440793
1772649473777610000,4.32160986328125,-0.0535462967485189,-0.1601443847268819,0.2630706523247063,-0.0296743847429752,-0.019329234957695,0.0297255851328372
1772649473787582200,4.331582275390625,-0.0359375748217105,-0.1914648211419582,0.1907050888158381,-0.0245532300323247,-0.0201587155461311,0.0357055179774761
1772649473797553200,4.34155322265625,-0.0208247613638639,-0.1469315596714615,0.1383728440321981,-0.0267593916505575,-0.0137527482584118,0.0354506522417068
1772649473807525000,4.351525146484375,0.0287912101984024,-0.0528249236714094,0.1483934489175677,-0.0170040242373943,-0.0032901400700211,0.037519346922636
1772649473817497000,4.3614970703125,0.0727484253466129,0.0448603014677762,0.1330389356583357,-0.0011816516052931,-0.0036246329545974,0.0384615734219551
1772649473827469000,4.371468994140625,0.1493260535925626,0.0469576390732079,0.0428785530660301,0.0099441306665539,-0.0042176260612905,0.0357257761061191
1772649473837440000,4.38143994140625,0.2176291899681091,0.0394109500207006,-0.0450257211625576,0.0074924249202013,0.0025976696051657,0.0256675519049167
1772649473847412200,4.391412109375,0.2147176864355802,0.009678367318958,-0.1870396251108497,-0.0035048308782279,0.0114031117409467,0.0129258334636688
1772649473857384200,4.40138427734375,0.2868272293567657,-0.0417709571503102,-0.2505328769866377,-0.0262106768786907,0.0228152908384799,-0.0135971205309033
1772649473867355100,4.411355224609375,0.3272305514156818,-0.0814209766238927,-0.2060510534424334,-0.0402626357972621,0.0321891978383064,-0.0396359637379646
1772649473877327000,4.4213271484375,0.2742337052434683,-0.0331973362028598,-0.0731876935467124,-0.0396522395312786,0.0306488275527954,-0.0606874525547027
1772649473887299000,4.431299072265625,0.1643476816356182,0.0390977193530648,0.0302684431441128,-0.0334566049277782,0.0142548251897096,-0.0651407390832901
1772649473897271000,4.44127099609375,-0.0266781635671854,0.0438356345951557,0.0526863919835537,-0.0305407084524631,0.0084185078740119,-0.0513215959072113
1772649473907242000,4.451241943359375,-0.1931990975886583,0.0226323953077197,0.0141309628136456,-0.0366690680384635,0.0049389945343136,-0.0277513600885868
1772649473917214200,4.461214111328125,-0.2847749730020761,0.0121630968067795,-0.0213126910112798,-0.0388723015785217,-0.0046550431288778,-0.0037988887634128
1772649473927186000,4.47118603515625,-0.2881920879691839,0.0035983167529106,-0.0134715490568429,-0.0384181812405586,-0.0071725761517882,0.0260489862412214
1772649473937158100,4.481158203125,-0.2197252854645252,0.0152913848951458,0.0635685090690851,-0.0318044871091842,-0.0078037455677986,0.0465545281767845
1772649473947129000,4.491129150390625,-0.0888876592427492,0.0337653453491628,0.0905116071827709,-0.015767304226756,-0.0036432617343962,0.0556871108710765
1772649473957101000,4.50110107421875,0.0826730225116014,-0.0162137604370713,0.0745532828114926,-0.0031614969484508,-0.002616080455482,0.0488904565572738
1772649473967073300,4.5110732421875,0.1866951225221157,-0.1216977496936917,0.0002543400872498,-0.0023939756210893,-0.0036421637050807,0.0371942110359668
1772649473977045000,4.521044921875,0.2681336348026991,-0.1935239456288516,-0.0238697550829499,0.000999157782644,-0.0063444729894399,0.0222006142139434
1772649473987016200,4.53101611328125,0.3264046219855547,-0.1717712557651102,0.0113276688959449,0.0054855137132108,0.0036935801617801,-0.0049605201929807
1772649473996988200,4.54098828125,0.3276531607419252,-0.1534041166864335,0.0431542282022535,0.0170127395540475,0.0089948680251836,-0.0309082325547933
1772649474006960000,4.550960205078125,0.2659446003258228,-0.1413368814695626,0.0940928997356444,0.0239475667476654,0.0115210898220539,-0.0471779853105545
1772649474016932000,4.56093212890625,0.1768716476440429,-0.1517357450827956,0.0840398538853973,0.0185890197753906,0.0101706013083457,-0.0611936710774898
1772649474026903000,4.570903076171875,-0.0086228669166564,-0.1190173515032976,0.1122253532756119,0.0199744515120983,0.0045674969442188,-0.047725923359394
1772649474036875000,4.580875,-0.2558884857356548,-0.0181070268377661,0.2182201415985822,0.0364136099815368,0.0066082770936191,-0.0127064194530248
1772649474046847200,4.59084716796875,-0.4368038558125495,0.0756878397993743,0.3145376585811376,0.0633103102445602,0.0005620089359581,0.0416627414524555
1772649474056819200,4.600819091796875,-0.4706687160134315,0.0942201793771237,0.2493812957987189,0.0793398767709732,0.0009308569133281,0.0889831185340881
1772649474066790100,4.6107900390625,-0.2841676547586917,-0.0202926272485405,0.0661566989313811,0.0800783708691597,0.0022320775315165,0.1095965206623077
1772649474076762000,4.62076220703125,-0.0051332712352275,-0.1378977008011192,-0.1471876533243805,0.0595603138208389,0.0051532983779907,0.0993129909038543
1772649474086734000,4.630734130859375,0.2542985861957073,-0.1725659863393753,-0.3500476556405424,0.0231464821845293,0.0158703662455081,0.066896304488182
1772649474096706000,4.6407060546875,0.4611556222587823,-0.1029313090991228,-0.4012498004157095,-0.0077877305448055,0.0239051207900047,0.0238753352314233
1772649474106677000,4.650677001953125,0.588998742839694,0.0039967414859682,-0.3291552358679473,-0.0223851054906845,0.0298081003129482,-0.0217948239296674
1772649474116649200,4.660649169921875,0.5956359888970851,0.1196470277089625,-0.1845527036659419,-0.0154571570456027,0.0314328931272029,-0.0608077384531497
1772649474126621000,4.670620849609375,0.4515045813381672,0.2074477684978395,-0.0783811705365777,-0.0074059893377125,0.0310534201562404,-0.0827522948384285
1772649474136593200,4.68059326171875,0.2125315745681524,0.2434104046955704,-0.064490007828176,-0.0143408607691526,0.0246048420667648,-0.082913152873516
1772649474146564000,4.690564208984375,-0.0222036485016345,0.1754780013285577,-0.1174419919453561,-0.0253256037831306,0.0284070707857608,-0.0657519102096557
1772649474156536000,4.7005361328125,-0.1531932504147291,0.1669393055640161,-0.0866957021564245,-0.0367763973772525,0.0289873741567134,-0.0381594374775886
1772649474166508300,4.71050830078125,-0.1533791283756494,0.1456149971801787,-0.0153280636437237,-0.039793275296688,0.0279289782047271,-0.0222108010202646
1772649474176480000,4.72047998046875,-0.0679261197566986,0.0868208629060536,0.0702736327309161,-0.0398638471961021,0.0196183174848556,-0.0192403104156255
1772649474186451200,4.730451171875,0.041802082940936,0.0196345286659896,0.1521021672423929,-0.0306124091148376,0.0055794585496187,-0.0315300077199935
1772649474196423200,4.740423095703125,0.0602092617690563,-0.0464523929648101,0.2195158074323087,-0.0135082565248012,-0.003064630087465,-0.0384571589529514
1772649474206395100,4.75039501953125,-0.0904933408737182,-0.0535836330842226,0.3031999066825956,0.017627777531743,-0.0096141621470451,-0.0259732026606798
1772649474216367000,4.7603671875,-0.2328250055342912,-0.0503336913775652,0.3275315071236342,0.0475334785878658,-0.0169365238398313,0.0039040031842887
1772649474226338000,4.770338134765625,-0.2689209857881069,-0.1279060297492891,0.2393488543450832,0.0687684044241905,-0.028994970023632,0.031395673751831
1772649474236310300,4.780310302734375,-0.18670564391613,-0.2476933427117764,0.1033404744219034,0.0726731345057487,-0.0331428460776805,0.0407377742230892
1772649474246282000,4.790281982421875,-0.0456248560994863,-0.3194702926777303,-0.0766943864934146,0.0553715862333774,-0.0214478243142366,0.0384905450046062
1772649474256253200,4.800253173828125,0.0954968482494354,-0.2992226005494594,-0.2042621241990476,0.028074188157916,0.000589033588767,0.0203956980258226
1772649474266225200,4.81022509765625,0.2132598888427019,-0.2263685228712856,-0.1934593559600412,0.0063913720659911,0.0158248171210289,-0.0023463512770831
1772649474276197000,4.820197021484375,0.1754915914624929,-0.0948938408549874,-0.0390313761185854,0.0042105088941752,0.0233122948557138,-0.0089698992669582
1772649474286169000,4.830169189453125,0.1107744968801736,0.0291476224206388,0.1669176051888614,0.0177340395748615,0.0183612462133169,-0.0094968480989336
1772649474296140300,4.840140380859375,0.0010129764348268,0.112248588020727,0.2658789877437055,0.0377951003611087,0.0104953339323401,-4.10279608331e-05
1772649474306112000,4.850112060546875,-0.0856160902261733,0.0801012723274529,0.2421143004704266,0.0469758659601211,0.0033239270560443,0.018331553786993
1772649474316084200,4.860084228515625,-0.0674526570260524,0.047908656187728,0.1557061830837279,0.0532444156706333,0.0021081939339637,0.0223523937165737
1772649474326056200,4.87005615234375,0.0300724821805953,0.0157177936136722,0.0276160289391875,0.0519942753016948,0.0080926623195409,0.0233019348233938
1772649474336027100,4.880027099609375,0.1591021821975708,-0.0422186278525739,-0.0727327893860638,0.0380824543535709,0.0137888994067907,0.0014080887194722
1772649474345999400,4.889999267578125,0.2205290030628442,-0.0157509652309119,-0.1775507159493863,0.0239448510110378,0.0229119751602411,-0.015875244513154
1772649474355971000,4.89997119140625,0.2108592574417591,0.0309622706271707,-0.2020098152276128,0.0158608257770538,0.0342394635081291,-0.0228812228888273
1772649474365943300,4.909943359375,0.2052244664251804,0.0412772553492337,-0.1194190641719847,0.0160060189664363,0.0343092270195484,-0.0321793295443058
1772649474375914000,4.9199140625,0.2167833867937326,-0.0426571654003113,-0.0792332573212683,0.0146488724276423,0.0264864582568407,-0.0499942786991596
1772649474385886200,4.92988623046875,0.1312280868440866,-0.0500630577426403,-0.0553879060272127,0.0182450413703918,0.0205244123935699,-0.055661641061306
1772649474395858200,4.939858154296875,0.0133358669131994,-0.0297283449180424,0.0233275379650294,0.0241364855319261,0.0153549509122967,-0.0481762923300266
1772649474405830100,4.949830078125,-0.0882528684705495,-0.0674309566508978,0.0214455966759473,0.0288906581699848,0.0042860805988311,-0.0390082076191902
1772649474415801000,4.959801025390625,-0.1554232014238834,-0.0796206492036581,0.021432006542012,0.027440033853054,-0.0070206364616751,-0.0248697493225336
1772649474425773000,4.96977294921875,-0.1945657097667455,-0.0801715610846877,0.0487286673337221,0.0273775067180395,-0.022620216012001,-0.0041226097382605
1772649474435745300,4.979745361328125,-0.2820809116125106,-0.0689734368525445,0.0646407414104789,0.0322633422911167,-0.0264234766364097,0.0218730382621288
1772649474445717000,4.989717041015625,-0.3304500979840755,-0.0114079675905406,0.0700581633493304,0.0375926457345485,-0.0273411814123392,0.055385872721672
1772649474455688200,4.999688232421875,-0.2654781518578529,-0.0224636876773089,0.0816479903127998,0.0376855880022048,-0.0341966897249221,0.0757476016879081
1772649474465660200,5.00966015625,-0.1373971308678388,-0.0016910948920994,0.0481206184379756,0.0425610393285751,-0.0318307355046272,0.0898311957716941
1772649474475632000,5.019632080078125,0.0633405455321073,0.0223759363286197,0.039607933897525,0.0467858761548996,-0.0230204686522483,0.0881813690066337
1772649474485604000,5.02960400390625,0.2416086159706115,-0.0187586226142942,-0.0306990896463394,0.0473435446619987,-0.0127819795161485,0.0665542781352996
1772649474495575300,5.0395751953125,0.4205786971986293,-0.0581850624650716,-0.0628911212641745,0.043909665197134,-0.0085363667458295,0.0276484247297048
1772649474505547000,5.049547119140625,0.5073930572986602,-0.0731847709372639,-0.0592088525548577,0.0396143570542335,0.0032634399831295,-0.0191551931202411
1772649474515519200,5.059519287109375,0.4797808277517557,-0.0021156769797205,-0.0015836889948695,0.0425262600183486,0.0119096580892801,-0.0551131926476955
1772649474525491200,5.0694912109375,0.3574140927553176,0.0672373337749391,0.0361691185552626,0.0415540412068367,0.0109439361840486,-0.066985011100769
1772649474535462100,5.079462158203125,0.1610755280971527,0.0736935972422361,0.06132372581698,0.041234727948904,0.0049952333793044,-0.0659511759877204
1772649474545434000,5.08943408203125,0.0298310746401548,0.0491382710479199,0.0257993349060416,0.0438411124050617,0.0004151426255702,-0.0552099011838436
1772649474555406000,5.099406005859375,-0.0733954910784959,0.0387977865584194,0.0167594846863299,0.0392463617026805,0.0014585689641535,-0.0519629754126071
1772649474565378300,5.10937841796875,-0.1656406440556049,-0.0043484775330871,0.0150364602860063,0.0348804295063018,0.0029352121055126,-0.0401964597404003
1772649474575349000,5.119348876953125,-0.1995645409673452,-0.0194781690604984,0.0700800098549574,0.0372357293963432,-0.0069776056334376,-0.0219037383794784
1772649474585321200,5.1293212890625,-0.2866273228704929,-0.0216522982291877,0.0573510958589613,0.0380565673112869,-0.0081525389105081,0.0131359761580824
1772649474595293000,5.13929296875,-0.2977753243505954,-0.0525648844957351,-0.0617798720866441,0.0235878769308328,-0.0010927657131105,0.0499637648463249
1772649474605265200,5.14926513671875,-0.1555792687684297,-0.0580308948166668,-0.2190232746750116,0.0002503339201211,0.007541402708739,0.0593957044184207
1772649474615236000,5.159236083984375,0.1047282024532556,-0.0232647749271243,-0.1886527593959122,-0.0057015651836991,0.024544620886445,0.0428843721747398
1772649474625208000,5.1692080078125,0.4076373825609684,-0.0005951894141733,-0.0921688728705048,-0.0054034581407904,0.0239371582865715,-0.0044499216601252
1772649474635180300,5.17918017578125,0.5545628047525882,0.007595131304115,0.0314753347158432,0.0072753191925585,0.0012326468713581,-0.0559669099748134
1772649474645151200,5.189151123046875,0.3897878376156091,0.0614693448327481,0.1723325429096817,0.0217392202466726,-0.0128260143101215,-0.0794136524200439
1772649474655123200,5.199123291015625,0.0362228215038776,0.0893101955037563,0.1565291168391704,0.0248167682439088,-0.0152662685140967,-0.0610969588160514
1772649474665095200,5.20909521484375,-0.3125274878025055,0.1071908662397414,0.0308687471248209,0.0171724297106266,-0.0009711859747767,-0.0144244385883212
1772649474675067100,5.219067138671875,-0.3722703011035919,0.0990916578710079,-0.0309262494657188,0.001420896500349,0.0178139545023441,0.0207117088139057
1772649474685038000,5.2290380859375,-0.1088613567352294,0.0798312962796539,-0.0571100536447018,-0.0045057525858283,0.0237456243485212,0.0209649223834276
1772649474695010300,5.23901025390625,0.2646352712929248,0.0641064884033054,0.051868938120827,-0.0001765177585184,0.0133065655827522,-0.0155400931835174
1772649474704982000,5.24898193359375,0.455441920787096,0.0716177408162504,0.1155977523181587,0.0077980519272387,-0.002033774042502,-0.0569277480244636
1772649474714954200,5.258954345703125,0.3082669077485799,0.0739423113062977,0.0627692484501749,0.0161928683519363,0.0021780151873826,-0.0646210834383964
1772649474724925000,5.268925048828125,0.0323556246817111,0.0520218636602163,0.0337253055997192,0.0207963548600673,0.0050233830697834,-0.0460537560284137
1772649474734897400,5.2788974609375,-0.098987028452754,-0.0265535142742097,-0.0365548299372196,0.0238334238529205,-0.0032920707017183,-0.0238616373389959
1772649474744869400,5.288869384765625,-0.0952992798507213,-0.1373873401261866,-0.1093530857749283,0.0212672557681798,-0.0104453675448894,-0.010689677670598
1772649474754841300,5.29884130859375,-0.0683569123893976,-0.2202772202588617,-0.1494545022778212,0.0127685759216547,-0.0092253740876913,-0.0072065293788909
1772649474764812500,5.3088125,0.0031897359520196,-0.2672037335414439,-0.2273763116743415,-0.0071881944313645,-0.0051485137082636,-0.0108161075040698
1772649474774784300,5.3187841796875,0.0353682505011558,-0.2779601053554564,-0.198295324749127,-0.0237104445695877,0.0034479037858545,-0.0178156942129135
1772649474784755500,5.32875537109375,0.0471837759792804,-0.1703254408709704,-0.0359392553221434,-0.0317814201116561,-0.0006789637263864,-0.0221567377448081
1772649474794727400,5.3387275390625,-0.0047960021048784,-0.0369900064840912,0.1330719611451029,-0.0264295302331447,-0.0073302085511386,-0.0148530174046754
1772649474804699400,5.348699462890625,-0.1247679509192705,0.0866250480730086,0.274429081685096,-0.0052971425466239,-0.0095463115721941,0.0067538716830313
1772649474814671400,5.35867138671875,-0.2086030029475689,0.1623098921976983,0.3150388861015439,0.0126914456486701,-0.012176183052361,0.0354592874646186
1772649474824642300,5.368642333984375,-0.1900128687679767,0.0888495922546833,0.1782383328873664,0.0202965848147869,-0.0122276023030281,0.0600640848278999
1772649474834614300,5.3786142578125,-0.0436544328093528,-0.0091989863041788,0.0172621735114604,0.0109733920544385,-0.0060197738930583,0.0564501769840717
1772649474844586500,5.38858642578125,0.160537767958641,-0.0589429681602865,-0.0989550258792936,0.0092783942818641,-0.0043007964268326,0.0398237258195877
1772649474854558500,5.398558349609375,0.2934738277643919,-0.1071572562310844,-0.1212061667844653,0.0040095965377986,-0.0019649376627057,0.014413439668715
1772649474864529400,5.408529296875,0.3011608751356601,-0.1244242520481348,-0.1754767592195421,-0.0078288447111845,0.0054491758346557,-0.0046307197771966
1772649474874501400,5.41850146484375,0.2182540438681841,-0.1007778573922812,-0.1777716652236878,-0.0133975148200988,0.0132250729948282,-0.0136343352496624
1772649474884473300,5.428473388671875,0.1145551844626665,-0.0316703458312898,-0.106822325188294,-0.0066216839477419,0.0140631515532732,-0.0106434859335422
1772649474894445300,5.4384453125,0.0665665218412876,-0.0217317932061851,-0.0022425182297825,0.0021771341562271,0.0163209792226552,-0.0088498471304774
1772649474904416300,5.448416259765625,0.0824345375806093,-0.0384342139430344,0.0259351631801575,0.0039825406856834,0.0066718328744173,-0.0128921121358871
1772649474914388500,5.458388427734375,0.043611178189516,-0.0717008890550583,-0.0057113633841276,0.0028890469111502,0.0018198201432824,-0.0098680928349494
1772649474924360200,5.468360107421875,-0.0867617531299591,-0.0192737325295805,0.0592617517858743,0.0026615583337843,0.0021661110222339,-0.0007213397766463
1772649474934332400,5.47833251953125,-0.1609492713689804,0.0331656989555805,0.1438514215737581,0.009210005402565,-0.0062143239192664,0.0160965230315923
1772649474944303400,5.488303466796875,-0.2203513084083795,0.0745931033652275,0.2220912108782678,0.0224754270166158,-0.0105688786134123,0.0370085798203945
1772649474954275300,5.498275390625,-0.2009235543608665,0.0655398822072893,0.189234212545678,0.0300486590713262,-0.0152746839448809,0.0476705469191074
1772649474964247600,5.50824755859375,-0.0752069244146347,0.0121752987012267,0.1034156585499644,0.0306195840239524,-0.0132716409862041,0.0523237511515617
1772649474974219300,5.51821923828125,0.0666524465590715,0.0154110657520592,0.0484871136628091,0.0319074876606464,-0.0159222856163978,0.047369472682476
1772649474984190500,5.5281904296875,0.1679015747249126,-0.0488390689056366,-0.0352945276778191,0.0327680110931396,-0.0090772416442632,0.0319025032222271
1772649474994162400,5.538162353515625,0.2712941446602344,-0.0595349427040666,-0.1305550098881125,0.0185837503522634,-0.0002621789462864,0.011620401404798
1772649475004134400,5.548134521484375,0.3045809127122164,-0.0511409161072224,-0.1627192767161875,0.0032288115471601,0.011486642062664,-0.0076831090264022
1772649475014106400,5.5581064453125,0.2777677245885133,-0.0244347685545682,-0.1318314595647156,-0.0020956462249159,0.013893075287342,-0.0253329426050186
1772649475024077300,5.568077392578125,0.1976075616806745,0.0404315252400934,-0.0990497184254229,-0.0032568397000432,0.0162713564932346,-0.0281946491450071
1772649475034049300,5.57804931640625,0.0900561185002326,0.0666513505805283,-0.0684700904402881,0.0002974150702357,0.0105783175677061,-0.0243770070374012
1772649475044021200,5.588021240234375,0.0455798479139804,0.0244194979202002,-0.0606687690395861,-0.0018453076481819,-0.0080631235614418,-0.0218019485473632
1772649475053993500,5.597993408203125,-0.0363870721548795,-0.0592711772013455,-0.0654431438345462,-0.0044440203346312,-0.0215578936040401,-0.0138526782393455
1772649475063964400,5.60796435546875,-0.2075812586843967,-0.095240608466044,-0.0934208456929773,-0.014493303373456,-0.0168383121490478,0.0091360695660114
1772649475073936400,5.617936279296875,-0.296314019626379,-0.1060433767050504,-0.1044738623660057,-0.027396585792303,-0.0012902459129691,0.0431028231978416
1772649475083908400,5.627908447265625,-0.1620949342727661,-0.1074127653621137,-0.0576964021652936,-0.0324491821229457,0.0138042643666267,0.0513422340154647
1772649475093880300,5.63788037109375,0.1443318985670804,-0.0626645459666848,0.0084618311360478,-0.0279694814234972,0.0111187333241105,0.0298611763864755
1772649475103851300,5.647851318359375,0.3050631432712078,-0.0351019277151674,0.0710247433591634,-0.024100013077259,0.0094389375299215,-0.000316805584589
1772649475113823500,5.657823486328125,0.2575029351949691,-0.0001326134037226,0.101491704750061,-0.0212879814207553,0.0227568745613098,-0.0159082822501659
1772649475123795200,5.667795166015625,0.1621960565596819,0.0494294360142201,0.115460608869791,-0.0266425348818302,0.022971523925662,-0.0212306100875139
1772649475133767400,5.677767333984375,0.1071001922816038,0.0323522636808455,0.0985850965883582,-0.026261169463396,0.0230253208428621,-0.0271207224577665
1772649475143739400,5.687739501953125,0.0257645558536052,0.0210127582166343,0.1467673090204596,-0.0252409148961305,0.020234627649188,-0.0304168257862329
1772649475153710300,5.69771044921875,-0.0057370823472738,0.0511253532119095,0.1206551818381994,-0.0275799706578254,0.0255609489977359,-0.0258407164365053
1772649475163682600,5.7076826171875,-0.0520984360277652,0.0651212914690375,-0.0108821170855313,-0.0357767529785633,0.0304639227688312,-0.0156625770032405
1772649475173654300,5.717654296875,-0.1075637181401252,0.0825124981876462,-0.0611534107513725,-0.034074991941452,0.0401000380516052,0.0056965067051351
1772649475183626500,5.72762646484375,-0.0744049603819847,0.0517924388185143,-0.0817172561567276,-0.0316434726119041,0.0484652146697044,0.0130467051640152
1772649475193597400,5.737597412109375,0.0629226123809814,-0.0357272930718958,-0.0950524654828011,-0.0312301479279994,0.0435852371156215,0.0092274658381938
1772649475203569400,5.7475693359375,0.1805266630202531,-0.1399154703643172,-0.1207988280925899,-0.0300893578678369,0.0295979082584381,-0.0019408715888857
1772649475213541400,5.757541259765625,0.2669675136327743,-0.195937947968021,-0.1351830350149422,-0.0326417312026023,0.0239967480301857,-0.0205529052764177
1772649475223513300,5.767513427734375,0.2981125934809446,-0.1953549604482948,-0.1453698633126914,-0.032247107475996,0.0177288129925727,-0.0445191003382205
1772649475233484300,5.777484375,0.1834691462129354,-0.1732181666377932,-0.0852598971996456,-0.0262917466461658,0.0083656702190637,-0.0524478629231452
1772649475243456300,5.787456298828125,-0.0253097978234291,-0.115835944988206,0.0292068052619695,-0.0233403220772743,0.0067817289382219,-0.0365967154502868
1772649475253428500,5.797428466796875,-0.2459744099646806,-0.0217426799263805,0.1259676820978522,-0.0058707832358777,0.0086019989103078,0.0008947366150096
1772649475263400200,5.807400146484375,-0.3554693884283304,0.0570404224745929,0.2223680550582706,0.0096501745283603,-0.0004413765855133,0.0354983918368816
1772649475273371400,5.817371337890625,-0.3407043654948473,0.0194096338689327,0.2071880215831101,0.0181789472699165,-0.0052433223463594,0.0615574233233928
1772649475283343400,5.82734326171875,-0.2107388459324836,-4.10626627504e-05,0.1424178816393017,0.0203857477754354,-0.007772053591907,0.0767103061079979
1772649475293315300,5.8373154296875,-0.0916255597740411,-0.0316547829359769,0.04272255878672,0.0141166653484106,-0.0041940971277654,0.0784645304083824
1772649475303287300,5.847287353515625,0.0707002606451511,-0.0239984229639172,-0.026137042427808,0.0037430170923471,0.0012177727185189,0.0626783519983291
1772649475313258500,5.857258544921875,0.2074637697845697,0.0184378662273287,-0.0963846639346331,-0.0020842459052801,0.0038748090155422,0.0458618178963661
1772649475323230200,5.867230224609375,0.2688455824643373,0.0521554269120097,-0.0251347335174679,0.0068112444132566,0.0027794507332146,0.0283976066857576
1772649475333202400,5.877202392578125,0.275899592629075,0.0481345008328557,-0.0104338618613779,0.0106219621375203,-0.0057181636802852,0.0133536765351891
1772649475343174400,5.88717431640625,0.2655968098014593,0.0522727696813642,-0.0391696886107325,0.0130283962935209,-0.0047240387648344,-0.0016290917992591
1772649475353145300,5.897145263671875,0.1590086586952209,0.0494874498117715,-0.0247498989183455,0.0097345970571041,-0.005654813721776,-0.0046126311644911
1772649475363117600,5.90711767578125,0.0231225169122219,0.0036301001306623,-0.0731143360495567,0.0061079040169715,0.0012382790446281,0.00437802542001
1772649475373089300,5.91708935546875,-0.0448451038986444,-0.0072064973127096,-0.0733512135453522,0.0016950462013483,0.0063632666133344,0.0147843267768621
1772649475383061500,5.9270615234375,0.0151537299901247,0.0262661487001925,-0.0375062123779207,-0.0036076814867556,0.0003800685517489,0.0135338678956031
1772649475393032200,5.9370322265625,0.0704296270102262,0.0029570231746882,-0.0674663932904601,-0.0067195855081081,-0.0023446115665137,0.0084951668977737
1772649475403004400,5.94700439453125,0.0656751259595155,-0.0185141463339328,-0.0084947835575789,-0.0025991452857851,-0.003610644955188,0.0050752265378832
1772649475412976400,5.956976318359375,0.0236287128686904,0.0089837361183017,0.0551074085853993,0.0011306121014058,-0.0043070614337921,0.005110646598041
1772649475422948400,5.9669482421875,-0.0024023849666118,-0.008768632062897,0.0447469772864133,0.0083793625235557,-0.0105949249118566,0.0138238705694675
1772649475432919300,5.976919189453125,-0.0557370847910642,-0.0098557697124779,0.0225502699822187,0.0122207067906856,-0.0082790395244956,0.0306268204003572
1772649475442891300,5.986891357421875,-0.0530675733208656,-0.0587216535598039,-0.0062036769457161,0.0066215731203556,0.0062192687764763,0.0403015278279781
1772649475452863500,5.996863525390625,0.0868827491611242,-0.0710998544219881,-0.1011301779612898,-0.0020757787860929,0.0091524748131632,0.0322891436517238
1772649475462835200,6.006835205078125,0.2310889755219221,-0.081001362972334,-0.1291708620533347,-0.008474338799715,0.0132300220429897,0.0129304798319935
1772649475472806400,6.016806396484375,0.3214303407043218,-0.0679216627772897,-0.0586892856601625,-0.0095364078879356,0.0167882703244686,-0.0111934980377554
1772649475482778400,6.0267783203125,0.3409270683348178,-0.0364656903490424,0.041227790184319,-0.004728018771857,0.0124574247747659,-0.0417412295937538
1772649475492750300,6.036750244140625,0.2381289571613073,0.002621142283827,0.0811006586283445,-0.0039237444289028,0.01486012712121,-0.0527209118008613
1772649475502722300,6.046722412109375,-0.0099099841177463,0.061816550835222,0.0804263395633548,-0.0076147834770381,0.0221467763185501,-0.033440314233303
1772649475512693500,6.056693603515625,-0.2042904004454612,0.0655074412424117,0.0599869973205029,-0.0108076473698019,0.0225864648818969,-0.0086854333057999
1772649475522665200,6.066665283203125,-0.2238894194066524,0.0204375886771827,0.0636371903911233,-0.0159868001937866,0.0142982341349124,0.013828644528985
1772649475532637400,6.076637451171875,-0.1780114653289318,0.0021877193026244,0.0339211934980005,-0.0255054719746112,0.01477094553411,0.0260027535259723
1772649475542609400,6.086609375,-0.1366828451186418,0.0096029639951884,-0.009730024440959,-0.035823356360197,0.0151496808975934,0.0276795700192451
1772649475552580400,6.096580322265625,0.0129606038600206,0.0205654528405517,-0.0696004096444696,-0.045980654656887,0.0148391555994749,0.0187838114798069
1772649475562552600,6.106552490234375,0.1974701990365981,0.0750690503139048,-0.0930587343823164,-0.0504397936165332,0.0124216573312878,-0.0032991599291563
1772649475572524300,6.116524169921875,0.2816594713300466,0.1240927550714462,-0.0673438628893345,-0.045747835189104,0.005830068141222,-0.0269589498639106
1772649475582496500,6.12649658203125,0.3139730104357004,0.0848428408313542,-0.0705932200741022,-0.0427199862897396,-0.004683053586632,-0.0507674999535083
1772649475592467200,6.13646728515625,0.2342792959958314,0.02833637910299,-0.0775035839844495,-0.0367752760648727,-0.0152560696005821,-0.0636215060949325
1772649475602439400,6.146439453125,0.0655167205274105,0.0183824827782809,-0.1410669054217636,-0.0366298705339431,-0.0188153497874736,-0.0499053411185741
1772649475612411100,6.1564111328125,-0.0781599290013313,-0.0528671553779393,-0.1325683224719017,-0.0379710383713245,-0.022982932627201,-0.0343807116150856
1772649475622383400,6.16638330078125,-0.1878928078740835,-0.1257378919299691,-0.0921922537460923,-0.0470906049013137,-0.0166693478822708,-0.0177991818636655
1772649475632354300,6.176354248046875,-0.2398018588095903,-0.0804603148981928,-0.0619104396637529,-0.0521886944770813,-0.0080638760700821,0.0066989702172577
1772649475642326300,6.186326171875,-0.1809293986022472,0.0070736647132784,0.0482706944331526,-0.0461722426116466,-0.0124780926853418,0.0235230680555105
1772649475652298500,6.196298583984375,-0.0805640675336122,0.0662264762319624,0.2200350090008229,-0.0234293788671493,-0.0242785587906837,0.0338249765336513
1772649475662270200,6.206270263671875,-0.0141805010437965,0.1046613477621227,0.292637596135959,0.001466117799282,-0.0347469449043273,0.040782656520605
1772649475672241400,6.216241455078125,0.0052495910912752,0.0487884346969425,0.250159732825309,0.0107291247695684,-0.0282712038606405,0.0453800745308399
1772649475682213400,6.22621337890625,0.0206768773257732,-0.0067585343495011,0.1094490204300731,0.0136401206254959,-0.0260617509484291,0.0410035066306591
1772649475692185300,6.236185302734375,0.0792687670260667,-0.0996230613339692,-0.015507000407204,0.0078959483653306,-0.03071322850883,0.0290765389800071
1772649475702156300,6.24615625,0.0906722045719623,-0.1533811742022633,-0.096121921345219,-0.0043053771369159,-0.0193297676742076,0.0243089832365512
1772649475712128500,6.25612841796875,0.0853764362514019,-0.159705993309617,-0.1839317222233861,-0.02268598228693,-0.0068163713440299,0.020712649449706
1772649475722100200,6.266100341796875,0.1325134504795074,-0.1024709250457584,-0.200978134092316,-0.0442575365304946,0.0091644451022148,0.0155187426134943
1772649475732072700,6.27607275390625,0.1886579470276832,-0.016180734950304,-0.0763464498385787,-0.0424907952547073,0.0153184784576296,0.0051374742761254
1772649475742043400,6.28604345703125,0.2028191588491201,0.040480259752646,0.0704421211656183,-0.0282560866326093,0.0095091313123703,-0.002645690459758
1772649475752015600,6.296015625,0.1444891349554062,0.0248253753073513,0.1137385343175381,-0.013101102784276,0.0044147712178528,-0.0066633350215852
1772649475761987300,6.3059873046875,0.0829705441534519,-0.0462556282836943,0.0168016433276236,-0.0172635726630687,-0.0008758781477808,-0.0053426176309585
1772649475771959600,6.31595947265625,-0.0131061498105525,-0.1005170144990086,-0.0561745263602584,-0.0256852880120277,0.0002186810597777,0.0036519425921142
1772649475781930500,6.325930419921875,-0.0836912596434354,-0.1435532423447817,-0.0609270546495914,-0.0252150781452655,-0.0062234452925622,0.0148023106157779
1772649475791902500,6.33590234375,-0.1267085635930299,-0.1394849699925631,0.0074135641921311,-0.0269650407135486,-0.0073773926123976,0.0239579938352108
1772649475801874400,6.34587451171875,-0.1137853691339492,-0.1072773024141788,0.0239788414806127,-0.0256566312164068,2.54292972385e-05,0.0367953181266784
1772649475811846400,6.355846435546875,-0.0237362648963928,-0.0844716694314032,0.0319173793949186,-0.0254172123968601,0.0048478809185326,0.0334525182843208
1772649475821817300,6.3658173828125,0.0703618224710226,-0.060774421371147,0.0635715047437697,-0.022012572735548,0.0120793487876653,0.0256938058882951
1772649475831789600,6.37578955078125,0.1204839899897575,-0.0217835233934223,0.066499447954446,-0.0197624675929546,0.0219223909080028,0.0182779673486948
1772649475841761500,6.385761474609375,0.1594932273417711,0.0231096574306488,0.0982194050811231,-0.0119420941919088,0.0206709410995244,0.0038592552300542
1772649475851733500,6.3957333984375,0.1917693570464849,0.0479250958658754,0.155361022907868,0.0053530065342783,0.0104665048420429,-0.0068463855423033
1772649475861704700,6.40570458984375,0.0803226599931716,0.0789049021497368,0.1497541428115218,0.0177393145859241,0.0114924339577555,-0.0024472498334944
1772649475871676400,6.415676513671875,0.0346364290952682,0.0781789990279823,0.0726080670278519,0.0228565782308578,0.008137384429574,0.0018255256582051
1772649475881648600,6.425648681640625,0.0434013348311185,0.0306898103613406,-0.0423734530881047,0.016671385616064,0.0069831702858209,0.0039888112805783
1772649475891620400,6.435620361328125,0.0031090719312429,-0.0173988055031746,-0.151941058396548,0.0022615543566644,0.0058241626247763,0.0122616551816463
1772649475901591600,6.445591552734375,-0.0226993230640888,-0.0106879827529191,-0.2093460763998329,-0.0096353217959404,0.0200252700597047,0.0188907105475664
1772649475911563500,6.4555634765625,0.0543856701821088,-0.0299800546567887,-0.2039854992147535,-0.019058384001255,0.0251606423407793,0.0166294202208518
1772649475921535500,6.465535400390625,0.2212450423777103,-0.0292929491754621,-0.1213577040843665,-0.021375123411417,0.0150630800053477,-0.0105866286903619
1772649475931507700,6.4755078125,0.2541863579928874,0.0063149553004652,-0.0554305761251598,-0.0145353265106678,-0.0005257327575236,-0.0309744570404291
1772649475941478400,6.485478515625,0.1022176809370517,0.0426143491718918,-0.0108498953163623,-0.0144838746637105,-0.0003734459169209,-0.0254921093583107
1772649475951450600,6.49545068359375,-0.0341050986975431,0.0117537853535264,0.013244243106991,-0.0129696018993854,-0.0056177424266934,-0.0099182100966572
1772649475961422300,6.50542236328125,-0.0669879621237516,0.0160010675344616,0.0163635441713035,-0.0057877949438989,-0.014718210324645,0.0013156703207641
1772649475971394600,6.51539453125,-0.0795885004997253,0.0034345775585621,0.0624280337970703,-0.0001951567828655,-0.0101578123867511,0.0168746560811996
1772649475981365500,6.525365478515625,-0.0530336710512638,-0.0795415195528417,0.0457583462860435,-0.0017508713062852,-0.0112636182457208,0.0218776911497116
1772649475991337500,6.53533740234375,0.020386369946599,-0.1135314674381166,-0.0269435365051031,-0.0148943699896335,0.0002907728776335,0.0201263967901468
1772649476001309400,6.545309326171875,0.080832947602868,-0.086210695118457,-0.0338186829715967,-0.0230393260717391,0.0135668171569705,0.0084874583408236
1772649476011281400,6.555281494140625,0.13243395550251,-0.048980961594358,0.0637452538754791,-0.0228534378111362,0.0204023532569408,-0.0030466923490166
1772649476021252400,6.56525244140625,0.186940621715784,-0.0162828801505267,0.1177604833099991,-0.0161123406141996,0.0178216900676488,-0.0172628909349441
1772649476031224600,6.575224609375,0.2076695214897394,0.0049961277868598,0.1237507367007434,-0.006976899690926,0.0172485765069723,-0.0320524908602237
1772649476041196500,6.585196533203125,0.1952577836841344,0.0279657922249287,0.1224011487226933,-0.0020291171967983,0.0222436636686325,-0.0391511693596839
1772649476051168500,6.59516845703125,0.1306470720857381,0.0293464329283684,0.029580241684243,-0.0041468627750873,0.0359959602355957,-0.0453741773962974
1772649476061139500,6.605139404296875,0.0843161135435104,-0.0229191032946109,-0.0198773244459182,-0.0078238379210233,0.0346547774970531,-0.0439796857535839
1772649476071111400,6.615111328125,0.005675123026967,-0.0849582108393311,-0.0722157067093998,-0.0136814601719379,0.0318531319499015,-0.0359896719455719
1772649476081083600,6.625083740234375,-0.0310234992951154,-0.0883054023753851,-0.0650551674302667,-0.0167973041534423,0.031741164624691,-0.0299801994115114
1772649476091055400,6.635055419921875,-0.101053313332796,-0.077356138337776,-0.0422024073701351,-0.0077305710874497,0.0152948163449764,-0.0131463594734668
1772649476101026600,6.645026611328125,-0.1665501601159572,-0.085335227458179,-0.0398095939494669,-0.0001069055870175,0.0020365417003631,0.0073601836338639
1772649476110998300,6.654998291015625,-0.1477899300664663,-0.0942214945513755,-0.0118945089984685,0.0082612792029976,-0.0163147691637277,0.0171145424246788
1772649476120970500,6.664970458984375,-0.1419657539576292,-0.1242210576262324,-0.0251126678161323,0.0168536007404327,-0.0316122062504291,0.0228684581816196
1772649476130942500,6.6749423828125,-0.137225281432271,-0.1340832570794969,0.0001553366921842,0.0190682858228683,-0.0475586801767349,0.0320513024926185
1772649476140913400,6.684913330078125,-0.1778074671894312,-0.1256978521805256,-0.0510923277251422,0.015742365270853,-0.059069987386465,0.0513405986130237
1772649476150885600,6.6948857421875,-0.2005389389574527,-0.0830308229733258,-0.0852866390760987,0.0031211134046316,-0.0364333875477314,0.0706075057387352
1772649476160857300,6.704857421875,-0.0635176556646823,-0.0133010147955268,-0.1134537260267883,-0.016135137528181,-0.0155244097113609,0.0766170993447303
1772649476170829600,6.71482958984375,0.1830757629811763,0.0620888649705797,-0.0334038916256278,-0.0176869593560695,-0.0108143426477909,0.058128111064434
1772649476180800500,6.724800537109375,0.442452090832591,0.0629007658753544,0.0513886803232133,-0.0173779278993606,-0.0135388821363449,0.0172391030937433
1772649476190772500,6.7347724609375,0.5088122764468193,0.0724565297279506,0.1247912587296217,-0.0100422501564025,-0.010943897999823,-0.0184073075652122
1772649476200744400,6.744744384765625,0.3754845869749784,0.0996937154173851,0.1989845491223037,0.008556361310184,-0.0111839892342686,-0.0407191067934036
1772649476210716400,6.75471630859375,0.1137327621638774,0.0741081693924963,0.2120714827757328,0.0130224814638495,-0.0033162124454975,-0.0339506827294826
1772649476220687400,6.764687255859375,-0.1295540161520242,0.0433994351349771,0.1108183360219001,0.0086285844445228,0.0121346358209848,-0.0070934500545263
1772649476230659600,6.77465966796875,-0.1928372785389423,0.0255446294926106,-0.011818448087573,0.0031901425682008,0.0252022352069616,0.0152020025998353
1772649476240631600,6.784631591796875,-0.068917468881607,-0.0449159041125327,-0.0390993998534977,0.0028832438401877,0.0303269829601049,0.0167166963219642
1772649476250602500,6.7946025390625,0.1586217052042484,-0.1299911654602736,-0.0288044350061565,0.0014869482256472,0.0251170415431261,-0.0004194140492472
1772649476260574500,6.804574462890625,0.2690817293077707,-0.1764319410525262,0.0112546767249703,0.0106963720172643,0.0190728083252906,-0.0288368146866559
1772649476270546400,6.81454638671875,0.2253524776965379,-0.1401048554565757,0.1012726551719009,0.030492179095745,0.0047793579287827,-0.0380300469696521
1772649476280518700,6.8245185546875,0.0274310277611017,-0.1433371884413063,0.1586439901012927,0.0459290333092212,-0.0017574641387909,-0.0260509513318538
1772649476290489300,6.8344892578125,-0.2269055523574352,-0.1622743094276637,0.15401216558218,0.0602903924882411,-0.006574323400855,0.00978241302073
1772649476300461600,6.844461669921875,-0.4001782987266779,-0.1388929223835468,0.092677699175477,0.0578604266047477,-0.0129951443523168,0.0451590232551097
1772649476310433300,6.854433349609375,-0.4166764290630817,-0.1314495475750416,-0.0635378947351127,0.0422625541687011,-0.0074597643688321,0.0818211659789085
1772649476320405500,6.864405517578125,-0.278452784243226,-0.0922924261849373,-0.0567797987770289,0.0266727246344089,0.0102178193628788,0.10364281386137
1772649476330376400,6.87437646484375,-0.0066489364951848,-0.0416536874461919,-0.0020776099916547,0.0181671194732189,0.0107587072998285,0.0895043611526489
1772649476340348400,6.884348388671875,0.2905582325786352,0.0043349604643881,0.03486161615327,0.0149995069950819,0.0149672795087099,0.0536335594952106
1772649476350320600,6.894320556640625,0.4046469685733318,0.0717955816011875,0.0880215439327061,0.0252311062067747,0.0168083235621452,0.0174822155386209
1772649476360292400,6.904292236328125,0.3701379652500152,0.1271836337588727,0.1368362821146845,0.0399874672293663,0.0230132099241018,0.0007943706586956
1772649476370263600,6.914263671875,0.2626537420868873,0.1050217055071145,0.058753217741847,0.0445782244205474,0.0119528342038393,-0.0022658677771687
1772649476380235500,6.924235595703125,0.0712514647871255,0.0703017628468573,-0.0932931276600807,0.0409212261438369,0.0195155665278434,0.0118404123932123
1772649476390207500,6.93420751953125,0.0028442835152149,0.0232910784121602,-0.1819849720697849,0.0254527870565652,0.0284619219601154,0.0184027086943388
1772649476400179500,6.944179443359375,0.0677507631897926,-0.0265701000828295,-0.2309987399552017,0.0093917399644851,0.0199721455574035,0.0064820838160812
1772649476410150400,6.954150390625,0.1371206520140171,-0.0129099696513265,-0.1791289981167763,0.0053368113003671,0.0011353413574397,-0.0026107472367584
1772649476420122400,6.964122314453125,0.0768546916216611,0.02282521446608,-0.0328553908973932,0.0111597059294581,-0.0209064502269029,-0.0080634085461497
1772649476430094600,6.974094482421875,-0.0171855280786752,0.0625561171561479,-0.0044363019470125,0.0175816528499126,-0.0378156602382659,0.0041304072365164
1772649476440066600,6.984066650390625,-0.1452647955030202,0.0590736818678677,-0.0835341693855822,0.0168358106166124,-0.0401383973658084,0.0259671863168478
1772649476450037500,6.99403759765625,-0.1532388431221246,0.0325842458058148,-0.0957653629925101,0.0127366743981838,-0.0497489459812641,0.0399658270180225
1772649476460009500,7.004009521484375,-0.1387567287832498,-0.0025747458588331,-0.0961492477435618,0.0112541439011693,-0.0520190373063087,0.0501000098884105
1772649476469981400,7.0139814453125,-0.1225461832165718,-0.0102426501382142,-0.0759316584926098,0.0094059091061353,-0.0460737980902195,0.0593989714980125
1772649476479953400,7.023953369140625,-0.0863514187633991,0.0068710548132658,-0.0569892768092453,0.0028459033928811,-0.0412634685635566,0.065693512558937
1772649476489924400,7.03392431640625,0.0127554366767406,0.0080919749103486,-0.0628713205851614,-0.0093620270490646,-0.0370777770876884,0.0643283724784851
1772649476499896600,7.043896484375,0.2139209830999374,-0.0240371475391089,-0.0703977705672383,-0.0221169721335172,-0.01849234290421,0.0436759181320667
1772649476509868300,7.053868408203125,0.4106067537605762,-0.0053808162555098,0.0115958913780748,-0.020418407395482,-0.0095009785145521,0.0039711147546768
1772649476519840500,7.063840576171875,0.4979395847767591,0.037578766157478,0.0878347891889512,-0.0132274972274899,-0.0126127749681472,-0.0360649675130844
1772649476529811500,7.0738115234375,0.3800777599841356,0.0505569056741893,0.0728705904215574,-0.0130799580365419,-0.0027923686429858,-0.0552610345184803
1772649476539783400,7.083783447265625,0.1514344240486621,0.0946676308836787,0.0461284217074513,-0.0176514890044927,0.02943080291152,-0.049909621477127
1772649476549755600,7.093755615234375,0.0078103814899921,0.1215611177019774,0.0259732301682233,-0.0260564256459474,0.0615400001406669,-0.0318773612380027
1772649476559727400,7.103727294921875,0.0707511140495538,0.14543313780725,0.138418875131011,-0.014497079886496,0.0693207532167434,-0.033322412520647
1772649476569698600,7.113698486328125,0.2814619029313325,0.0933176045142114,0.2763780968610197,0.0133076533675193,0.0392054617404937,-0.0667189806699752
1772649476579670500,7.12367041015625,0.2847814027428627,-0.0077978873346,0.4004945250689983,0.051398366689682,0.0062906085513532,-0.089021660387516
1772649476589642500,7.133642578125,0.0298521174281835,-0.0413533162601292,0.3590724544215947,0.0729753002524375,-0.0123805478215217,-0.0867417305707931
1772649476599614500,7.143614501953125,-0.2790571798771619,-0.1158864330664277,0.1037549735069274,0.0709165707230568,-0.021645026281476,-0.0558941736817359
1772649476609585400,7.15358544921875,-0.4793564648598432,-0.1845195320487022,-0.1249053135633468,0.0517809577286243,-0.0142102790996432,-0.0120044806972146
1772649476619557600,7.1635576171875,-0.4864093059808015,-0.2084740428056568,-0.2191528924040496,0.0297313705086708,-0.0060509988106787,0.0209950637072324
1772649476629529600,7.173529541015625,-0.2412806991904973,-0.1433345580928027,-0.1969549429908394,0.0220393612980842,-0.0034853094257414,0.0282926578074693
1772649476639501600,7.18350146484375,0.0361526788771152,-0.0849935744136571,-0.1740120934944599,0.0175365954637527,-0.0026808618567883,0.0190306454896926
1772649476649472500,7.193472412109375,0.2504781511247158,-0.0578957241296768,-0.1365926826171576,0.0137133616954088,-0.0016488868277519,-0.0081069646403193
1772649476659444500,7.203444580078125,0.3768909466415643,-0.0197009449657052,-0.0545307777412235,0.0208380557596683,-0.0112742036581039,-0.0325725860893726
1772649476669416400,7.21341650390625,0.3457949666321277,-0.0083715955693274,-0.0182391287848353,0.0239768587052822,-0.0223385728895664,-0.0460865311324596
1772649476679388400,7.223388427734375,0.1968365773081779,0.011734934522584,-0.0009865998845547,0.0293100029230117,-0.0349914915859699,-0.0366880819201469
1772649476689359400,7.233359375,-0.0469219101727008,0.0304553440183401,0.0336036519814282,0.0414478927850723,-0.0420153103768825,-0.0124442595988512
1772649476699331600,7.24333154296875,-0.1926332803994417,-0.0075707275152206,0.032863647269085,0.0461047515273094,-0.0407930016517639,0.0172527898102998
1772649476709303600,7.253303466796875,-0.2000502786576747,-0.128726333156228,-0.0235958335123956,0.0364188328385353,-0.0354783982038497,0.0261173881590366
1772649476719275500,7.263275634765625,-0.089499653661251,-0.1743617106497287,-0.0780233700748533,0.0230296310037374,-0.0254498235881328,0.0222562663257122
1772649476729246700,7.273246826171875,-0.0013531681746244,-0.1469173850156366,-0.0673739657666534,0.0051971045322716,-0.0049983444623649,0.0088794762268662
1772649476739219000,7.283218994140625,0.0849848065853118,-0.0772221366945654,-0.0234997527267783,-0.0076884431764483,-0.0027755107730627,-0.0029495011549443
1772649476749191200,7.293191162109375,0.1124070665180683,-0.0299462985176593,0.0110636841975152,-0.0118967704474926,-0.0105601968243718,-0.0119661651551723
1772649476759161900,7.303161865234375,0.0233621708869934,0.0040576048277318,0.0674554335050284,-0.0191635228693485,-0.0118422294035553,-0.0060822335071861
1772649476769134000,7.313134033203125,-0.1132476089954376,0.0767217859569937,0.1485801305960863,-0.0108161102980375,-0.0028047924861311,0.0202622897922992
1772649476779105800,7.323105712890625,-0.1899146690905094,0.1500000803966075,0.1794211859963834,0.0011558597907423,-6.77951611578e-05,0.0441174693405628
1772649476789078000,7.333078125,-0.018970657929778,0.0768507460989058,0.1349434541054069,0.0155443865805864,-0.007674315944314,0.0466951429843902
1772649476799050000,7.343050048828125,0.1855219870895147,-0.0250265969678759,0.077844798637554,0.0250858534127473,-0.0108883921056985,0.0305772293359041
1772649476809021000,7.35302099609375,0.3055447893083095,-0.1219826310496777,-0.099881200813502,0.0193193107843399,-0.0162029955536127,-0.0031487760134041
1772649476818993200,7.3629931640625,0.2687041281670332,-0.2248907784689217,-0.250919757412374,-0.0061836540699005,-0.0085242707282304,-0.0222968123853206
1772649476828964900,7.37296484375,0.1413221953570842,-0.218766596500203,-0.2895421874038875,-0.0336722694337368,0.0028889724053442,-0.0254710353910923
1772649476838936000,7.38293603515625,0.0196978031605482,-0.139360174569115,-0.2445028030421584,-0.0532932616770267,0.0089141819626092,-0.0209021922200918
1772649476848908000,7.392907958984375,-0.0441214657992124,0.0147832161772996,-0.0199734782967716,-0.0468638613820076,0.0011390829458832,-0.0074431085959076
1772649476858880000,7.4028798828125,-0.2205167281031608,0.1292608784243464,0.2614519650816917,-0.0147749036550521,-0.0041661337018013,0.0212534312158823
1772649476868852000,7.41285205078125,-0.3305851225405931,0.1648280855637043,0.3534747805450111,0.0144572854042053,-0.01536525785923,0.0566524341702461
1772649476878823200,7.4228232421875,-0.2518061848580837,0.0874877293169498,0.2590177967373281,0.0341041162610054,-0.0246175192296504,0.0758618861436843
1772649476888795000,7.432794921875,-0.0666670596063137,-0.0311253522343933,0.1693253239177167,0.0425601825118064,-0.0362398214638233,0.0756046250462532
1772649476898767000,7.44276708984375,0.0678027856379747,-0.0952729763656854,0.1216675737511366,0.0419967137277126,-0.0407898761332035,0.0703336596488952
1772649476908739000,7.452739013671875,0.091357264226675,-0.1007422015570104,0.0432870608016848,0.0395522005856037,-0.0304192621260881,0.0647037401795387
1772649476918710000,7.4627099609375,0.1336520991206169,-0.0747514357320964,-0.0767574417922645,0.0303744673728942,-0.0217052139341831,0.0569825768470764
1772649476928682000,7.472681884765625,0.176237441393733,-0.0415437973309308,-0.1048027289941906,0.0213183891028165,-0.0087643805891275,0.0414683297276496
1772649476938654000,7.482654052734375,0.1833569180101156,0.0262849995311349,-0.0456763670910149,0.0180325284600257,0.005744001828134,0.029420668259263
1772649476948626000,7.4926259765625,0.2030488759517669,0.0632585663370788,-0.027150749514997,0.012431900948286,0.0174936018884181,0.0142622217535972
1772649476958596900,7.502596923828125,0.2642857272028923,0.1299608433872461,0.0042346418950706,0.0112874824553728,0.0231316611170768,-0.0029923578258603
1772649476968569000,7.512569091796875,0.2500111181348562,0.1794905979707837,0.0377283306960016,0.0112906787544488,0.021001398563385,-0.0120758675038814
1772649476978540800,7.522540771484375,0.151722008818388,0.1097461767457425,0.0893609027776867,0.0163695402443408,0.0170293059200048,-0.016067735850811
1772649476988513000,7.532512939453125,0.0960796165734529,0.0888848827637732,0.0637225305870175,0.0206993073225021,0.0190714187920093,-0.0141736948862671
1772649476998484000,7.54248388671875,0.119129068249464,0.0375481518235057,0.0581176963172853,0.0241027753800153,0.0151909720152616,-0.0193156916648149
1772649477008456000,7.5524560546875,0.1368488493353128,0.0105208094924688,0.0567044685184955,0.0313553623855114,0.0026730503886938,-0.0252566710114479
1772649477018428200,7.56242822265625,0.0765390498012304,-0.0123048433650285,0.0082153090290725,0.0288154520094394,-0.000433447305113,-0.0194396693259477
1772649477028399900,7.57239990234375,-0.0335182387202978,-0.0569487986683845,-0.0512792285993695,0.0243642441928386,0.0050872857682406,-0.0049038692377507
1772649477038371000,7.58237109375,-0.0618961919426918,-0.0515858103305101,-0.1112991783414036,0.0154258199036121,0.0146973822265863,0.004495084285736
1772649477048343000,7.592343017578125,0.0370043272703886,-0.065768503331393,-0.1070760807536542,0.0105674155056476,0.0213462300598621,0.0007248470792546
1772649477058315000,7.60231494140625,0.1291471889168024,-0.0862014158334583,-0.080805548139289,0.0057487511076033,0.0233413241803646,-0.0125949941575527
1772649477068287000,7.612286865234375,0.1453460440456867,-0.1120629292555153,-0.1105204490538686,-0.0058234827592968,0.0195031762123107,-0.0216393545269966
1772649477078258000,7.6222578125,0.1213619418680667,-0.1507163389071822,-0.1139095800355076,-0.0158390440046787,0.0211520940065383,-0.0261368528008461
1772649477088230000,7.63222998046875,0.0189905316740274,-0.0582367926523089,-0.0065657882563769,-0.0156651400029659,0.0247185993939638,-0.0238140430301427
1772649477098202000,7.6422021484375,-0.0178103819787502,0.0287567964721471,0.1037301313266158,-0.0019785184413194,0.0152824595570564,-0.0155440177768468
1772649477108174000,7.652174072265625,-0.0301344415009021,0.0408253468632698,0.1609576008059084,0.0154931489378213,-0.0063325548544526,-0.0103966603055596
1772649477118145000,7.66214501953125,-0.110607908141613,0.0010338730923831,0.1960070676814764,0.0338119715452194,-0.0278807245194911,0.0073951208032667
1772649477128117000,7.672116943359375,-0.1807522884696722,-0.0447646590735763,0.1345065239928662,0.0385052561759948,-0.0303878244012594,0.02593445032835
1772649477138089000,7.6820888671875,-0.1904208650469779,-0.0721286860130727,0.0241050251435488,0.0370169281959533,-0.0210328307002782,0.0450253337621688
1772649477148061000,7.69206103515625,-0.0964987187683582,-0.0805056884098798,-0.0485875052973628,0.0289757773280143,-0.0077399285510182,0.0516592673957347
1772649477158032000,7.702031982421875,0.0796586431264877,-0.0990846436083316,-0.0722422293901443,0.0221159011125564,0.0010664388537406,0.0429558604955673
1772649477168004000,7.712004150390625,0.211767604458332,-0.0891395151119679,-0.0534613218788057,0.0175515115261077,0.0029913717880845,0.0258064363151788
1772649477177975800,7.721975830078125,0.2554290515303611,-0.0867968975085765,0.0368737596932798,0.0148538341745734,0.0040988870896399,-0.0009829039918258
1772649477187948000,7.731947998046875,0.200929984101653,-0.029402108638361,0.0369390069492161,0.0109560312703251,0.0007747295312583,-0.0130717912688851
1772649477197919000,7.7419189453125,0.0458434672862291,0.0307519158121198,0.0849408213131129,0.0109124034643173,-0.0037483302876353,-0.005020550917834
1772649477207891000,7.751890869140625,-0.0981558383256197,0.0745201111942529,0.1389589002918451,0.0154906436800956,-0.0114821502938866,0.0075732711702585
1772649477217863200,7.76186328125,-0.1710001252621412,0.0549091095343232,0.1180428804479539,0.0157623440027236,-0.0200978554785251,0.0300472043454647
1772649477227835000,7.7718349609375,-0.1847936728149652,0.0455650887362658,0.0610340952206403,0.0098357433453202,-0.0195854641497135,0.0422543361783027
1772649477237806000,7.78180615234375,-0.0674421356320381,0.0096242259789258,-0.0200399676617234,0.0049079325981438,-0.0131667386740446,0.0439886972308158
1772649477247778000,7.791778076171875,0.0630605595469474,-0.0264506384216248,-0.0505996488373726,-0.0019515715539455,-0.0116101214662194,0.0298771411180496
1772649477257750000,7.80175,0.1234188743978738,0.008852145627886,0.0043909284353256,0.0013228948228061,-0.0202152207493782,0.0154452193528413
1772649477267722000,7.811721923828125,0.0854606074035167,0.0225122029941529,0.0663938686881214,0.0083973165601491,-0.0302817039191722,0.0073561328463256
1772649477277693000,7.82169287109375,-0.064749243286252,0.011878069320321,-0.0187402101747691,0.0059077944606542,-0.0297658834606409,0.0227965172380208
1772649477287665000,7.831664794921875,-0.1673041933536529,0.0405622389476746,-0.1221650749444961,-0.0015543829649686,-0.0204778425395488,0.0539853312075138
1772649477297636900,7.841636962890625,-0.0757353322029113,0.0346078605879098,-0.138969933142513,-0.0096379304304718,-0.0144843179732561,0.0613874457776546
1772649477307609000,7.851609130859375,0.0907733268588781,-0.0214765763361006,-0.1034912810694426,-0.0166921112686395,-0.0136435581371188,0.0449123308062553
