time,seconds_elapsed,acc_z,acc_y,acc_x,gyro_z,gyro_y,gyro_x
1772902302708805600,0.1118056640625,0.0196218490600585,0.0332016944885253,-0.0137633234262466,0.0142026059329509,-0.0209221187978982,0.0135917412117123
1772902302727792600,0.130792724609375,0.0187950134277343,0.0006880760192871,0.0762949436902999,0.0154243353754282,-0.0062613640911877,0.0325285494327545
1772902302746779600,0.149779541015625,-0.0177488327026367,-0.0354261398315429,0.0547284334897995,0.0123700117692351,-0.0087048234418034,0.0398589260876178
1772902302765766700,0.1687666015625,-0.0096197128295898,-0.0279340744018554,-0.0018691048026084,0.0117591470479965,-0.0160352010279893,0.0478001683950424
1772902302784754000,0.18775390625,0.0179758071899414,0.0133624076843261,-0.0314105674624443,0.019700389355421,-0.019700389355421,0.0618500597774982
1772902302803741000,0.206740966796875,0.0227937698364257,0.0213394165039062,0.0210250243544578,0.0233655776828527,-0.0154243353754282,0.0807868689298629
1772902302822728000,0.22572802734375,-0.0464754104614257,-0.0174140930175781,0.0559577904641628,0.0215329825878143,-0.0087048234418034,0.0954476222395896
1772902302841715000,0.24471484375,-0.0651235580444336,-0.0325050354003906,0.0108527541160583,0.0276416316628456,-0.0087048234418034,0.098501943051815
1772902302860702000,0.263701904296875,-0.0605392456054687,-0.0630826950073242,-0.0161289274692535,0.0423023849725723,0.0126754445955157,0.098501943051815
1772902302879689000,0.28268896484375,-0.0880851745605468,-0.013442039489746,0.1168547198176384,0.0325285494327545,0.0248927399516105,0.0978910773992538
1772902302898676000,0.301676025390625,-0.0947542190551757,-0.0049695968627929,0.0180904492735862,0.0251981727778911,0.0310013871639966,0.1039997264742851
1772902302917663000,0.3206630859375,0.0070228576660156,0.0124092102050781,-0.0220425426959991,0.0337502807378768,0.0236710105091333,0.11743875592947
1772902302936650000,0.33964990234375,0.035806655883789,0.0126080513000488,-0.0033490136265754,0.0294742248952388,-0.0056504993699491,0.1272125840187072
1772902302955637000,0.358636962890625,0.0147514343261718,0.036844253540039,0.0271603688597679,0.0258090365678071,-0.0056504993699491,0.1351538300514221
1772902302974624300,0.377624267578125,0.032729148864746,0.0691161155700683,0.065601959824562,0.0276416316628456,0.0193949565291404,0.1449276655912399
1772902302993611000,0.396611083984375,0.1272621154785156,0.038243293762207,-0.0344368144869804,0.0398589260876178,0.0279470644891262,0.1626427471637725
1772902303012598300,0.415598388671875,0.2229433059692382,0.00315523147583,-0.2236455976963043,0.0697913020849227,-0.0099265528842806,0.1889099329710006
1772902303031585300,0.434585205078125,0.0651636123657226,-0.0587315559387207,-0.1638458669185638,0.0826194584369659,-0.0704021677374839,0.1944077163934707
1772902303050572300,0.453572265625,-0.2365751266479492,-0.0650868415832519,0.0416782647371292,0.0710130333900451,-0.0978910773992538,0.1589775532484054
1772902303069559300,0.472559326171875,-0.4561061859130859,-0.0557713508605957,0.1211281642317771,0.0594066008925437,-0.0679587051272392,0.0899498388171196
1772902303088546300,0.49154638671875,-0.3891401290893554,-0.1016879081726074,0.1117003858089447,0.0551305450499057,-0.0221438482403755,0.0300850905478
1772902303107533300,0.510533203125,-0.3071022033691406,-0.1253557205200195,0.0596195384860038,0.0575740039348602,0.0059559317305684,-0.006566796451807
1772902303126520300,0.529520263671875,-0.1681041717529297,-0.1107006072998046,0.0210671629756689,0.0581848695874214,-0.0025961752980947,-0.0163406319916248
1772902303145507300,0.54850732421875,-0.0506601333618164,-0.1306471824645996,-0.0434661172330379,0.0551305450499057,-0.0013744457392022,-0.006566796451807
1772902303164494300,0.567494384765625,0.0247755050659179,-0.0412197113037109,-0.046928945928812,0.0520762242376804,0.0102319847792387,0.0166460648179054
1772902303183481300,0.5864814453125,0.1556358337402343,0.0382747650146484,-0.1481226235628128,0.0600174628198146,-0.0038179049734026,0.0441349819302558
1772902303202468600,0.605468505859375,0.201263427734375,0.0705876350402832,-0.0734171494841575,0.0630717873573303,-0.0484110340476036,0.0734564885497093
1772902303221455600,0.62445556640625,0.2111673355102539,0.0580363273620605,-0.0551269762217998,0.0752890855073928,-0.0642935186624527,0.1052214577794075
1772902303240442600,0.643442626953125,0.2059688568115234,0.0522933006286621,0.0233292467892169,0.0838411897420883,-0.050854492932558,0.1406516134738922
1772902303259429600,0.6624296875,0.2991437911987304,0.0456962585449218,0.0120392516255378,0.0917824357748031,-0.0532979518175125,0.1834121495485305
1772902303278416600,0.681416748046875,0.3289804458618164,0.0309839248657226,-0.0747099667787551,0.1198822110891342,-0.0441349819302558,0.2353356629610061
1772902303297403600,0.700403564453125,0.3992557525634765,-0.0286307334899902,-0.0625758618116378,0.1473711282014846,-0.0337502807378768,0.2964221239089966
1772902303316390700,0.719390625,0.3715839385986328,-0.0697307586669921,0.0339929386973381,0.162031888961792,0.0114537142217159,0.3550651669502258
1772902303335377700,0.738377685546875,0.3205881118774414,-0.1743497848510742,0.116276815533638,0.1644753366708755,0.0664315447211265,0.4137081801891327
1772902303354364700,0.75736474609375,0.2829523086547851,-0.2632055282592773,0.0855667144060134,0.190131664276123,0.1024725660681724,0.4741837978363037
1772902303373351700,0.7763515625,0.1621046066284179,-0.2674860954284668,0.0106269568204879,0.2194531708955764,0.1128572672605514,0.5261073112487793
1772902303392338700,0.795338623046875,0.1164612770080566,-0.3163332939147949,-0.0418324619531631,0.2292270064353943,0.1189659163355827,0.5755873322486877
1772902303411325700,0.81432568359375,-0.094942569732666,-0.2897019386291504,0.0169208943843841,0.1999054998159408,0.0658206790685653,0.5816959738731384
1772902303430312700,0.833312744140625,-0.2717351913452148,-0.2571086883544922,-0.0082804560661315,0.1687513887882232,0.093920461833477,0.5981893539428711
1772902303449300000,0.852300048828125,-0.2929921150207519,-0.2517318725585937,0.1179045140743255,0.1247691288590431,0.1330158114433288,0.6079631447792053
1772902303468286700,0.87128662109375,-0.2001748085021972,-0.1833910942077636,0.150971233844757,0.067347839474678,0.1311832070350647,0.6134609580039978
1772902303487274000,0.89027392578125,-0.0321459770202636,-0.0472683906555175,-0.0059015601873397,0.0471893027424812,0.1244636997580528,0.6391173005104065
1772902303506261000,0.909260986328125,-0.003368854522705,-0.065988540649414,-0.0467374473810195,0.0526870861649513,0.1525634825229644,0.6653844714164734
1772902303525248000,0.928248046875,-0.1000418663024902,-0.0765109062194824,0.0548960268497467,0.0416915230453014,0.1525634825229644,0.6580541133880615
1772902303544235000,0.947235107421875,-0.318878173828125,-0.0088744163513183,0.0421088635921478,0.0313068181276321,0.1189659163355827,0.5994110703468323
1772902303563222000,0.966221923828125,-0.5887298583984375,0.0514235496520996,0.1441485434770584,0.0190895237028598,0.083535760641098,0.4870119392871856
1772902303582209000,0.985208984375,-0.6524953842163086,0.0720491409301757,0.1320274174213409,0.0154243353754282,0.0444404110312461,0.3428478538990021
1772902303601196000,1.004196044921875,-0.5322771072387695,0.0495624542236328,0.0857313349843025,0.0251981727778911,0.0212275516241788,0.212733656167984
1772902303620183000,1.02318310546875,-0.3077392578125,0.0626206398010253,0.0012423545122146,0.040469791740179,-0.0343611426651477,0.1211039423942565
1772902303639170000,1.042170166015625,-0.0438857078552246,0.0555701255798339,-0.0780470371246337,0.061239194124937,-0.0679587051272392,0.0942258909344673
1772902303658157000,1.061156982421875,0.176793098449707,0.0396232604980468,-0.0391182005405426,0.0789542719721794,-0.0734564885497093,0.1217148080468177
1772902303677144000,1.08014404296875,0.3864278793334961,0.0241980552673339,-0.0556512847542762,0.098501943051815,-0.0740673542022705,0.1834121495485305
1772902303696131000,1.099131103515625,0.4633030891418457,-0.0244698524475097,-0.0195609778165817,0.1052214577794075,-0.0795651376247406,0.2652680277824402
1772902303715118000,1.1181181640625,0.3355879783630371,-0.0809907913208007,0.0010552108287811,0.0905607044696807,-0.0930041596293449,0.347123920917511
1772902303734105000,1.13710498046875,0.1974072456359863,-0.0969228744506836,-0.0010311901569366,0.0630717873573303,-0.1137735620141029,0.3984365463256836
1772902303753092400,1.15609228515625,0.0129547119140625,-0.02549409866333,0.022034466266632,0.0331394150853157,-0.1528689116239547,0.407599538564682
1772902303772079400,1.175079345703125,-0.2363142967224121,0.0049104690551757,-0.0375226438045501,0.0099265528842806,-0.1950185745954513,0.378888875246048
1772902303791066000,1.194066162109375,-0.4499874114990234,-0.0617423057556152,-0.073594331741333,-0.0041233371011912,-0.2225074917078018,0.3178023993968963
1772902303810053400,1.213053466796875,-0.4678812026977539,-0.0667486190795898,-0.0357656180858612,-0.006566796451807,-0.2432768940925598,0.2286161482334137
1772902303829040400,1.232040283203125,-0.5466928482055664,0.014251708984375,0.0246363580226898,-0.0010690133785828,-0.2359465211629867,0.1247691288590431
1772902303848027400,1.25102734375,-0.4928202629089355,0.0093212127685546,0.0719958543777465,-0.0016798780998215,-0.2438877671957016,0.0349720083177089
1772902303867014400,1.270014404296875,-0.3259010314941406,0.0056266784667968,0.0123975872993469,0.0050396346487104,-0.2047924101352691,-0.0193949565291404
1772902303886001400,1.28900146484375,-0.1306982040405273,0.0855627059936523,0.1384671330451965,0.0044287694618105,-0.1229365393519401,-0.0242818742990493
1772902303904988400,1.307988525390625,-0.0107722282409667,0.1187124252319336,0.2155041098594665,-0.0138971740379929,-0.0502436272799968,-0.0041233371011912
1772902303923975400,1.326975341796875,-0.0334901809692382,0.0628962516784668,0.1325799524784088,-0.0242818742990493,-0.0062613640911877,0.0038179049734026
1772902303942962400,1.34596240234375,-0.126927375793457,0.0690169334411621,0.1190992593765258,-0.0248927399516105,0.0383317656815052,-0.0138971740379929
1772902303961949400,1.364949462890625,-0.0943689346313476,0.0627574920654296,0.1190070807933807,-0.0291687939316034,0.0682641416788101,-0.0322231166064739
1772902303980936400,1.3839365234375,-0.027663230895996,-0.0441350936889648,0.0460460484027862,-0.0346665754914283,0.0878118127584457,-0.0432186834514141
1772902303999923500,1.40292333984375,-0.0930404663085937,-0.1296701431274414,0.0108914375305175,-0.0358883067965507,0.1055268943309784,-0.058490302413702
1772902304018910500,1.421910400390625,-0.1485323905944824,-0.131932258605957,-0.0361104011535644,-0.0328339822590351,0.0878118127584457,-0.090866133570671
1772902304037897500,1.4408974609375,-0.2359299659729004,-0.0837373733520507,-0.0757833123207092,-0.0316122509539127,0.0633772239089012,-0.1415679156780243
1772902304056884500,1.459884521484375,-0.1713695526123047,-0.04423189163208,-0.1187309324741363,-0.0145080387592315,0.0383317656815052,-0.1953240185976028
1772902304075871700,1.478871826171875,-0.0389084815979003,-0.0170025825500488,-0.1020146012306213,0.0013744457392022,-0.0025961752980947,-0.2283107042312622
1772902304094858500,1.4978583984375,0.0691328048706054,0.020275592803955,-0.1017976701259613,0.0038179049734026,-0.0520762242376804,-0.234419360756874
1772902304113845500,1.516845458984375,0.1591081619262695,0.0714125633239746,-0.0748853981494903,0.0013744457392022,-0.0997236743569374,-0.2191477417945861
1772902304132832800,1.535832763671875,0.2297430038452148,0.0396876335144043,0.0069746971130371,-0.0047342018224298,-0.0923933014273643,-0.1824958473443985
1772902304151819800,1.55481982421875,0.288766860961914,0.0144352912902832,0.0803490281105041,-0.0212275516241788,-0.0545196831226348,-0.122020237147808
1772902304170806800,1.573806884765625,0.3241610527038574,0.0056228637695312,0.0568598210811615,-0.0279470644891262,-0.0166460648179054,-0.0456621423363685
1772902304189793800,1.592793701171875,0.3232316970825195,0.0466237068176269,0.109122484922409,-0.0230601448565721,0.0499381944537162,0.0209221187978982
1772902304208780800,1.61178076171875,0.4643425941467285,-0.0090670585632324,0.1451230943202972,-0.0291687939316034,0.0725401937961578,0.0942258909344673
1772902304227767800,1.630767822265625,0.4431486129760742,0.0384159088134765,0.0384048223495483,-0.0383317656815052,0.0810922980308532,0.1742491722106933
1772902304246754800,1.6497548828125,0.2964200973510742,0.0100760459899902,0.0456303358078002,-0.0529925189912319,0.093920461833477,0.2402225732803344
1772902304265741800,1.668741943359375,0.0920586585998535,-0.0007166862487792,0.1471912562847137,-0.070096731185913,0.0981965139508247,0.2646571695804596
1772902304284728800,1.687728759765625,0.0383467674255371,-0.0704898834228515,0.0500370264053344,-0.0780379772186279,0.0639880821108818,0.2701549530029297
1772902304303715800,1.7067158203125,-0.2001161575317382,-0.1169414520263671,-0.031900018453598,-0.0737619251012802,0.0285579282790422,0.2414443045854568
1772902304322702800,1.725702880859375,-0.4711089134216308,-0.1322164535522461,-0.0575442016124725,-0.0713184624910354,-0.0215329825878143,0.1650862097740173
1772902304341689900,1.74468994140625,-0.6492247581481934,-0.065680980682373,-0.1472557485103607,-0.0554359778761863,-0.0587957352399826,0.0502436272799968
1772902304360676900,1.7636767578125,-0.4763636589050293,-0.0230088233947753,-0.1683167666196823,-0.0328339822590351,-0.0923933014273643,-0.0505490601062774
1772902304379664000,1.782663818359375,-0.2295994758605957,0.0517191886901855,-0.1514324992895126,-0.0120645789429545,-0.096669353544712,-0.0988073796033859
1772902304398651000,1.80165087890625,-0.0212907791137695,0.0770139694213867,-0.1205896139144897,-0.002901607658714,-0.0679587051272392,-0.1024725660681724
1772902304417638000,1.820637939453125,0.0624637603759765,0.1076526641845703,-0.0638542175292968,0.0050396346487104,-0.0337502807378768,-0.0926987305283546
1772902304436625000,1.839625,0.0302939414978027,0.1217899322509765,-0.0054436326026916,0.0074830935336649,-0.0001527161948615,-0.0829248949885368
1772902304455612000,1.85861181640625,-0.0045504570007324,0.0994277000427246,0.0050799846649169,0.0080939587205648,0.0206166859716177,-0.0762053802609443
1772902304474599000,1.877598876953125,0.0467715263366699,0.0537199974060058,-0.0563881695270538,0.0172569304704666,0.0059559317305684,-0.070096731185913
1772902304493586000,1.8965859375,0.0616450309753418,0.0510120391845703,-0.0331770479679107,0.0233655776828527,-0.0148134706541895,-0.0639880821108818
1772902304512573000,1.915572998046875,0.0773878097534179,0.014866828918457,0.0410420000553131,0.0251981727778911,-0.0233655776828527,-0.0572685748338699
1772902304531560200,1.934560302734375,0.0252480506896972,-0.0206007957458496,0.0565760135650634,0.0251981727778911,-0.0221438482403755,-0.0542142502963542
1772902304550547000,1.953546875,-0.0645151138305664,-0.0707330703735351,0.0665523707866668,0.0172569304704666,-0.0087048234418034,-0.0609337612986564
1772902304569534000,1.972533935546875,-0.0364980697631835,-0.0572624206542968,0.0611296594142913,0.0123700117692351,-0.0105374176055192,-0.070096731185913
1772902304588521000,1.99152099609375,0.003767967224121,-0.0343012809753418,0.0699219107627868,0.0142026059329509,-0.0105374176055192,-0.0749836489558219
1772902304607508000,2.010508056640625,0.0167446136474609,-0.0554556846618652,0.094840258359909,0.0074830935336649,-0.0135917412117123,-0.080481432378292
1772902304626495000,2.029494873046875,-0.0303206443786621,-0.0353775024414062,0.1296758353710174,-0.002901607658714,0.0120645789429545,-0.0878118127584457
1772902304645482200,2.048482177734375,0.0079612731933593,0.0049262046813964,0.1304854452610016,-0.0175623632967472,0.0578794367611408,-0.0878118127584457
1772902304664469200,2.06746923828125,0.0735712051391601,0.0080642700195312,0.0544480383396148,-0.0224492810666561,0.0774271115660667,-0.0792597085237503
1772902304683456300,2.086456298828125,0.152895450592041,-0.000213623046875,-0.0621043443679809,-0.0151189034804701,0.0621554926037788,-0.0603228956460952
1772902304702443300,2.105443359375,0.0661273002624511,0.0223755836486816,-0.0430151224136352,-0.0083993906155228,0.0395534932613372,-0.0456621423363685
1772902304721430300,2.12443017578125,-0.0166096687316894,0.0152935981750488,-0.004248023033142,-0.0163406319916248,0.0248927399516105,-0.0438295491039752
1772902304740417300,2.143417236328125,-0.019505500793457,0.0186085700988769,0.0083598494529724,-0.0218384154140949,0.0181732270866632,-0.0456621423363685
1772902304759404300,2.162404296875,-0.013312816619873,0.0168404579162597,-0.0136501789093017,-0.0193949565291404,0.0102319847792387,-0.0456621423363685
1772902304778391300,2.181391357421875,-0.0334620475769043,0.0106806755065917,-0.0784141719341278,-0.0090102553367614,0.0077885258942842,-0.0487164668738842
1772902304797378300,2.20037841796875,-0.0321125984191894,-0.0164346694946289,-0.0498906970024108,-0.002901607658714,-0.0032070400193333,-0.0523816533386707
1772902304816365300,2.219365234375,-0.0317311286926269,-0.0292744636535644,-0.0446268618106842,-0.0047342018224298,-0.0148134706541895,-0.0597120337188243
1772902304835352300,2.238352294921875,-0.0320801734924316,0.005617618560791,-0.0459022521972656,-0.0035124723799526,-0.0282524954527616,-0.0676532760262489
1772902304854339300,2.25733935546875,-0.0492849349975585,-0.0393691062927246,-0.0024309754371643,-0.0022907429374754,-0.0209221187978982,-0.0670424103736877
1772902304873326300,2.276326416015625,-0.0052475929260253,0.0080041885375976,-0.0193056762218475,-0.002901607658714,-0.0245873071253299,-0.0682641416788101
1772902304892313300,2.295313232421875,0.0187835693359375,0.0188283920288085,-0.000751107931137,-0.0053450670093297,-0.0539088174700737,-0.0676532760262489
1772902304911300400,2.31430029296875,0.113532543182373,0.0441079139709472,-0.0408820509910583,0.0032070400193333,-0.0600174628198146,-0.0529925189912319
1772902304930287400,2.333287353515625,0.1687593460083007,0.04217529296875,0.0280479490756988,-0.0004581485991366,-0.0484110340476036,-0.0267253331840038
1772902304949274400,2.3522744140625,0.2073469161987304,0.0573291778564453,0.017423391342163,-0.0041233371011912,-0.0374154672026634,0.0050396346487104
1772902304968261400,2.371261474609375,0.1814723014831543,0.0582075119018554,0.024170696735382,-0.0108428495004773,-0.019700389355421,0.0361937396228313
1772902304987248400,2.390248291015625,0.1119394302368164,0.0496835708618164,-0.0119196772575378,-0.0083993906155228,-0.0117591470479965,0.0551305450499057
1772902305006235400,2.4092353515625,0.082071304321289,0.0233378410339355,0.0079465806484222,-0.0108428495004773,-0.0044287694618105,0.0716238990426063
1772902305025222400,2.428222412109375,0.0458526611328125,-0.0003671646118164,-0.0350321233272552,-0.0053450670093297,0.0077885258942842,0.0887281075119972
1772902305044209400,2.44720947265625,-0.018190860748291,-0.0260181427001953,-0.0972896516323089,0.0019853105768561,-0.0038179049734026,0.0936150252819061
1772902305063196400,2.466196533203125,-0.0751633644104003,-0.0247702598571777,-0.0659185647964477,0.0111482823267579,-0.0117591470479965,0.0875063762068748
1772902305082183400,2.485183349609375,-0.0141630172729492,-0.018721580505371,-0.0382352769374847,0.0172569304704666,-0.0178677942603826,0.0930041596293449
1772902305101170400,2.50417041015625,0.1180167198181152,-0.0002012252807617,-0.043221890926361,0.0288633611053228,-0.0001527161948615,0.1217148080468177
1772902305120157400,2.523157470703125,0.1640443801879882,-0.0001754760742187,-0.0256962776184082,0.0374154672026634,-0.0025961752980947,0.1534797698259353
1772902305139144400,2.54214453125,0.1049699783325195,-0.0617656707763671,-0.0260917246341705,0.0447458438575267,-0.0038179049734026,0.1797469556331634
1772902305158131500,2.56113134765625,0.1492476463317871,-0.0456104278564453,-0.0718594789505004,0.0539088174700737,-0.0160352010279893,0.2054032832384109
1772902305177118500,2.580118408203125,0.1843471527099609,0.0297250747680664,-0.05148246884346,0.0557414107024669,-0.0251981727778911,0.2359465211629867
1772902305196105500,2.59910546875,0.2777862548828125,-0.0167512893676757,-0.0446736812591552,0.0575740039348602,-0.0502436272799968,0.2817613780498504
1772902305215092500,2.618092529296875,0.1598315238952636,-0.0043158531188964,0.0307182371616363,0.0502436272799968,-0.0123700117692351,0.3269653618335724
1772902305234079500,2.63707958984375,0.0788559913635253,-0.0737323760986328,0.0789729356765747,0.0337502807378768,0.0401643589138984,0.3630063831806183
1772902305253066500,2.65606640625,0.1496839523315429,-0.0797100067138671,-0.0145973265171051,0.0264199022203683,0.0517707914113998,0.3953822255134582
1772902305272053500,2.675053466796875,0.1643910408020019,-0.0963878631591796,-0.15713831782341,0.0343611426651477,0.0200058221817016,0.4271472096443176
1772902305291040500,2.69404052734375,0.013432502746582,-0.1253414154052734,-0.1207857429981231,0.0392480604350566,-0.0178677942603826,0.4381427764892578
1772902305310027500,2.713027587890625,-0.2804031372070312,-0.1326560974121093,0.0467900335788726,0.0227547138929367,-0.0239764433354139,0.4143190383911133
1772902305329014500,2.7320146484375,-0.4157533645629883,-0.071016788482666,0.0897025167942047,0.0056504993699491,-0.0288633611053228,0.3636172711849212
1772902305348001500,2.75100146484375,-0.2536492347717285,-0.0018925666809082,-0.0322243273258209,0.0074830935336649,-0.061239194124937,0.3043633699417114
1772902305366988500,2.769988525390625,-0.0408182144165039,0.0156507492065429,-0.0056232511997222,0.0129808764904737,-0.0691804364323616,0.2848156988620758
1772902305385975600,2.7889755859375,0.096992015838623,0.0399432182312011,0.0567719340324401,0.0044287694618105,-0.0557414107024669,0.3098611533641815
1772902305404962600,2.807962646484375,0.2908515930175781,0.065953254699707,-0.0924795567989349,0.0123700117692351,-0.0429132506251335,0.3605629503726959
1772902305423949600,2.826949462890625,0.3417015075683594,0.0543866157531738,-0.0436688065528869,0.0227547138929367,-0.0190895237028598,0.4222602844238281
1772902305442936600,2.8459365234375,0.2131156921386718,0.0062952041625976,0.0733826756477356,0.0074830935336649,0.0193949565291404,0.4784598350524902
1772902305461923600,2.864923583984375,0.0761065483093261,-0.0721826553344726,0.0526395738124847,-0.002901607658714,0.0499381944537162,0.5090031027793884
1772902305480910600,2.88391064453125,-0.0516643524169921,-0.0740599632263183,-0.0653516054153442,0.0099265528842806,0.0768162459135055,0.5187768936157227
1772902305499897600,2.902897705078125,-0.0295300483703613,-0.0844535827636718,-0.0889531075954437,0.0325285494327545,0.0755945146083831,0.522442102432251
1772902305518884600,2.921884521484375,0.0837221145629882,-0.1148133277893066,-0.0815508365631103,0.0484110340476036,0.0780379772186279,0.5474875569343567
1772902305537871600,2.94087158203125,0.038614273071289,-0.1018714904785156,-0.0022905468940734,0.0368046015501022,0.0737619251012802,0.5676460862159729
1772902305556858600,2.959858642578125,0.0077757835388183,-0.1197938919067382,0.0502856969833374,0.0264199022203683,0.1079703494906425,0.5829176902770996
1772902305575845600,2.978845703125,0.1142258644104003,-0.1110420227050781,0.0587882399559021,0.0160352010279893,0.132404938340187,0.6085740327835083
1772902305594832600,2.99783251953125,-0.0552649497985839,-0.0549612045288085,0.03188157081604,0.0111482823267579,0.1036942973732948,0.595745861530304
1772902305613819600,3.016819580078125,-0.4666848182678222,-0.0533771514892578,-0.0136590898036956,0.0160352010279893,0.0615446269512176,0.5065596103668213
1772902305632806700,3.035806640625,-0.5444512367248535,-0.0305509567260742,0.0457707047462463,0.0245873071253299,0.0224492810666561,0.3923279047012329
1772902305651793700,3.054793701171875,-0.4720358848571777,0.0075836181640625,0.0759949088096618,0.0209221187978982,-0.0288633611053228,0.2872591614723205
1772902305670780700,3.07378076171875,-0.4284687042236328,-0.0143413543701171,0.1154978573322296,0.0184786599129438,-0.0484110340476036,0.2017380893230438
1772902305689767700,3.092767578125,-0.3601441383361816,-0.0223989486694335,0.1440812647342682,0.0074830935336649,-0.0447458438575267,0.141262486577034
1772902305708754700,3.111754638671875,-0.1504049301147461,-0.0124845504760742,0.1333474814891815,0.0025961752980947,-0.0117591470479965,0.1156061589717865
1772902305727741700,3.13074169921875,0.2080421447753906,-0.008976936340332,0.1066710352897644,0.0019853105768561,0.0102319847792387,0.1467602699995041
1772902305746728700,3.149728759765625,0.2748231887817383,-0.015446662902832,0.1172244250774383,-0.0041233371011912,0.0499381944537162,0.2035706937313079
1772902305765715700,3.1687158203125,0.1817669868469238,-0.0335006713867187,0.1473952233791351,-0.0224492810666561,0.0713184624910354,0.2420551627874374
1772902305784702700,3.18770263671875,0.0070776939392089,-0.028090476989746,0.0281404554843902,-0.027336198836565,0.0548251122236251,0.2371682524681091
1772902305803689700,3.206689697265625,-0.1628932952880859,-0.036961555480957,-0.0593058168888092,-0.0187840927392244,0.0456621423363685,0.2102901935577392
1772902305822676700,3.2256767578125,-0.2034907341003418,-0.0496091842651367,0.0138085484504699,-0.0181732270866632,0.0267253331840038,0.1754709035158157
1772902305841663700,3.244663818359375,-0.2115230560302734,-0.0420904159545898,0.0256852805614471,-0.0230601448565721,0.0102319847792387,0.1400407552719116
1772902305860650800,3.263650634765625,-0.1533374786376953,-0.0428409576416015,0.0049788057804107,-0.0255036037415266,0.0206166859716177,0.1113301068544387
1772902305879637800,3.2826376953125,-0.0001029968261718,-0.0094127655029296,-0.0276411473751068,-0.0255036037415266,0.0401643589138984,0.1125518381595611
1772902305898624800,3.301624755859375,0.081249713897705,0.0277223587036132,-0.0883762240409851,-0.016951497644186,0.0621554926037788,0.1394298821687698
1772902305917611800,3.32061181640625,0.0848541259765625,0.0031747817993164,-0.1060902178287506,-0.0083993906155228,0.0597120337188243,0.1632536053657531
1772902305936598800,3.339598876953125,0.0512681007385253,0.0225648880004882,-0.0884544849395752,-0.006566796451807,0.0401643589138984,0.1791360974311828
1772902305955585800,3.358585693359375,0.0128493309020996,-0.0001173019409179,-0.0151325464248657,-0.0114537142217159,0.0352774411439895,0.1956294476985931
1772902305974572800,3.37757275390625,-0.0148158073425292,0.0025234222412109,0.0206146240234375,-0.0248927399516105,0.0499381944537162,0.2096793353557586
1772902305993559800,3.396559814453125,-0.059915542602539,-0.0165672302246093,0.0091126263141632,-0.0340557098388671,0.06276635825634,0.2115119248628616
1772902306012546800,3.415546875,-0.1002130508422851,-0.0248975753784179,-0.0781927108764648,-0.0310013871639966,0.0639880821108818,0.1992946416139602
1772902306031533800,3.434533935546875,-0.1968250274658203,0.0324029922485351,-0.0642521381378173,-0.027336198836565,0.0523816533386707,0.1699731200933456
1772902306050520800,3.453520751953125,-0.1287670135498047,0.0553922653198242,-0.0638684332370758,-0.0267253331840038,0.0316122509539127,0.1424842029809951
1772902306069507800,3.4725078125,-0.099010944366455,0.0093593597412109,-0.0651344954967498,-0.0224492810666561,0.0242818742990493,0.1272125840187072
1772902306088494800,3.491494873046875,-0.0807695388793945,0.0009336471557617,-0.035763144493103,-0.0145080387592315,0.0456621423363685,0.1186604797840118
1772902306107481900,3.51048193359375,-0.1071596145629882,0.0031490325927734,-0.0141232907772064,-0.0132863093167543,0.0505490601062774,0.1027780026197433
1772902306126468900,3.52946875,-0.162569522857666,0.0098524093627929,-0.0904015600681305,-0.0053450670093297,0.0358883067965507,0.0765108168125152
1772902306145455900,3.548455810546875,-0.1297612190246582,0.0168657302856445,-0.1057052016258239,0.0080939587205648,0.0090102553367614,0.0453567095100879
1772902306164443000,3.56744287109375,-0.0189085006713867,0.0201368331909179,-0.039057433605194,0.0178677942603826,0.0053450670093297,0.0368046015501022
1772902306183430000,3.586429931640625,0.103917121887207,0.0061616897583007,-0.0084650516510009,0.0215329825878143,0.0047342018224298,0.0551305450499057
1772902306202417000,3.6054169921875,0.0737514495849609,-0.0526142120361328,-0.0185647159814834,0.0264199022203683,0.0053450670093297,0.0697913020849227
1772902306221404000,3.62440380859375,0.1120691299438476,-0.029336929321289,0.0311044454574584,0.0264199022203683,-0.0025961752980947,0.0844520553946495
1772902306240391000,3.643390869140625,0.1336517333984375,0.000864028930664,0.0706584453582763,0.0215329825878143,0.0022907429374754,0.1033888608217239
1772902306259378000,3.6623779296875,0.1324396133422851,-0.0367889404296875,0.1282658576965332,0.0087048234418034,0.0187840927392244,0.1241582632064819
1772902306278365000,3.681364990234375,0.1793599128723144,-0.0167922973632812,0.0758271813392639,0.0001527161948615,0.0132863093167543,0.1479819864034652
1772902306297352000,3.70035205078125,0.1947765350341797,-0.0262861251831054,0.062272697687149,-0.0059559317305684,0.0279470644891262,0.18280129134655
1772902306316339000,3.7193388671875,0.1705770492553711,-0.0586576461791992,0.0648207664489746,-0.0108428495004773,0.0346665754914283,0.2139553874731063
1772902306335326000,3.738325927734375,0.1121053695678711,-0.0598258972167968,0.0492884814739227,-0.016951497644186,0.0261144693940877,0.2396117150783538
1772902306354313000,3.75731298828125,0.025763988494873,-0.0946884155273437,0.0422462224960327,-0.0248927399516105,0.0316122509539127,0.2499964088201522
1772902306373300000,3.776300048828125,-0.0038027763366699,-0.043684959411621,0.0235031247138977,-0.0242818742990493,0.0163406319916248,0.2463312149047851
1772902306392287000,3.795286865234375,-0.0397877693176269,-0.0480327606201171,-0.0002805590629577,-0.0255036037415266,0.0102319847792387,0.2481638193130493
1772902306411274000,3.81427392578125,0.0396609306335449,0.0057477951049804,0.0377113968133926,-0.0297796577215194,-0.0007635809597559,0.2652680277824402
1772902306430261000,3.833260986328125,0.4628896713256836,0.1012134552001953,-0.0753195434808731,-0.0255036037415266,-0.0765108168125152,0.3190241456031799
1772902306449248000,3.852248046875,0.3792529106140136,0.1252269744873047,0.0801933854818344,-0.0346665754914283,-0.0392480604350566,0.4143190383911133
1772902306468234800,3.87123486328125,-0.0198702812194824,0.0074586868286132,0.1589284092187881,-0.0572685748338699,0.0242818742990493,0.4540252387523651
1772902306487221800,3.8902216796875,-0.2477912902832031,-0.0153484344482421,0.0245915949344635,-0.0542142502963542,0.0224492810666561,0.4161516427993774
1772902306506209000,3.909208984375,-0.3329048156738281,-0.0212621688842773,-0.0474970191717147,-0.0401643589138984,0.0004581485991366,0.3587303459644317
1772902306525196000,3.928196044921875,-0.4097588062286377,-0.1060619354248046,0.0626804530620575,-0.0389426313340663,-0.0080939587205648,0.2872591614723205
1772902306544182800,3.947182861328125,-0.5393948554992676,-0.1645660400390625,0.0949337184429168,-0.0432186834514141,-0.0148134706541895,0.1870773434638977
1772902306563169800,3.966169677734375,-0.481360912322998,-0.0732154846191406,0.0402035862207412,-0.0395534932613372,-0.0337502807378768,0.0844520553946495
1772902306582157000,3.985156982421875,-0.306638240814209,0.0290002822875976,-0.0305942744016647,-0.0261144693940877,-0.0355828739702701,0.0264199022203683
1772902306601143800,4.004143798828125,-0.0449061393737793,0.0222024917602539,0.0059209913015365,-0.0175623632967472,-0.0429132506251335,0.0099265528842806
1772902306620130800,4.023130859375,0.0024564266204833,-0.0027170181274414,0.1072809845209121,-0.0255036037415266,-0.0392480604350566,0.0123700117692351
1772902306639117800,4.042117919921875,-0.0326969623565673,0.0574932098388671,0.1353353857994079,-0.0413860902190208,-0.0361937396228313,0.0123700117692351
1772902306658104800,4.061104736328125,-0.1034719944000244,0.0437889099121093,0.1157698780298233,-0.0419969521462917,-0.009315688163042,-0.0022907429374754
1772902306677091800,4.080091796875,-0.0839815139770507,0.0247774124145507,0.0192267596721649,-0.0328339822590351,0.0285579282790422,-0.0181732270866632
1772902306696078800,4.099078857421875,-0.0265254974365234,0.053253173828125,0.0173447132110595,-0.0285579282790422,0.0517707914113998,-0.0212275516241788
1772902306715065900,4.11806591796875,0.1088032722473144,0.0666141510009765,-0.081629991531372,-0.0267253331840038,0.0261144693940877,-0.0181732270866632
1772902306734052900,4.137052978515625,0.0773563385009765,0.0438699722290039,-0.1088411882519722,-0.0151189034804701,0.0303905233740806,-0.0041233371011912
1772902306753040000,4.156039794921875,0.0145585536956787,0.0190916061401367,-0.0507005974650383,-0.0108428495004773,0.058490302413702,0.0025961752980947
1772902306772027000,4.17502685546875,-0.0629444122314453,0.0417814254760742,-0.0382699072360992,-0.0083993906155228,0.0676532760262489,-0.0022907429374754
1772902306791014000,4.194013916015625,-0.0815677642822265,0.031935691833496,-0.0875499844551086,-0.0022907429374754,0.0591011680662632,-0.016951497644186
1772902306810001000,4.2130009765625,0.0599660873413085,0.0325431823730468,-0.1063459813594818,0.0056504993699491,0.027336198836565,-0.0187840927392244
1772902306828988000,4.23198779296875,0.1574337482452392,0.0317335128784179,-0.088009774684906,0.0129808764904737,0.0004581485991366,0.0001527161948615
1772902306847975000,4.250974853515625,0.176349401473999,0.0175666809082031,-0.0334195792675018,0.0117591470479965,-0.0038179049734026,0.0276416316628456
1772902306866962000,4.2699619140625,0.0699086189270019,-0.0208749771118164,0.0062234103679656,0.0080939587205648,0.0071776611730456,0.0423023849725723
1772902306885949000,4.288948974609375,-0.0496108531951904,-0.0153312683105468,-0.0339171141386032,0.009315688163042,0.016951497644186,0.0343611426651477
1772902306904936000,4.30793603515625,-0.0650885105133056,-0.048614501953125,-0.0196664780378341,0.0129808764904737,0.0200058221817016,0.0160352010279893
1772902306923923000,4.3269228515625,0.0064558982849121,-0.0407323837280273,-0.0482148453593254,0.0099265528842806,0.0022907429374754,0.0087048234418034
1772902306942910000,4.345909912109375,0.0838353633880615,-0.0124740600585937,-0.0625352710485458,0.0111482823267579,0.002901607658714,0.0239764433354139
1772902306961897000,4.36489697265625,0.0279455184936523,-0.0493097305297851,-0.0152857452630996,0.0087048234418034,0.0047342018224298,0.0343611426651477
1772902306980883700,4.3838837890625,-0.0475316047668457,-0.0334119796752929,-0.0260542333126068,0.0080939587205648,-0.0087048234418034,0.0233655776828527
1772902306999871000,4.40287109375,0.0151221752166748,0.0110177993774414,-0.0172214061021804,0.0080939587205648,-0.0337502807378768,0.0129808764904737
1772902307018858000,4.42185791015625,0.0808398723602294,-0.0352668762207031,0.003292441368103,0.0068722288124263,-0.0313068181276321,0.0245873071253299
1772902307037845000,4.440844970703125,0.025214672088623,-0.0526323318481445,0.0129168033599853,0.0050396346487104,-0.0111482823267579,0.0355828739702701
1772902307056831700,4.459831787109375,-0.0567879676818847,-0.0318765640258789,-0.0052979588508605,0.0074830935336649,-0.0007635809597559,0.0251981727778911
1772902307075818800,4.47881884765625,0.0098171234130859,-0.0251073837280273,0.0091749429702758,0.0056504993699491,-0.0239764433354139,0.0190895237028598
1772902307094805800,4.4978056640625,0.0673835277557373,-0.0005073547363281,0.0179952234029769,0.0080939587205648,-0.0142026059329509,0.0300850905478
1772902307113792800,4.516792724609375,0.0018408298492431,0.0222854614257812,0.0535274147987365,0.0056504993699491,0.0047342018224298,0.0423023849725723
1772902307132779800,4.53577978515625,-0.0735719203948974,0.0006694793701171,0.0442654937505722,0.0013744457392022,-0.0013744457392022,0.0319176837801933
1772902307151766800,4.554766845703125,0.009814977645874,0.032109260559082,0.0091631561517715,0.0050396346487104,-0.0160352010279893,0.0178677942603826
1772902307170753800,4.57375390625,0.0693981647491455,0.0575485229492187,0.0419786870479583,0.0099265528842806,-0.0044287694618105,0.0276416316628456
1772902307189740800,4.59274072265625,0.0431442260742187,0.0297784805297851,0.0793433189392089,0.0129808764904737,0.0224492810666561,0.0416915230453014
1772902307208727800,4.611727783203125,0.0203979015350341,-0.0134820938110351,0.1022046655416488,0.0056504993699491,0.0175623632967472,0.0398589260876178
1772902307227714800,4.63071484375,-0.0822072029113769,-0.0432949066162109,0.1101291477680206,-0.006566796451807,0.0261144693940877,0.0282524954527616
1772902307246701800,4.649701904296875,-0.0856366157531738,-0.0195465087890625,0.0923078656196594,-0.0175623632967472,0.0328339822590351,0.0142026059329509
1772902307265688800,4.668688720703125,0.073399543762207,0.0034742355346679,-0.0805236250162124,-0.006566796451807,0.0071776611730456,0.0111482823267579
1772902307284675800,4.68767578125,0.1025068759918212,0.0504722595214843,-0.0802739709615707,0.0074830935336649,0.002901607658714,0.0276416316628456
1772902307303662800,4.706662841796875,0.0238819122314453,-0.0021963119506835,0.0692211389541626,-0.0022907429374754,0.0016798780998215,0.0398589260876178
1772902307322649900,4.72564990234375,-0.044384479522705,-0.0022478103637695,0.0898801982402801,-0.0157297682017087,0.0010690133785828,0.0374154672026634
1772902307341636900,4.744636962890625,-0.0678620338439941,-0.0301647186279296,0.0013019889593124,-0.016951497644186,-0.0001527161948615,0.0276416316628456
1772902307360623600,4.76362353515625,-0.1164062023162841,-0.0144271850585937,0.0015639513731002,-0.0077885258942842,0.0157297682017087,0.0142026059329509
1772902307379610600,4.782610595703125,-0.1667134761810302,-0.0067548751831054,0.0182980746030807,-0.0071776611730456,0.0352774411439895,-0.0077885258942842
1772902307398598000,4.801597900390625,0.0244140625,-0.0024194717407226,-0.0367363691329956,-0.0059559317305684,0.0022907429374754,-0.027336198836565
1772902307417584600,4.820584716796875,0.1959984302520752,0.0264244079589843,-0.0591551065444946,-0.0010690133785828,-0.0129808764904737,-0.0071776611730456
1772902307436571600,4.839571533203125,0.1811420917510986,0.0237007141113281,-0.0108232647180557,0.0013744457392022,0.0083993906155228,0.0300850905478
1772902307455558700,4.85855859375,0.0154907703399658,0.0162887573242187,0.0439889281988143,-0.0010690133785828,0.016951497644186,0.0319176837801933
1772902307474545700,4.877545654296875,-0.138467788696289,0.0333662033081054,0.0085662454366683,0.0001527161948615,0.0035124723799526,0.0111482823267579
1772902307493532700,4.89653271484375,-0.1553175449371338,-0.0093202590942382,-0.0193503499031066,0.0007635809597559,-0.0013744457392022,-0.0077885258942842
1772902307512519700,4.915519775390625,0.004026174545288,-0.0172271728515625,-0.022700235247612,0.0038179049734026,-0.019700389355421,-0.0157297682017087
1772902307531506700,4.934506591796875,0.126753568649292,-0.002471923828125,-0.0131174772977828,0.0038179049734026,-0.0270307660102844,0.0032070400193333
1772902307550493700,4.95349365234375,0.0503623485565185,0.0153732299804687,0.0755452811717987,-0.0047342018224298,-0.0056504993699491,0.019700389355421
1772902307569480700,4.972480712890625,-0.065251350402832,0.0441417694091796,0.0465035587549209,-0.0102319847792387,0.002901607658714,0.0129808764904737
1772902307588467700,4.9914677734375,0.0152931213378906,0.0234346389770507,-0.0184518247842788,-0.0053450670093297,0.0083993906155228,0.009315688163042
1772902307607454700,5.010454833984375,0.0451240539550781,0.0078334808349609,-0.0328312069177627,0.0019853105768561,0.0193949565291404,0.0160352010279893
1772902307626441700,5.029441650390625,-0.0138053894042968,-0.0175533294677734,-0.0550387650728225,0.0080939587205648,0.0206166859716177,0.0172569304704666
1772902307645428700,5.0484287109375,-0.0200870037078857,-0.0082721710205078,-0.0355437397956848,0.0099265528842806,0.0041233371011912,0.0105374176055192
1772902307664415500,5.06741552734375,-0.0553221702575683,-0.0272932052612304,-0.0047969371080398,0.0087048234418034,0.0059559317305684,0.0087048234418034
1772902307683402500,5.086402587890625,-0.0169224739074707,-0.0152750015258789,0.0065442025661468,0.0013744457392022,0.002901607658714,0.0111482823267579
1772902307702389800,5.1053896484375,-0.0454678535461425,0.0174312591552734,-0.0286636799573898,-0.0022907429374754,-0.0007635809597559,0.0074830935336649
1772902307721376500,5.12437646484375,-0.0438811779022216,-0.0019989013671875,-0.0539312660694122,0.0062613640911877,-0.0013744457392022,-0.0035124723799526
1772902307740363500,5.143363525390625,0.0128397941589355,-0.0204181671142578,-0.0801979079842567,0.0160352010279893,-0.0050396346487104,-0.0053450670093297
1772902307759350500,5.1623505859375,0.0735809803009033,-0.0011119842529296,-0.0445909276604652,0.0203112531453371,-0.0154243353754282,0.0068722288124263
1772902307778337500,5.181337646484375,-0.01816987991333,-0.0227813720703125,0.0205634981393814,0.0148134706541895,-0.0135917412117123,0.0123700117692351
1772902307797324500,5.200324462890625,-0.0558991432189941,-0.0152597427368164,0.0432559698820114,0.0050396346487104,-0.0123700117692351,0.0044287694618105
1772902307816311600,5.2193115234375,-0.0704305171966552,-0.0283746719360351,0.0106217414140701,0.0019853105768561,0.0041233371011912,-0.0047342018224298
1772902307835298600,5.238298583984375,-0.0653612613677978,0.0059642791748046,-0.046213760972023,0.0038179049734026,-0.0019853105768561,-0.0145080387592315
1772902307854285600,5.25728564453125,0.0055277347564697,-0.0140705108642578,-0.0659526586532592,0.009315688163042,-0.0203112531453371,-0.0218384154140949
1772902307873272600,5.2762724609375,0.0351893901824951,0.0203990936279296,0.0271301865577697,0.0032070400193333,-0.0221438482403755,-0.0132863093167543
1772902307892259600,5.295259521484375,-0.0072662830352783,-0.0397701263427734,0.0846081972122192,-0.0083993906155228,-0.0080939587205648,-0.0102319847792387
1772902307911246600,5.31424658203125,-0.0073058605194091,-0.0124568939208984,-0.0009040236473083,-0.0053450670093297,0.0108428495004773,-0.0138971740379929
1772902307930233600,5.333233642578125,-0.0450615882873535,0.0501985549926757,-0.0844490975141525,0.0050396346487104,0.0102319847792387,-0.0230601448565721
1772902307949220600,5.352220703125,0.0833485126495361,0.0661077499389648,-0.0397315323352813,0.0117591470479965,-0.019700389355421,-0.0193949565291404
1772902307968207400,5.371207275390625,0.112642765045166,0.0034427642822265,0.0578716844320297,0.0032070400193333,-0.0129808764904737,0.0062613640911877
1772902307987194400,5.3901943359375,-0.0350861549377441,-0.044158935546875,0.0948745608329773,-0.0090102553367614,0.0175623632967472,0.019700389355421
1772902308006181400,5.409181396484375,-0.1401762962341308,-0.0361223220825195,0.0432087928056716,-0.0090102553367614,0.0224492810666561,0.0007635809597559
1772902308025168400,5.42816845703125,-0.0911488533020019,-0.010711669921875,-0.0495793223381042,0.0001527161948615,0.0157297682017087,-0.0193949565291404
1772902308044155400,5.4471552734375,0.0506689548492431,-0.0093421936035156,-0.0362961143255233,0.0044287694618105,0.0077885258942842,-0.0200058221817016
1772902308063142400,5.466142333984375,0.121849775314331,0.0547561645507812,-0.0010562241077423,0.0025961752980947,-0.0123700117692351,-0.006566796451807
1772902308082129400,5.48512939453125,0.0876431465148925,0.0156850814819335,0.0026532709598541,0.0007635809597559,-0.0190895237028598,0.0032070400193333
1772902308101116400,5.504116455078125,0.0222907066345214,-0.0432939529418945,0.0535454303026199,-0.0053450670093297,-0.0142026059329509,0.0019853105768561
1772902308120103400,5.523103515625,-0.0279057025909423,-0.0698471069335937,0.0451679825782775,-0.0059559317305684,-0.0001527161948615,-0.002901607658714
1772902308139090400,5.54209033203125,-0.0305516719818115,-0.0532073974609375,-0.0093698501586914,0.0025961752980947,0.009621120058,-0.009621120058
1772902308158077400,5.561077392578125,-0.0719306468963623,-0.017765998840332,-0.0261478871107101,0.0068722288124263,0.0047342018224298,-0.0181732270866632
1772902308177064400,5.580064453125,-0.0265450477600097,-0.0067567825317382,0.0319715440273284,0.0044287694618105,-0.0050396346487104,-0.0224492810666561
1772902308196051200,5.59905126953125,0.0080118179321289,0.0225458145141601,0.0332161337137222,-0.0016798780998215,-0.0019853105768561,-0.0181732270866632
1772902308215038200,5.6180380859375,0.0361552238464355,0.0295362472534179,0.0398318916559219,-0.006566796451807,-0.0038179049734026,-0.0126754445955157
1772902308234025200,5.637025146484375,0.0831220149993896,0.0358161926269531,-0.0052658915519714,-0.006566796451807,-0.0007635809597559,-0.0016798780998215
1772902308253012200,5.65601220703125,0.0298037528991699,0.0153522491455078,0.0220909565687179,-0.0059559317305684,0.0108428495004773,0.0062613640911877
1772902308271999200,5.674999267578125,-0.0454576015472412,0.0032548904418945,-0.026105597615242,-0.0035124723799526,0.0053450670093297,-0.0016798780998215
1772902308290986200,5.693986328125,0.0132601261138916,0.0108280181884765,-0.0209324806928634,-0.0004581485991366,-0.019700389355421,-0.0102319847792387
1772902308309973200,5.71297314453125,0.0588386058807373,-0.0126676559448242,0.006421759724617,-0.0010690133785828,-0.019700389355421,0.0001527161948615
1772902308328960300,5.731960205078125,0.0488553047180175,-0.0152769088745117,0.0319465398788452,-0.0041233371011912,-0.0050396346487104,0.0117591470479965
1772902308347947300,5.750947265625,-0.0661962032318115,-0.0103588104248046,-0.0053701251745224,-0.0047342018224298,0.0059559317305684,0.0025961752980947
1772902308366934300,5.769934326171875,-0.0843749046325683,0.0095882415771484,0.0025432854890823,-0.0035124723799526,-0.0044287694618105,-0.0175623632967472
1772902308385921300,5.78892138671875,0.0502402782440185,0.0175046920776367,-0.0169010758399963,-0.0035124723799526,-0.0251981727778911,-0.0200058221817016
1772902308404908300,5.807908203125,0.0960171222686767,0.0176496505737304,-0.0418644100427627,0.0025961752980947,-0.0239764433354139,-0.0035124723799526
1772902308423895300,5.826895263671875,-0.0188415050506591,-0.0112390518188476,-0.002471387386322,0.0001527161948615,-0.0227547138929367,0.0032070400193333
1772902308442882000,5.845882080078125,-0.1432037353515625,-0.0058803558349609,0.0204449146986007,-0.0077885258942842,-0.0282524954527616,-0.0157297682017087
1772902308461869000,5.864869140625,-0.1319224834442138,0.022109031677246,0.014239490032196,-0.0132863093167543,-0.0423023849725723,-0.037720900028944
1772902308480856000,5.88385595703125,0.0051231384277343,0.0594434738159179,-0.0580916255712509,-0.0047342018224298,-0.0435241162776947,-0.0456621423363685
1772902308499843000,5.902843017578125,0.0992727279663086,0.0110101699829101,-0.0330730676651001,-0.0016798780998215,-0.0416915230453014,-0.0328339822590351
1772902308518830000,5.921830078125,0.0646734237670898,-0.0395488739013671,0.0370048135519027,-0.0047342018224298,-0.019700389355421,-0.0151189034804701
1772902308537817000,5.940817138671875,0.0064871311187744,-0.0654792785644531,0.0272715538740158,-0.0120645789429545,-0.0038179049734026,-0.0138971740379929
1772902308556804000,5.95980419921875,0.0131285190582275,0.0292062759399414,-0.0728346928954124,-0.0022907429374754,0.0047342018224298,-0.016951497644186
1772902308575791000,5.978791015625,0.0570991039276123,0.0454053878784179,-0.1308696120977401,0.0123700117692351,-0.0129808764904737,-0.009621120058
1772902308594778000,5.997778076171875,0.0569779872894287,0.0347280502319335,-0.0541426092386245,0.0160352010279893,-0.0325285494327545,-0.0004581485991366
1772902308613764900,6.016764892578125,-0.0494229793548584,-0.0035066604614257,0.0559943467378616,0.0032070400193333,-0.0319176837801933,0.0013744457392022
1772902308632751900,6.035751953125,-0.1400947570800781,-0.033360481262207,0.1143986880779266,-0.0108428495004773,-0.0160352010279893,-0.0114537142217159
1772902308651739000,6.05473876953125,-0.0714271068572998,0.0043191909790039,0.0516011267900466,-0.0120645789429545,-0.0007635809597559,-0.0248927399516105
1772902308670726000,6.073725830078125,0.0014855861663818,0.0220651626586914,-0.0270162969827651,-0.0059559317305684,0.0181732270866632,-0.0212275516241788
1772902308689713000,6.092712890625,0.0781636238098144,0.0150251388549804,-0.0613433569669723,-0.0053450670093297,0.0126754445955157,-0.0120645789429545
1772902308708700000,6.111699951171875,0.0647907257080078,0.0359811782836914,-0.0892711132764816,-0.0022907429374754,-0.0025961752980947,-0.0041233371011912
1772902308727687000,6.13068701171875,0.0511033535003662,0.0324964523315429,-0.0540036708116531,-0.0022907429374754,-0.009315688163042,0.0032070400193333
1772902308746674000,6.149673828125,0.0437443256378173,-0.0059995651245117,0.00917948782444,-0.0047342018224298,-0.0001527161948615,0.009315688163042
1772902308765661000,6.168660888671875,0.0022313594818115,-0.0268678665161132,0.0125616639852523,-0.0083993906155228,0.0047342018224298,0.0080939587205648
1772902308784647700,6.187647705078125,-0.0396389961242675,-0.0473079681396484,-0.0236613005399703,-0.0035124723799526,0.0077885258942842,0.0013744457392022
1772902308803634700,6.206634765625,-0.0506165027618408,-0.0291471481323242,-0.0526316165924072,0.0025961752980947,0.0035124723799526,-0.0041233371011912
1772902308822621700,6.22562158203125,-0.0174896717071533,0.0187501907348632,-0.0215522646903991,0.0050396346487104,-0.0044287694618105,-0.0053450670093297
1772902308841608700,6.244608642578125,0.034585952758789,0.0341224670410156,0.0127905905246734,0.0007635809597559,-0.0062613640911877,0.0044287694618105
1772902308860595700,6.263595703125,-0.0069994926452636,-0.0028963088989257,0.0455377995967865,-0.0035124723799526,0.0035124723799526,0.009315688163042
1772902308879582700,6.282582763671875,-0.0695312023162841,-0.0006208419799804,0.0310882329940795,0.0013744457392022,0.0212275516241788,-0.0016798780998215
1772902308898569700,6.30156982421875,-0.0270824432373046,-0.025496482849121,0.0474525541067123,0.0019853105768561,0.0218384154140949,-0.0138971740379929
1772902308917556700,6.320556640625,-0.0010206699371337,-0.0258378982543945,0.064044252038002,0.0001527161948615,0.0267253331840038,-0.0163406319916248
1772902308936543700,6.339543701171875,0.0355143547058105,-0.0188102722167968,0.0497730672359466,0.0001527161948615,0.0230601448565721,-0.016951497644186
1772902308955530500,6.358530517578125,0.051978588104248,-0.0145015716552734,-0.0122791528701782,0.0050396346487104,0.0090102553367614,-0.0193949565291404
1772902308974517500,6.377517578125,0.0874240398406982,0.0104379653930664,0.0201146453619003,-0.0022907429374754,-0.0117591470479965,-0.0114537142217159
1772902308993504500,6.39650439453125,0.0843570232391357,-0.0132274627685546,0.0267994105815887,-0.0145080387592315,-0.0258090365678071,0.0019853105768561
1772902309012491500,6.415491455078125,0.0402724742889404,0.0049705505371093,-0.0434664636850357,-0.016951497644186,-0.0349720083177089,0.0044287694618105
1772902309031478500,6.434478515625,-0.0069332122802734,-0.0189208984375,-0.0700539499521255,-0.0102319847792387,-0.0294742248952388,0.0019853105768561
1772902309050465500,6.453465576171875,-0.0346119403839111,-0.0021095275878906,-0.0605712980031967,-0.0071776611730456,-0.0190895237028598,-0.0004581485991366
1772902309069452500,6.47245263671875,-0.0170631408691406,0.0210199356079101,-0.0535264611244201,-0.0090102553367614,-0.0123700117692351,0.0013744457392022
1772902309088439600,6.491439453125,-0.0208444595336914,0.0243911743164062,-0.0767412185668945,-0.0053450670093297,-0.0062613640911877,0.0013744457392022
1772902309107426300,6.51042626953125,-0.0151259899139404,0.0046548843383789,-0.0873091667890548,0.0001527161948615,0.006566796451807,0.0050396346487104
1772902309126413300,6.529413330078125,0.0080361366271972,0.020400047302246,-0.0626600831747055,0.0001527161948615,0.016951497644186,0.0099265528842806
1772902309145400300,6.548400390625,0.0456945896148681,0.0580835342407226,-0.0746047720313072,0.0025961752980947,0.0071776611730456,0.0209221187978982
1772902309164387300,6.56738720703125,0.060497760772705,0.0189971923828125,-0.0309905558824539,0.0032070400193333,-0.0123700117692351,0.0313068181276321
1772902309183374300,6.586374267578125,0.0030539035797119,-0.0326967239379882,0.0527442693710327,0.0007635809597559,-0.0074830935336649,0.0331394150853157
1772902309202361300,6.605361328125,-0.0785026550292968,-0.0684728622436523,0.1492814123630523,-0.0108428495004773,0.0322231166064739,0.0245873071253299
1772902309221348400,6.624348388671875,-0.0993342399597168,-0.0455827713012695,0.0662766844034195,-0.0181732270866632,0.0548251122236251,0.0068722288124263
1772902309240335400,6.64333544921875,-0.037811279296875,0.0026483535766601,-0.1465331465005874,0.0080939587205648,0.0505490601062774,-0.0041233371011912
1772902309259322400,6.662322265625,0.0651612281799316,-0.011505126953125,-0.1296752095222473,0.0325285494327545,0.0224492810666561,-0.0035124723799526
1772902309278309000,6.68130908203125,0.0805118083953857,-0.0347423553466796,0.0401275008916854,0.0245873071253299,-0.0007635809597559,0.0105374176055192
1772902309297296100,6.700296142578125,-0.0643627643585205,0.0259809494018554,0.1586769968271255,0.0050396346487104,0.0041233371011912,0.0154243353754282
1772902309316283100,6.719283203125,-0.1336047649383545,0.0135269165039062,0.1461427956819534,-0.0102319847792387,0.0138971740379929,0.0007635809597559
1772902309335270100,6.738270263671875,-0.0467243194580078,-9.25064086914e-05,0.0274517089128494,-0.0071776611730456,0.0206166859716177,-0.0126754445955157
1772902309354257200,6.757257080078125,0.0553855895996093,0.028935432434082,-0.0344691723585128,-0.0016798780998215,0.0187840927392244,-0.0108428495004773
1772902309373244200,6.776244140625,0.0902578830718994,0.030562400817871,-0.0277245789766311,-0.0004581485991366,0.0053450670093297,0.0019853105768561
1772902309392231200,6.795231201171875,0.0463285446166992,-0.0065088272094726,-0.0389168038964271,0.0019853105768561,-0.0062613640911877,0.0123700117692351
1772902309411218200,6.81421826171875,0.0314249992370605,0.0134553909301757,-0.0293163061141967,0.0038179049734026,-0.0087048234418034,0.0166460648179054
1772902309430205200,6.833205078125,0.0081853866577148,0.0212678909301757,0.0226610898971557,0.0001527161948615,0.0035124723799526,0.0221438482403755
1772902309449192000,6.85219189453125,-0.0298082828521728,-0.020848274230957,-0.014526292681694,-0.0004581485991366,0.0224492810666561,0.0270307660102844
1772902309468179000,6.871178955078125,-0.0880444049835205,0.0158462524414062,-0.0598172545433044,0.0050396346487104,0.0187840927392244,0.0209221187978982
1772902309487166000,6.890166015625,-0.0567736625671386,0.0099143981933593,-0.0798993483185768,0.0129808764904737,0.0010690133785828,0.0117591470479965
1772902309506153000,6.909153076171875,0.0549759864807128,0.011244773864746,-0.0361972898244857,0.0135917412117123,-0.0142026059329509,0.0148134706541895
1772902309525140000,6.928139892578125,0.0670297145843505,0.0092124938964843,0.0138965845108032,0.0123700117692351,0.0047342018224298,0.0300850905478
1772902309544127000,6.947126953125,-0.0108938217163085,0.0368480682373046,0.0314399451017379,0.0117591470479965,0.0242818742990493,0.0368046015501022
1772902309563114000,6.966114013671875,-0.0510787963867187,0.0099411010742187,0.0540908575057983,0.0068722288124263,0.0334448479115963,0.0337502807378768
1772902309582101000,6.98510107421875,-0.051788330078125,-0.0273628234863281,0.0305791199207305,0.0019853105768561,0.0285579282790422,0.0270307660102844
1772902309601087700,7.004087646484375,-0.0604138374328613,-0.027984619140625,-0.0439712703227996,0.0019853105768561,0.0157297682017087,0.0184786599129438
1772902309620074800,7.02307470703125,0.0045225620269775,-0.0046901702880859,-0.0625194460153579,0.0080939587205648,-0.0062613640911877,0.0129808764904737
1772902309639061800,7.042061767578125,0.1055667400360107,-0.036111831665039,-0.0120374858379364,0.0099265528842806,-0.0209221187978982,0.0215329825878143
1772902309658048800,7.061048828125,0.0557150840759277,-0.0303421020507812,0.0210266858339309,0.009315688163042,-0.0117591470479965,0.0313068181276321
1772902309677035800,7.080035888671875,-0.021108865737915,-0.0262928009033203,0.0234024673700332,0.0038179049734026,-0.0160352010279893,0.0209221187978982
1772902309696022800,7.099022705078125,-0.0699927806854248,-0.018630027770996,0.0092541426420211,0.0038179049734026,-0.0215329825878143,0.0032070400193333
1772902309715009500,7.118009521484375,-0.0351614952087402,-0.0248956680297851,0.0286566317081451,-0.0004581485991366,-0.0154243353754282,-0.0041233371011912
1772902309733996500,7.13699658203125,-7.03334808349e-05,0.0020017623901367,0.013356789946556,-0.0016798780998215,-0.0007635809597559,-0.002901607658714
1772902309752983600,7.155983642578125,0.0282850265502929,0.0436811447143554,0.0089405328035354,-0.002901607658714,0.0083993906155228,0.0032070400193333
1772902309771970600,7.174970458984375,0.0260295867919921,0.0135755538940429,-0.0417433381080627,-0.002901607658714,0.0059559317305684,0.0074830935336649
1772902309790957600,7.19395751953125,0.0010349750518798,0.0217761993408203,-0.0516033023595809,0.0044287694618105,0.0090102553367614,0.0062613640911877
1772902309809944600,7.212944580078125,0.0043153762817382,-0.0285549163818359,-0.0647379606962204,0.0080939587205648,0.016951497644186,0.0074830935336649
1772902309828931600,7.231931640625,-0.0022475719451904,-0.0394582748413085,-0.0452644303441047,0.0105374176055192,0.006566796451807,0.0025961752980947
1772902309847918600,7.250918701171875,-0.0074212551116943,-0.0098609924316406,-0.1073683723807334,0.0209221187978982,-0.0038179049734026,-0.0047342018224298
1772902309866905300,7.2699052734375,0.0457777976989746,-0.0184316635131835,-0.1100612580776214,0.0270307660102844,-0.0306959543377161,-0.0053450670093297
1772902309885892400,7.288892333984375,-0.0275516510009765,-0.0548133850097656,0.0577993839979171,0.0245873071253299,-0.0245873071253299,-0.0126754445955157
1772902309904879400,7.30787939453125,-0.0312530994415283,-0.0311260223388671,0.1239032447338104,0.0032070400193333,0.0016798780998215,-0.0138971740379929
1772902309923866400,7.326866455078125,-0.0192439556121826,-0.0080394744873046,-0.017932504415512,0.0007635809597559,0.0047342018224298,-0.0212275516241788
1772902309942853400,7.345853271484375,0.0667290687561035,0.0776710510253906,-0.134474903345108,0.0190895237028598,-0.0172569304704666,-0.0181732270866632
1772902309961840400,7.36484033203125,0.0753228664398193,0.049757957458496,-0.0540764033794403,0.0239764433354139,-0.0288633611053228,-0.0004581485991366
1772902309980827100,7.3838271484375,-0.0593719482421875,-0.0054521560668945,0.0993528813123703,0.0129808764904737,-0.019700389355421,0.0025961752980947
1772902309999814100,7.402814208984375,-0.1452155113220214,-0.0019025802612304,0.1433281004428863,0.0019853105768561,-0.0044287694618105,-0.016951497644186
1772902310018801200,7.42180126953125,-0.0973753929138183,0.0191268920898437,0.0776001065969467,0.0056504993699491,0.009621120058,-0.0426078177988529
1772902310037788200,7.4407880859375,-0.0385806560516357,0.0408859252929687,0.0544707626104354,0.0062613640911877,0.0218384154140949,-0.0566577091813087
1772902310056775200,7.459775146484375,0.1008622646331787,-0.004225730895996,-0.0050727277994155,0.0044287694618105,0.0334448479115963,-0.0456621423363685
1772902310075762200,7.47876220703125,0.1670145988464355,-0.039748191833496,-0.0288004726171493,0.0032070400193333,0.0310013871639966,-0.0206166859716177
1772902310094749000,7.4977490234375,0.1772615909576416,-0.0222539901733398,-0.0194744318723678,-0.0041233371011912,0.0102319847792387,0.0050396346487104
1772902310113736000,7.51673583984375,0.0620341300964355,0.0075569152832031,-0.029099017381668,-0.0077885258942842,-0.0062613640911877,0.0178677942603826
1772902310132723000,7.535722900390625,-0.0254514217376709,-0.0384101867675781,-0.0069670528173446,-0.0047342018224298,-0.009315688163042,0.0190895237028598
1772902310151710000,7.5547099609375,-0.0546622276306152,-0.0287809371948242,-0.0207901000976562,0.0007635809597559,-0.0013744457392022,0.0123700117692351
1772902310170697000,7.573697021484375,-0.0631153583526611,0.0303401947021484,-0.0236357003450393,0.0056504993699491,-0.0105374176055192,0.0038179049734026
1772902310189684000,7.59268408203125,0.000239610671997,0.0293598175048828,-0.0351393073797225,0.0123700117692351,-0.0166460648179054,0.0038179049734026
1772902310208671000,7.6116708984375,0.036771535873413,0.0136632919311523,0.0423778146505355,0.0074830935336649,-0.0154243353754282,0.0117591470479965
1772902310227658000,7.630657958984375,0.0171263217926025,0.03314208984375,0.0752668529748916,0.0007635809597559,0.0047342018224298,0.0184786599129438
1772902310246644700,7.649644775390625,-0.0200312137603759,0.0007534027099609,0.0719902515411377,-0.0071776611730456,0.0145080387592315,0.0160352010279893
1772902310265631700,7.6686318359375,-0.0014209747314453,-0.0394716262817382,-0.0051854848861694,-0.0083993906155228,0.0083993906155228,0.0080939587205648
1772902310284618800,7.68761865234375,0.0277843475341796,-0.02227783203125,-0.032075747847557,-0.0059559317305684,0.0022907429374754,0.0080939587205648
1772902310303605800,7.706605712890625,0.0360414981842041,-0.0364913940429687,-0.0086879581212997,-0.006566796451807,0.0071776611730456,0.0148134706541895
1772902310322592800,7.7255927734375,-0.0497615337371826,-0.0312442779541015,-0.0205661803483963,-0.0114537142217159,0.0004581485991366,0.0074830935336649
1772902310341579800,7.744579833984375,-0.0222351551055908,-0.0024480819702148,-0.0355063527822494,-0.0083993906155228,-0.0111482823267579,-0.0010690133785828
1772902310360566500,7.76356640625,-0.012186050415039,0.0093030929565429,-0.0174585729837417,-0.0077885258942842,-0.0105374176055192,0.0001527161948615
1772902310379553500,7.782553466796875,0.0332720279693603,0.027297019958496,-0.0021020174026489,-0.0083993906155228,-0.0056504993699491,0.0056504993699491
1772902310398540500,7.80154052734375,0.0411505699157714,-0.0065422058105468,-0.028513416647911,-0.0053450670093297,0.0047342018224298,0.0099265528842806
1772902310417527600,7.820527587890625,-0.0591487884521484,0.0160760879516601,-0.0074398070573806,-0.0041233371011912,0.0200058221817016,0.009315688163042
1772902310436514600,7.8395146484375,-0.0329468250274658,0.0224018096923828,-0.0400261431932449,-0.0035124723799526,0.0218384154140949,0.0001527161948615
1772902310455501300,7.858501220703125,0.010270357131958,0.0540962219238281,-0.0733785629272461,-0.0004581485991366,-0.0019853105768561,0.0013744457392022
1772902310474488300,7.87748828125,0.0202198028564453,0.0011157989501953,-0.0254344940185546,0.0087048234418034,-0.0056504993699491,0.0056504993699491
1772902310493475300,7.896475341796875,0.0136899948120117,-0.0505809783935546,0.0629421174526214,0.0105374176055192,0.0187840927392244,0.0080939587205648
1772902310512462300,7.91546240234375,-0.0349667072296142,-0.0001201629638671,0.0709650367498397,0.0062613640911877,0.0383317656815052,0.0032070400193333
1772902310531449300,7.934449462890625,-0.0658109188079834,0.0144281387329101,0.0781348496675491,0.0019853105768561,0.0432186834514141,-0.0145080387592315
1772902310550436000,7.95343603515625,-0.0028827190399169,0.0205621719360351,0.0025146007537841,0.0007635809597559,0.0126754445955157,-0.0297796577215194
1772902310569423000,7.972423095703125,0.1302244663238525,-0.0295915603637695,0.0050010681152343,0.0007635809597559,-0.0044287694618105,-0.0255036037415266
1772902310588410000,7.99141015625,0.1170568466186523,-0.0423088073730468,0.0681442022323608,-0.0090102553367614,-0.0032070400193333,-0.0016798780998215
1772902310607397000,8.010397216796875,0.0329575538635253,-0.0390663146972656,0.0763553529977798,-0.0212275516241788,0.0047342018224298,0.009315688163042
1772902310626384100,8.029384033203126,-0.0514132976531982,0.027846336364746,-0.1130254566669464,-0.0132863093167543,-0.0190895237028598,-0.0035124723799526
1772902310645371100,8.04837109375,-0.0081276893615722,0.0924263000488281,-0.2134544849395752,0.0135917412117123,-0.0545196831226348,-0.0059559317305684
1772902310664358000,8.06735791015625,0.0723214149475097,0.053903579711914,-0.0868657827377319,0.0282524954527616,-0.075899951159954,0.0111482823267579
1772902310683345000,8.086344970703125,0.0309953689575195,0.0434036254882812,0.1228700280189514,0.0129808764904737,-0.061239194124937,0.0355828739702701
1772902310702332000,8.105331787109375,-0.1121053695678711,0.0204076766967773,0.1781690567731857,-0.0083993906155228,-0.0129808764904737,0.0416915230453014
1772902310721319000,8.12431884765625,-0.1590209007263183,0.0064001083374023,0.0721555352210998,-0.0151189034804701,0.0120645789429545,0.0245873071253299
1772902310740306000,8.143305908203125,-0.0771043300628662,0.0240249633789062,-0.0590590089559555,0.0019853105768561,0.0230601448565721,0.0099265528842806
1772902310759292700,8.162292724609374,0.0816903114318847,0.0245704650878906,-0.0169437676668167,0.0080939587205648,0.0261144693940877,0.0178677942603826
1772902310778279700,8.18127978515625,0.1572659015655517,0.0027809143066406,0.0563326328992843,0.0013744457392022,0.0151189034804701,0.0416915230453014
1772902310797266700,8.2002666015625,0.048668622970581,-0.0386486053466796,0.0565260797739028,-0.0053450670093297,0.0218384154140949,0.0539088174700737
1772902310816253700,8.219253662109375,-0.1044530868530273,-0.0772361755371093,0.0360266119241714,-0.0035124723799526,0.0261144693940877,0.0337502807378768
1772902310835240700,8.23824072265625,-0.1292774677276611,-0.1223564147949218,0.0470043867826461,-0.0071776611730456,0.0261144693940877,0.0050396346487104
1772902310854227500,8.2572275390625,-0.0705959796905517,-0.0779495239257812,0.0625345259904861,-0.0114537142217159,0.027336198836565,-0.0120645789429545
1772902310873214500,8.27621435546875,0.0393154621124267,-0.0139007568359375,0.0383277237415313,-0.0145080387592315,0.0132863093167543,-0.0083993906155228
1772902310892201500,8.295201416015624,0.0753047466278076,0.0242700576782226,-0.0557110458612442,-0.009621120058,0.0132863093167543,0.0044287694618105
1772902310911188500,8.3141884765625,0.0326948165893554,0.0627193450927734,0.0352650433778762,-0.0102319847792387,0.0151189034804701,0.0135917412117123
1772902310930175500,8.333175537109375,0.0234780311584472,0.0663156509399414,0.0102038085460662,-0.0224492810666561,0.009621120058,0.0221438482403755
1772902310949162500,8.35216259765625,-0.0186851024627685,0.0853281021118164,-0.0247899293899536,-0.0255036037415266,0.0132863093167543,0.0337502807378768
1772902310968149200,8.371149169921875,-0.0818727016448974,0.0312728881835937,-0.077199101448059,-0.0187840927392244,0.0181732270866632,0.0361937396228313
1772902310987136300,8.39013623046875,-0.0778188705444336,0.0090255737304687,-0.1347681283950805,-0.0083993906155228,0.0102319847792387,0.0355828739702701
1772902311006123300,8.409123291015625,-0.0573852062225341,0.0152368545532226,-0.122341975569725,0.0013744457392022,0.0083993906155228,0.0361937396228313
1772902311025110300,8.4281103515625,-0.0028038024902343,0.0148115158081054,-0.0417191833257675,0.0044287694618105,0.0041233371011912,0.0355828739702701
1772902311044097300,8.44709716796875,0.0006499290466308,0.005223274230957,-0.0315040647983551,0.0087048234418034,0.0120645789429545,0.0325285494327545
1772902311063084000,8.466083984375,0.0195662975311279,-0.0086355209350585,-0.0083649307489395,0.0135917412117123,0.0181732270866632,0.0276416316628456
1772902311082071000,8.485071044921876,-0.0023989677429199,-0.0215015411376953,0.0335433632135391,0.0105374176055192,0.0261144693940877,0.0233655776828527
1772902311101058000,8.50405810546875,0.0009012222290039,-0.0152320861816406,0.0419883131980896,0.0019853105768561,0.0102319847792387,0.0190895237028598
1772902311120045000,8.523045166015624,0.0148918628692626,0.000126838684082,0.0200873464345932,-0.002901607658714,-0.0019853105768561,0.0148134706541895
1772902311139032000,8.542031982421875,-0.0567123889923095,-0.0584964752197265,0.0509494394063949,-0.0077885258942842,0.0004581485991366,0.0068722288124263
1772902311158018800,8.561018798828124,-0.170802354812622,-0.0634307861328125,0.0959021300077438,-0.016951497644186,0.0083993906155228,-0.0138971740379929
1772902311177005800,8.580005859375,-0.1219260692596435,-0.0315103530883789,0.0329406559467315,-0.0218384154140949,-0.0129808764904737,-0.0383317656815052
1772902311195992800,8.598992919921875,-0.0634124279022216,0.0222358703613281,-0.012549266219139,-0.0261144693940877,-0.0325285494327545,-0.0566577091813087
1772902311214979800,8.617979736328126,0.038198709487915,-0.0419321060180664,-0.0522064343094825,-0.0218384154140949,-0.0313068181276321,-0.0609337612986564
1772902311233966800,8.636966796875,0.1124014854431152,-0.0259304046630859,-0.1060112714767456,-0.0090102553367614,-0.0178677942603826,-0.0456621423363685
1772902311252953600,8.65595361328125,0.2208204269409179,0.0068693161010742,-0.1019286885857582,0.0105374176055192,-0.0117591470479965,-0.0206166859716177
1772902311271940600,8.674940673828125,0.2111299037933349,-0.0283746719360351,-0.0346524268388748,0.0227547138929367,0.0010690133785828,0.009315688163042
1772902311290927600,8.693927734375,-0.0312328338623046,-0.0746936798095703,0.0866525769233703,0.0142026059329509,0.027336198836565,0.0154243353754282
1772902311309914600,8.71291455078125,-0.1354014873504638,-0.018198013305664,0.0434229373931884,0.0099265528842806,0.0242818742990493,-0.0108428495004773
1772902311328901600,8.731901611328125,-0.0458102226257324,0.0535106658935546,-0.0596563890576362,0.0233655776828527,0.0212275516241788,-0.0230601448565721
1772902311347888400,8.750888427734376,0.07706880569458,0.0850868225097656,-0.0100208520889282,0.0276416316628456,0.0126754445955157,-0.0059559317305684
1772902311366875400,8.76987548828125,0.0645122528076171,0.0467662811279296,0.0573195070028305,0.0215329825878143,0.0157297682017087,0.0178677942603826
1772902311385862400,8.7888623046875,-0.0670819282531738,0.0230588912963867,0.0706729292869567,0.0111482823267579,0.0193949565291404,0.0227547138929367
1772902311404849400,8.807849365234375,-0.0427134037017822,0.0373191833496093,0.0446735471487045,0.0111482823267579,0.0248927399516105,0.0160352010279893
1772902311423836400,8.82683642578125,-0.0127260684967041,0.025634765625,0.0079940557479858,0.019700389355421,0.0395534932613372,0.0215329825878143
1772902311442823400,8.845823486328126,-0.0229218006134033,0.0164918899536132,-0.0306778997182846,0.0239764433354139,0.0395534932613372,0.0215329825878143
1772902311461810200,8.86481005859375,-0.0259573459625244,0.0172653198242187,-0.0107922255992889,0.0221438482403755,0.0267253331840038,0.0160352010279893
1772902311480797200,8.883797119140626,-0.0560386180877685,-0.0307855606079101,-0.0033048391342163,0.0203112531453371,0.0157297682017087,0.0062613640911877
1772902311499784200,8.9027841796875,0.0233283042907714,-0.0485515594482421,-0.0128328800201416,0.0209221187978982,0.0157297682017087,0.0013744457392022
1772902311518771200,8.921771240234374,-0.0008225440979003,-0.0820074081420898,0.032527670264244,0.0190895237028598,0.0316122509539127,-0.0016798780998215
1772902311537758200,8.94075830078125,-0.0610671043395996,-0.0248699188232421,0.0728680342435836,0.0129808764904737,0.0371100343763828,-0.0126754445955157
1772902311556745000,8.959744873046875,-0.0371639728546142,0.0243520736694335,0.0389058142900466,0.0056504993699491,0.0224492810666561,-0.0255036037415266
1772902311575732000,8.97873193359375,-0.0011303424835205,0.0512304306030273,0.0643606781959533,-0.0077885258942842,-0.0038179049734026,-0.0285579282790422
1772902311594719000,8.997718994140625,-0.00822114944458,0.0771980285644531,0.0692356079816818,-0.0212275516241788,-0.0245873071253299,-0.0322231166064739
1772902311613706000,9.0167060546875,0.0099680423736572,0.0436010360717773,0.0696544051170349,-0.0322231166064739,-0.0349720083177089,-0.0291687939316034
1772902311632693000,9.03569287109375,0.0620648860931396,0.0356607437133789,0.0052053034305572,-0.0303905233740806,-0.0300850905478,-0.0138971740379929
1772902311651679700,9.0546796875,0.0464560985565185,0.0177812576293945,-0.0122008323669433,-0.0279470644891262,-0.0080939587205648,0.0099265528842806
1772902311670666800,9.073666748046875,0.1237962245941162,-0.026519775390625,-0.0456537008285522,-0.0083993906155228,0.0114537142217159,0.0294742248952388
1772902311689653800,9.09265380859375,0.0685508251190185,-0.0147714614868164,-0.0309076011180877,-0.002901607658714,0.0236710105091333,0.0502436272799968
1772902311708640500,9.111640625,-0.0422995090484619,-0.0245208740234375,0.0213132351636886,-0.002901607658714,0.0206166859716177,0.0459675751626491
1772902311727627500,9.13062744140625,-0.0893294811248779,-0.0094690322875976,-0.0129313170909881,-0.0035124723799526,0.0071776611730456,0.0245873071253299
1772902311746614500,9.149614501953126,-0.0369961261749267,-0.0542259216308593,-0.0075368583202362,-0.0035124723799526,-0.0056504993699491,0.0105374176055192
1772902311765601500,9.1686015625,0.0544312000274658,-0.0741081237792968,-0.005127876996994,-0.002901607658714,-0.0062613640911877,0.0099265528842806
1772902311784588300,9.18758837890625,0.0751428604125976,-0.0302104949951171,-0.0143337845802307,0.0007635809597559,-0.0025961752980947,0.0135917412117123
1772902311803575300,9.2065751953125,0.0635063648223877,-0.0113430023193359,-0.0145106166601181,0.0038179049734026,-0.0019853105768561,0.0160352010279893
1772902311822562300,9.225562255859376,0.0339477062225341,0.030099868774414,0.0220213681459426,0.0038179049734026,-0.0062613640911877,0.0160352010279893
1772902311841549300,9.24454931640625,0.0573194026947021,0.0138893127441406,-0.0126891285181045,0.0032070400193333,-0.0148134706541895,0.0209221187978982
1772902311860536300,9.263536376953123,-0.0068025588989257,-0.0320911407470703,-0.0092853605747222,0.0050396346487104,-0.0123700117692351,0.0172569304704666
1772902311879523000,9.282523193359374,-0.1008353233337402,0.003448486328125,-0.0206426382064819,0.0074830935336649,-0.0142026059329509,0.0032070400193333
1772902311898510000,9.301510009765623,-0.0539996623992919,0.0427379608154296,-0.0139772593975067,0.0105374176055192,-0.0270307660102844,-0.0047342018224298
1772902311917497000,9.3204970703125,0.0153570175170898,-0.0123472213745117,0.032018631696701,0.0050396346487104,-0.0306959543377161,0.0001527161948615
1772902311936484000,9.339484130859375,-0.0664515495300293,-0.0588808059692382,0.10347780585289,-0.0059559317305684,0.002901607658714,0.0038179049734026
1772902311955471000,9.35847119140625,-0.0906472206115722,-0.0537662506103515,0.0238096863031387,-0.0145080387592315,0.016951497644186,-0.0077885258942842
1772902311974458000,9.3774580078125,-0.0059254169464111,0.0609893798828125,-0.1454694122076034,-0.0041233371011912,0.0016798780998215,-0.0145080387592315
1772902311993444900,9.39644482421875,0.074559211730957,0.0986900329589843,-0.1463640928268432,0.0068722288124263,-0.0068722288124263,0.0001527161948615
1772902312012432000,9.415431884765624,0.0908761024475097,0.0476789474487304,-0.0441731661558151,-0.002901607658714,-0.0074830935336649,0.0209221187978982
1772902312031419000,9.4344189453125,-0.0267975330352783,-0.0212430953979492,-0.0153459906578063,-0.0157297682017087,-0.0032070400193333,0.0300850905478
1772902312050405600,9.453405517578124,-0.0844430923461914,-0.0601453781127929,-0.05107431858778,-0.0151189034804701,0.0163406319916248,0.0288633611053228
1772902312069392600,9.472392578125,-0.0778455734252929,-0.0638427734375,-0.0857483446598053,-0.0041233371011912,0.0316122509539127,0.0184786599129438
1772902312088379600,9.491379638671877,-0.0356009006500244,-0.0205583572387695,-0.0975839793682098,0.0050396346487104,0.0255036037415266,0.009315688163042
1772902312107366700,9.51036669921875,0.0276491641998291,0.0426301956176757,-0.0453257337212562,0.0013744457392022,-0.0019853105768561,0.0074830935336649
1772902312126353400,9.529353515625,0.0918655395507812,0.0727815628051757,-0.0209928825497627,-0.0047342018224298,-0.0184786599129438,0.0178677942603826
1772902312145340400,9.54834033203125,0.055917739868164,0.0151023864746093,0.0459833890199661,-0.0071776611730456,-0.0038179049734026,0.0294742248952388
1772902312164327400,9.567327392578123,0.0035014152526855,-0.0058879852294921,0.0392865538597106,-0.0090102553367614,0.0035124723799526,0.0313068181276321
1772902312183314400,9.586314453125,-0.0764169692993164,-0.0120372772216796,0.0138005912303924,-0.0053450670093297,0.0059559317305684,0.0227547138929367
1772902312202301400,9.605301513671876,-0.1019494533538818,-0.0124330520629882,-0.0185246914625167,0.0001527161948615,-0.0001527161948615,0.0068722288124263
1772902312221288200,9.6242880859375,-0.0301461219787597,0.0064563751220703,-0.04697797447443,0.0074830935336649,-0.0007635809597559,0.0044287694618105
1772902312240275200,9.643275146484376,0.0190887451171875,0.0335645675659179,0.0470109730958938,0.0050396346487104,0.0083993906155228,0.0111482823267579
1772902312259262200,9.66226220703125,0.0348930358886718,0.0268449783325195,0.0556815415620803,0.0019853105768561,0.0261144693940877,0.0142026059329509
1772902312278249200,9.681249267578124,0.0461549758911132,0.0271100997924804,0.0466460138559341,0.0001527161948615,0.0261144693940877,0.019700389355421
1772902312297236200,9.700236328125,0.067148208618164,0.0088186264038085,0.0093116164207458,0.0019853105768561,0.0297796577215194,0.0227547138929367
1772902312316223000,9.719222900390625,0.0463607311248779,-0.0209741592407226,-0.0178412720561027,0.0056504993699491,0.0334448479115963,0.0300850905478
1772902312335210000,9.7382099609375,-0.0115020275115966,-0.0481882095336914,-0.0143607258796691,0.0056504993699491,0.0218384154140949,0.0245873071253299
1772902312354197000,9.757197021484377,0.0013411045074462,-0.0360937118530273,0.0049418956041336,0.0050396346487104,0.0108428495004773,0.0160352010279893
1772902312373183700,9.776183837890626,-0.029381513595581,-0.0614337921142578,0.0190284103155136,-0.0016798780998215,0.0047342018224298,0.0099265528842806
1772902312392170800,9.795170654296877,-0.0442202091217041,-0.0530776977539062,0.0211309492588043,0.0001527161948615,0.0114537142217159,0.0001527161948615
1772902312411157800,9.81415771484375,0.0619876384735107,-0.0254993438720703,-0.019484058022499,0.0044287694618105,-0.0001527161948615,-0.0047342018224298
1772902312430144800,9.833144775390624,0.095062255859375,0.0192575454711914,0.0101446062326431,0.0087048234418034,-0.0019853105768561,0.0013744457392022
1772902312449131500,9.852131591796876,0.0955259799957275,0.013747215270996,0.0507033616304397,0.0025961752980947,-0.0123700117692351,0.0080939587205648
1772902312468118500,9.871118408203126,0.0548975467681884,-0.0132684707641601,0.0552467405796051,-0.0035124723799526,-0.0203112531453371,0.0111482823267579
1772902312487105500,9.89010546875,-0.0198626518249511,0.0048770904541015,0.0746889263391494,-0.0053450670093297,-0.0062613640911877,0.0099265528842806
1772902312506092500,9.909092529296874,-0.0797090530395507,-0.0089616775512695,0.0545390993356704,-0.0083993906155228,-0.0038179049734026,-0.002901607658714
1772902312525079600,9.92807958984375,-0.0601265430450439,0.0106678009033203,-0.0390685573220253,-0.0010690133785828,-0.0258090365678071,-0.0132863093167543
1772902312544066300,9.94706640625,0.0337252616882324,0.0087442398071289,0.0063089281320571,0.0025961752980947,-0.0392480604350566,-0.0077885258942842
1772902312563053300,9.96605322265625,0.0376498699188232,-0.0384950637817382,0.112735167145729,-0.0108428495004773,-0.0239764433354139,0.0062613640911877
1772902312582040300,9.985040283203125,-0.1057238578796386,-0.0395870208740234,0.0957793891429901,-0.0255036037415266,0.0041233371011912,-0.0004581485991366
1772902312601027000,10.004027099609376,-0.0763876438140869,0.0070924758911132,-0.0611079186201095,-0.0224492810666561,0.0120645789429545,-0.0181732270866632
1772902312620014000,10.02301416015625,0.0563149452209472,0.1150798797607421,-0.200395867228508,-0.0016798780998215,-0.0087048234418034,-0.0151189034804701
1772902312639001000,10.0420009765625,0.1532356739044189,0.0917243957519531,-0.151278480887413,0.0117591470479965,-0.0129808764904737,0.0154243353754282
1772902312657988000,10.060988037109375,0.0031797885894775,-0.0295600891113281,-0.0131513178348541,0.0062613640911877,-0.0080939587205648,0.0294742248952388
1772902312676974800,10.079974853515624,-0.1872491836547851,-0.0554084777832031,0.0431869477033615,-0.0035124723799526,-0.0025961752980947,0.0111482823267579
1772902312695961900,10.0989619140625,-0.141932725906372,-0.0111312866210937,0.0149517804384231,-0.0059559317305684,0.002901607658714,-0.0083993906155228
1772902312714948900,10.117948974609376,-0.0010888576507568,0.0129690170288085,-0.0503947287797927,0.0013744457392022,0.006566796451807,-0.006566796451807
1772902312733935900,10.136935791015626,0.0310988426208496,0.0193843841552734,-0.0629796758294105,0.0044287694618105,0.0090102553367614,0.0007635809597559
1772902312752922600,10.155922607421877,0.00221848487854,0.0348997116088867,-0.0194881483912467,0.0013744457392022,-0.0013744457392022,0.0013744457392022
1772902312771909600,10.17490966796875,-0.0092725753784179,0.0101070404052734,-0.0353076606988906,-0.0022907429374754,-0.0080939587205648,-0.0016798780998215
1772902312790896600,10.193896728515623,-0.0190467834472656,-0.0110158920288085,-0.0602093562483787,0.0019853105768561,-0.0013744457392022,-0.0053450670093297
1772902312809883400,10.21288330078125,0.0039968490600585,-0.0359706878662109,-0.0322156697511673,0.0013744457392022,0.0163406319916248,-0.0041233371011912
1772902312828870400,10.231870361328124,-0.0719485282897949,-0.0201406478881835,-0.0554039105772972,0.0019853105768561,0.0310013871639966,-0.0083993906155228
1772902312847857400,10.250857421875,-0.1099839210510253,-0.0253019332885742,-0.0967942029237747,0.0056504993699491,0.0230601448565721,-0.0218384154140949
1772902312866844400,10.269844482421876,-0.0580449104309082,-0.0061683654785156,-0.0969268977642059,0.0105374176055192,0.006566796451807,-0.0340557098388671
1772902312885831400,10.28883154296875,0.0573787689208984,0.0286321640014648,-0.0142244398593902,0.0105374176055192,-0.0019853105768561,-0.027336198836565
1772902312904818200,10.307818115234374,0.1041152477264404,0.030898094177246,0.0274945646524429,0.0019853105768561,0.0016798780998215,-0.0108428495004773
1772902312923805200,10.32680517578125,0.001349925994873,0.0279464721679687,0.0297779887914657,-0.0010690133785828,0.0071776611730456,-0.0059559317305684
1772902312942792200,10.345792236328125,-0.0284819602966308,-0.0135049819946289,0.0180152356624603,-0.0047342018224298,0.0022907429374754,-0.0145080387592315
1772902312961779000,10.364779052734375,0.0446152687072753,-0.0144891738891601,0.030092567205429,-0.002901607658714,0.0041233371011912,-0.0138971740379929
1772902312980766000,10.383765869140625,0.0158402919769287,-0.0324773788452148,0.0306873172521591,-0.0035124723799526,0.0218384154140949,-0.0077885258942842
1772902312999753000,10.4027529296875,-0.0478618144989013,-0.0096950531005859,0.0015574246644973,-0.0059559317305684,0.0218384154140949,-0.0163406319916248
1772902313018740000,10.421739990234377,-0.0505392551422119,-0.0075273513793945,-0.0199858546257019,-0.0059559317305684,0.0016798780998215,-0.0328339822590351
1772902313037726700,10.440726806640624,0.0357680320739746,-0.0003747940063476,0.0214089602231979,-0.0083993906155228,-0.0117591470479965,-0.0340557098388671
1772902313056713700,10.459713623046875,0.0815169811248779,-0.0081720352172851,0.0291589573025703,-0.0102319847792387,0.0016798780998215,-0.0206166859716177
1772902313075700700,10.47870068359375,0.0245923995971679,0.0066986083984375,0.0443806499242782,-0.0120645789429545,0.0047342018224298,-0.016951497644186
1772902313094687700,10.497687744140626,0.0202524662017822,-0.0079507827758789,0.0242611914873123,-0.0071776611730456,0.0016798780998215,-0.0236710105091333
1772902313113674500,10.516674560546877,0.0061938762664794,0.0057125091552734,0.0372363179922103,-0.0077885258942842,0.0181732270866632,-0.0230601448565721
1772902313132661500,10.53566162109375,0.0830185413360595,-0.0639600753784179,0.0676938146352768,-0.0157297682017087,0.0297796577215194,-0.0077885258942842
1772902313151648500,10.5546484375,-0.0057766437530517,0.0020999908447265,-0.0404509976506233,-0.0035124723799526,0.0364991687238216,-0.0157297682017087
1772902313170635300,10.57363525390625,-0.0295977592468261,-0.0175809860229492,-0.0942380651831626,0.0038179049734026,0.0279470644891262,-0.0224492810666561
1772902313189622300,10.592622314453124,-0.003171682357788,0.0129108428955078,-0.0664806514978408,0.0080939587205648,-0.0080939587205648,-0.0291687939316034
1772902313208609300,10.611609375,0.0416758060455322,0.0326166152954101,0.0217162743210792,0.0080939587205648,-0.019700389355421,-0.0242818742990493
1772902313227596300,10.63059619140625,0.0614581108093261,-0.0260438919067382,0.1659561693668365,-0.0145080387592315,-0.0050396346487104,-0.0077885258942842
1772902313246583000,10.6495830078125,-0.0019521713256835,-0.0272464752197265,0.1310607492923736,-0.0322231166064739,0.0157297682017087,-0.002901607658714
1772902313265570000,10.668570068359376,-0.0168702602386474,0.0416469573974609,-0.077921062707901,-0.016951497644186,0.0193949565291404,-0.0077885258942842
1772902313284557000,10.68755712890625,0.0240089893341064,0.0363426208496093,-0.1219537705183029,0.0105374176055192,-0.0062613640911877,-0.0120645789429545
1772902313303543800,10.706543701171874,0.0522568225860595,0.0029535293579101,0.0047822296619415,0.0142026059329509,-0.0178677942603826,-0.0041233371011912
1772902313322530800,10.72553076171875,-0.0264480113983154,0.0071640014648437,0.1198089644312858,-0.0059559317305684,-0.0184786599129438,-0.0004581485991366
1772902313341517800,10.744517822265625,-0.0986080169677734,0.0210962295532226,0.1421380043029785,-0.0267253331840038,0.0004581485991366,-0.0059559317305684
1772902313360504800,10.7635048828125,-0.0810797214508056,0.000349998474121,0.0401812195777893,-0.0261144693940877,0.0151189034804701,-0.0132863093167543
1772902313379491800,10.782491943359377,0.0500807762145996,0.0334939956665039,-0.0789699405431747,-0.0102319847792387,0.0108428495004773,-0.0126754445955157
1772902313398478600,10.801478515625,0.0827498435974121,0.0280008316040039,-0.0447816029191017,-0.0041233371011912,0.0035124723799526,-0.0010690133785828
1772902313417465600,10.820465576171877,-0.0082945823669433,0.0385494232177734,-0.0404126271605491,-0.0010690133785828,0.0047342018224298,0.0050396346487104
1772902313436452400,10.839452392578124,-0.0214791297912597,0.0672998428344726,0.0133759006857872,-0.0016798780998215,0.009621120058,0.0038179049734026
1772902313455439400,10.858439453125,-0.0390911102294921,-0.007451057434082,0.0263811200857162,-0.0035124723799526,0.0163406319916248,0.0007635809597559
1772902313474426400,10.87742626953125,-0.0335564613342285,-0.021148681640625,-0.0222473368048667,0.0032070400193333,0.0206166859716177,-0.0022907429374754
1772902313493413400,10.896413330078126,0.0262229442596435,0.0025959014892578,-0.0544019378721714,0.0105374176055192,0.0163406319916248,0.0038179049734026
1772902313512400400,10.915400390625,0.0407366752624511,-0.0006179809570312,-0.024934634566307,0.0160352010279893,-0.0007635809597559,0.009315688163042
1772902313531387100,10.93438720703125,0.0298633575439453,0.0355215072631835,0.0264078900218009,0.0129808764904737,-0.0148134706541895,0.0154243353754282
1772902313550374100,10.9533740234375,-0.0337274074554443,-0.0272064208984375,0.050871193408966,0.009315688163042,-0.0080939587205648,0.0142026059329509
1772902313569361000,10.97236083984375,-0.104360818862915,-0.036142349243164,0.084798127412796,0.0087048234418034,0.0010690133785828,-0.0004581485991366
1772902313588348000,10.991347900390624,-0.0097973346710205,-0.0223369598388671,0.0049528628587722,0.019700389355421,-0.0007635809597559,-0.0145080387592315
1772902313607335000,11.0103349609375,0.0557055473327636,0.0101118087768554,0.0573150292038917,0.0209221187978982,0.0016798780998215,-0.009621120058
1772902313626322000,11.029322021484376,-0.023414134979248,0.0406990051269531,0.0444800853729248,0.0355828739702701,0.0322231166064739,-0.0163406319916248
1772902313645309000,11.048308837890623,-0.1453065872192382,-0.0386505126953125,0.1031349375844001,0.0361937396228313,0.2325867712497711,0.0410806573927402
1772902313664295700,11.067295654296874,0.3109593391418457,-0.0518436431884765,0.3035830557346344,-0.0395534932613372,0.2790125012397766,0.1449276655912399
1772902313683282700,11.08628271484375,0.4872434139251709,0.2650890350341797,-0.2023235559463501,-0.0474947355687618,-0.0661261156201362,0.088117241859436
1772902313702269400,11.10526953125,-0.0079810619354248,0.0195436477661132,-0.4618476033210754,-0.0041233371011912,-0.2035706937313079,0.0368046015501022
1772902313721256400,11.12425634765625,-0.2707064151763916,-0.0200233459472656,-0.0194231867790222,0.0178677942603826,-0.2151771187782287,-0.0358883067965507
1772902313740243500,11.143243408203125,-0.1627202033996582,-0.1390848159790039,0.1913014948368072,-0.0041233371011912,-0.129656046628952,-0.0493273325264453
1772902313759230500,11.16223046875,-0.0391070842742919,-0.1517581939697265,0.1687913537025451,-0.016951497644186,0.0383317656815052,-0.0041233371011912
