time,seconds_elapsed,acc_z,acc_y,acc_x,gyro_z,gyro_y,gyro_x
1772902327296896000,0.09989599609375,0.0319445133209228,0.0055608749389648,0.0244853198528289,0.0050396346487104,0.0047342018224298,0.0025961752980947
1772902327315883000,0.118883056640625,0.0521128177642822,-0.0020694732666015,0.0740546733140945,-0.0035124723799526,-0.0038179049734026,0.0178677942603826
1772902327334869800,0.137869873046875,-0.0004727840423583,-0.0129384994506835,0.0373437255620956,-0.0126754445955157,-0.0074830935336649,0.0282524954527616
1772902327353856800,0.156856689453125,-0.1178667545318603,-0.049473762512207,0.0013339221477508,-0.0145080387592315,-0.0056504993699491,0.0203112531453371
1772902327372843500,0.175843505859375,-0.12319016456604,-0.0223903656005859,-0.0226396024227142,-0.0090102553367614,-0.0050396346487104,-0.0004581485991366
1772902327391830500,0.19483056640625,-0.0823369026184082,0.0276556015014648,-0.0109195411205291,-0.0047342018224298,0.0083993906155228,-0.0120645789429545
1772902327410817300,0.2138173828125,0.0114338397979736,0.0431423187255859,-0.0023986995220184,-0.0022907429374754,0.0132863093167543,-0.0071776611730456
1772902327429804300,0.23280419921875,0.0825321674346923,0.0419292449951171,-0.0086434781551361,0.0019853105768561,0.0016798780998215,0.0074830935336649
1772902327448791300,0.251791259765625,-0.0024213790893554,-0.0200004577636718,0.0724979788064956,-0.0041233371011912,0.0022907429374754,0.0142026059329509
1772902327467778000,0.270778076171875,-0.0954079627990722,-0.0316286087036132,0.1420263797044754,-0.0206166859716177,0.0132863093167543,0.0068722288124263
1772902327486765000,0.28976513671875,-0.0508327484130859,0.0050611495971679,0.0013336837291717,-0.0151189034804701,0.027336198836565,-0.0047342018224298
1772902327505751800,0.308751708984375,-0.0080573558807373,0.0091114044189453,-0.0362945795059204,-0.0022907429374754,0.0303905233740806,-0.0053450670093297
1772902327524738800,0.32773876953125,-0.0020732879638671,-0.0140914916992187,0.0180188715457916,-0.0004581485991366,0.0224492810666561,-0.0022907429374754
1772902327543725800,0.346725830078125,-0.0068686008453369,0.0028228759765625,0.0632833242416381,-0.009621120058,0.006566796451807,-0.0022907429374754
1772902327562712600,0.365712646484375,-0.0356888771057128,0.0074491500854492,0.0509015619754791,-0.0181732270866632,0.0126754445955157,-0.0010690133785828
1772902327581699300,0.38469921875,-0.0013725757598876,-0.0012454986572265,-0.0035731196403503,-0.0181732270866632,0.0071776611730456,-0.002901607658714
1772902327600686300,0.403686279296875,0.0118310451507568,0.0381679534912109,-0.0244048535823822,-0.0090102553367614,-0.0007635809597559,-0.002901607658714
1772902327619673000,0.422673095703125,0.0477123260498046,0.0798397064208984,-0.0018534064292907,-0.0047342018224298,-0.0105374176055192,0.0013744457392022
1772902327638660000,0.44166015625,0.0417180061340332,0.0504732131958007,0.0186939686536788,-0.006566796451807,-0.0142026059329509,0.009315688163042
1772902327657647000,0.460647216796875,0.0165343284606933,0.0057897567749023,0.0295873135328292,-0.0077885258942842,-0.0080939587205648,0.0148134706541895
1772902327676633900,0.4796337890625,-0.0462512969970703,-0.0390958786010742,0.0717856585979461,-0.009621120058,0.009621120058,0.0117591470479965
1772902327695620900,0.498620849609375,-0.0547347068786621,-0.0326080322265625,0.0551261603832244,-0.006566796451807,0.0187840927392244,0.0032070400193333
1772902327714607600,0.517607666015625,-0.0431826114654541,-0.0107107162475585,0.0104270279407501,-0.0016798780998215,0.0193949565291404,-0.0010690133785828
1772902327733594600,0.5365947265625,0.0284435749053955,0.0062789916992187,0.0083276331424713,0.0007635809597559,-0.0044287694618105,0.0007635809597559
1772902327752581600,0.55558154296875,0.0654609203338623,0.0335330963134765,-0.0283561944961547,0.0087048234418034,-0.0172569304704666,0.0068722288124263
1772902327771568400,0.574568359375,-0.0183258056640625,0.017648696899414,0.106460690498352,-0.0004581485991366,-0.009315688163042,0.0123700117692351
1772902327790555400,0.593555419921875,-0.0160558223724365,0.0094928741455078,0.0634210705757141,-0.0047342018224298,-0.0007635809597559,0.0099265528842806
1772902327809542100,0.612542236328125,-0.0046658515930175,-0.0008888244628906,0.027025818824768,0.0007635809597559,0.0132863093167543,0.0080939587205648
1772902327828529200,0.631529052734375,-0.0220756530761718,-0.0335865020751953,0.0247259438037872,0.0001527161948615,0.0248927399516105,0.0044287694618105
1772902327847516000,0.650515869140625,0.0188546180725097,0.0163679122924804,0.0089330375194549,-0.002901607658714,0.0083993906155228,0.0025961752980947
1772902327866503000,0.6695029296875,0.0333034992218017,-0.0058851242065429,-0.0166555345058441,-0.002901607658714,-0.0038179049734026,0.0087048234418034
1772902327885489700,0.68848974609375,0.015329360961914,-0.0132608413696289,-0.0021569430828094,-0.0047342018224298,-0.0190895237028598,0.0123700117692351
1772902327904476700,0.7074765625,-0.0091140270233154,0.0055084228515625,-0.0406742095947265,-0.0016798780998215,-0.0343611426651477,0.009315688163042
1772902327923463400,0.72646337890625,-0.0120291709899902,-0.00701904296875,-0.0092475116252899,0.0013744457392022,-0.0386371985077858,0.0087048234418034
1772902327942450400,0.745450439453125,0.0008766651153564,0.0025033950805664,0.0142312347888946,0.0019853105768561,-0.0319176837801933,0.0074830935336649
1772902327961437400,0.7644375,-0.0094921588897705,0.006805419921875,0.0126563906669616,-0.0022907429374754,-0.0264199022203683,0.0080939587205648
1772902327980424200,0.783424072265625,0.0181846618652343,0.0336923599243164,-0.0380985736846923,-0.0047342018224298,-0.0306959543377161,0.0129808764904737
1772902327999411200,0.8024111328125,0.0136387348175048,-0.0010595321655273,-0.0211988091468811,-0.0035124723799526,-0.0313068181276321,0.0221438482403755
1772902328018398000,0.82139794921875,-0.0158336162567138,-0.0401487350463867,-0.0229960083961486,-0.002901607658714,-0.0123700117692351,0.0270307660102844
1772902328037385000,0.840385009765625,-0.0741503238677978,-0.000284194946289,-0.0335061252117157,-0.0059559317305684,-0.0056504993699491,0.0203112531453371
1772902328056372000,0.8593720703125,-0.0914170742034912,0.0037136077880859,-0.0961011052131652,0.0074830935336649,-0.0087048234418034,0.0032070400193333
1772902328075358700,0.878358642578125,-0.0503396987915039,-0.0285110473632812,-0.0302221775054931,0.0129808764904737,-0.0203112531453371,-0.0108428495004773
1772902328094345500,0.897345458984375,-0.018228530883789,-0.0598506927490234,0.0835623443126678,0.0007635809597559,-0.0068722288124263,-0.0090102553367614
1772902328113332500,0.91633251953125,-0.0351612567901611,-0.0504837036132812,0.0790636241436004,-0.0126754445955157,0.0236710105091333,-0.0059559317305684
1772902328132319200,0.9353193359375,-0.0047123432159423,0.0432214736938476,-0.027404248714447,-0.0071776611730456,0.0310013871639966,-0.009621120058
1772902328151306200,0.95430615234375,0.0151929855346679,0.0796518325805664,-0.08158540725708,0.0056504993699491,0.016951497644186,-0.0077885258942842
1772902328170293200,0.973293212890625,0.0229325294494628,0.0374326705932617,-0.0286344289779663,0.0111482823267579,-0.0001527161948615,-0.0035124723799526
1772902328189280000,0.992280029296875,0.0040831565856933,-0.0200223922729492,0.0880689620971679,-0.0010690133785828,0.0004581485991366,0.0044287694618105
1772902328208267000,1.01126708984375,-0.0675141811370849,-0.0429677963256835,0.0782558619976043,-0.0132863093167543,0.0138971740379929,0.0038179049734026
1772902328227253800,1.030253662109375,-0.0470094680786132,-0.0269985198974609,-0.0239732563495636,-0.0077885258942842,0.0212275516241788,-0.0059559317305684
1772902328246240800,1.04924072265625,0.0018084049224853,-7.0571899414e-05,-0.0450166463851928,0.0007635809597559,0.0212275516241788,-0.0126754445955157
1772902328265227800,1.068227783203125,0.0515129566192626,0.0260028839111328,0.016080617904663,0.0007635809597559,0.0248927399516105,-0.0083993906155228
1772902328284214500,1.087214599609375,0.096339464187622,0.0670948028564453,-0.0067850947380065,0.0013744457392022,0.0114537142217159,0.0025961752980947
1772902328303201500,1.106201416015625,0.0432794094085693,0.0429887771606445,0.0023675560951232,0.0056504993699491,0.006566796451807,0.0111482823267579
1772902328322188300,1.125188232421875,-0.0067396163940429,-0.0151872634887695,0.0658686757087707,0.0001527161948615,0.0157297682017087,0.0154243353754282
1772902328341175300,1.14417529296875,-0.0698332786560058,-0.0430946350097656,0.0889278650283813,-0.0047342018224298,0.0291687939316034,0.0099265528842806
1772902328360162000,1.163162109375,-0.0529491901397705,-0.0699415206909179,0.0062536001205444,0.0013744457392022,0.0261144693940877,-0.002901607658714
1772902328379148800,1.182148681640625,-0.0114259719848632,-0.0320243835449218,-0.0063554346561431,0.0105374176055192,0.0059559317305684,-0.0151189034804701
1772902328398135800,1.2011357421875,0.0519187450408935,0.0235242843627929,0.0363592505455017,0.0105374176055192,-0.0074830935336649,-0.0120645789429545
1772902328417122800,1.220122802734375,0.0868496894836425,0.0443267822265625,0.0946214795112609,-0.0004581485991366,-0.0111482823267579,-0.0004581485991366
1772902328436109600,1.239109619140625,0.0500435829162597,-0.0048122406005859,0.0783671289682388,-0.0077885258942842,0.0022907429374754,0.009315688163042
1772902328455096600,1.2580966796875,0.0222744941711425,0.0132951736450195,0.0593834221363067,-0.0083993906155228,0.0114537142217159,0.0105374176055192
1772902328474083300,1.277083251953125,-0.0215430259704589,-0.0221786499023437,-0.0040242671966552,-0.0035124723799526,0.0157297682017087,0.0038179049734026
1772902328493070300,1.2960703125,-0.023369550704956,-0.0096349716186523,0.0014512836933135,-0.0022907429374754,0.0059559317305684,-0.0047342018224298
1772902328512057300,1.315057373046875,0.0206391811370849,-0.0090484619140625,-0.0455461144447326,0.0001527161948615,-0.0087048234418034,-0.0059559317305684
1772902328531044000,1.334044189453125,0.0564000606536865,-0.0530242919921875,-0.0364662110805511,0.0038179049734026,-0.019700389355421,-0.0047342018224298
1772902328550031000,1.353031005859375,0.009486436843872,-0.0394620895385742,-0.0025488138198852,0.0038179049734026,-0.0233655776828527,-0.0047342018224298
1772902328569017900,1.372017822265625,-0.0079402923583984,-0.026559829711914,-0.0166067779064178,0.0062613640911877,-0.0190895237028598,-0.0090102553367614
1772902328588004900,1.3910048828125,-0.0068860054016113,-0.0250377655029296,0.0361624956130981,0.0001527161948615,-0.0209221187978982,-0.0102319847792387
1772902328606991600,1.40999169921875,-0.001755952835083,0.0159111022949218,-0.0152229070663452,0.0025961752980947,-0.0178677942603826,-0.0108428495004773
1772902328625978600,1.428978515625,0.0055522918701171,0.0485057830810546,0.0002314448356628,0.0007635809597559,-0.0190895237028598,-0.0083993906155228
1772902328644965400,1.44796533203125,0.0189449787139892,0.0353527069091796,0.0016331225633621,-0.0035124723799526,-0.0172569304704666,-0.0022907429374754
1772902328663952400,1.466952392578125,0.0043294429779052,-0.0034151077270507,0.0135207921266555,-0.0035124723799526,-0.0007635809597559,0.0038179049734026
1772902328682939100,1.485939208984375,-0.0229718685150146,-0.0382890701293945,-0.0082084834575653,-0.0071776611730456,0.0114537142217159,0.0044287694618105
1772902328701926100,1.504926025390625,-0.0319526195526123,0.0236577987670898,-0.1125696003437042,0.0019853105768561,-0.0019853105768561,-0.002901607658714
1772902328720913000,1.523912841796875,0.0025019645690917,0.0069036483764648,-0.0854934751987457,0.0111482823267579,-0.0239764433354139,-0.0102319847792387
1772902328739900000,1.54289990234375,0.0222103595733642,-0.0025138854980468,0.0525933504104614,0.0019853105768561,-0.0221438482403755,-0.002901607658714
1772902328758887000,1.561886962890625,-0.0012788772583007,-0.0259971618652343,0.0854115784168243,-0.0132863093167543,0.0193949565291404,0.0038179049734026
1772902328777873700,1.580873779296875,-0.0120172500610351,0.002852439880371,-0.0296554565429687,-0.0145080387592315,0.0389426313340663,0.0019853105768561
1772902328796860700,1.599860595703125,-0.0047192573547363,0.0401697158813476,-0.2020163536071777,0.0080939587205648,0.0236710105091333,-0.0010690133785828
1772902328815847400,1.618847412109375,0.0184111595153808,0.0270357131958007,-0.1191615462303161,0.0251981727778911,-0.0074830935336649,0.0007635809597559
1772902328834834400,1.63783447265625,-0.0237164497375488,-0.0321846008300781,0.0600414723157882,0.0135917412117123,-0.0221438482403755,0.0038179049734026
1772902328853821400,1.656821533203125,-0.0692918300628662,-0.0524215698242187,0.1222949624061584,-0.0035124723799526,-0.0117591470479965,0.0019853105768561
1772902328872808200,1.67580810546875,-0.0670948028564453,0.0051736831665039,0.082528680562973,-0.0053450670093297,0.0157297682017087,-0.0016798780998215
1772902328891795000,1.694794921875,0.0208954811096191,0.0336313247680664,0.0279489755630493,0.0007635809597559,0.0328339822590351,-0.0047342018224298
1772902328910782000,1.713781982421875,0.0668189525604248,0.0158090591430664,-0.024994671344757,0.0038179049734026,0.0383317656815052,0.0013744457392022
1772902328929768700,1.732768798828125,0.0543999671936035,0.0052824020385742,-0.0374113023281097,0.0019853105768561,0.0151189034804701,0.009315688163042
1772902328948755700,1.751755615234375,0.0211462974548339,-0.0284442901611328,-0.0391553342342376,0.0050396346487104,-0.0044287694618105,0.0080939587205648
1772902328967742500,1.770742431640625,-0.0538949966430664,-0.0488395690917968,0.0353956520557403,0.0044287694618105,-0.0074830935336649,-0.0010690133785828
1772902328986729500,1.7897294921875,-0.0436198711395263,-0.0143051147460937,0.0927258729934692,-0.0041233371011912,0.0010690133785828,-0.0071776611730456
1772902329005716500,1.808716552734375,-0.0245254039764404,-0.0111274719238281,0.0776659250259399,-0.006566796451807,0.0248927399516105,-0.0053450670093297
1772902329024703200,1.827703125,0.0317871570587158,0.0010414123535156,0.0334140360355377,-0.0041233371011912,0.0291687939316034,-0.0010690133785828
1772902329043690200,1.846690185546875,0.0165705680847167,0.0430974960327148,-0.0317216217517852,-0.0010690133785828,0.0126754445955157,-0.0016798780998215
1772902329062677000,1.865677001953125,-0.0146737098693847,0.0301103591918945,0.0723082423210144,-0.0004581485991366,-0.0001527161948615,-0.0041233371011912
1772902329081664000,1.8846640625,0.0135605335235595,0.0080165863037109,0.1033908128738403,-0.006566796451807,-0.0032070400193333,-0.0016798780998215
1772902329100650800,1.903650634765625,0.0064060688018798,0.005350112915039,0.0637524425983429,-0.0059559317305684,0.0016798780998215,0.0013744457392022
1772902329119637800,1.9226376953125,0.0111174583435058,-0.0152902603149414,0.0303142666816711,-0.0071776611730456,-0.0038179049734026,-0.0004581485991366
1772902329138624800,1.941624755859375,0.0056028366088867,-0.0237579345703125,0.0064295232295989,-0.0071776611730456,-0.0105374176055192,-0.0035124723799526
1772902329157611500,1.960611572265625,-0.0277070999145507,-0.0180521011352539,-0.0021156370639801,-0.0083993906155228,-0.0099265528842806,-0.002901607658714
1772902329176598500,1.9795986328125,-0.0118474960327148,-0.0238609313964843,-0.0651646256446838,-0.0035124723799526,-0.0233655776828527,-0.0090102553367614
1772902329195585300,1.998585205078125,-0.0023460388183593,0.0315408706665039,-0.0770832300186157,0.0074830935336649,-0.0337502807378768,-0.0157297682017087
1772902329214572000,2.017572021484375,-0.0145044326782226,0.0033426284790039,-0.0173145234584808,0.0074830935336649,-0.0270307660102844,-0.0102319847792387
1772902329233559000,2.03655908203125,-0.0079970359802246,0.0291309356689453,-0.0098884850740432,0.0044287694618105,-0.0264199022203683,-0.002901607658714
1772902329252546000,2.055546142578125,-0.0247366428375244,0.049081802368164,-0.0072860121726989,0.0062613640911877,-0.0306959543377161,-0.0022907429374754
1772902329271532800,2.07453271484375,-0.036635398864746,-0.0013809204101562,0.0179676711559295,0.0038179049734026,-0.0282524954527616,-0.0041233371011912
1772902329290519800,2.093519775390625,-0.0200488567352294,-0.0193977355957031,0.0746441185474395,-0.002901607658714,-0.0227547138929367,-0.0071776611730456
1772902329309506600,2.112506591796875,-0.0090734958648681,-0.0161981582641601,0.0423891097307205,-0.0083993906155228,-0.019700389355421,-0.0083993906155228
1772902329328493600,2.13149365234375,-0.0033831596374511,-0.0242891311645507,-0.0108241289854049,-0.0090102553367614,0.006566796451807,-0.0071776611730456
1772902329347480300,2.150480224609375,0.0068678855895996,-0.0181570053100585,-0.0909558683633804,-0.0059559317305684,0.0083993906155228,-0.0077885258942842
1772902329366467300,2.16946728515625,0.0165731906890869,0.0107231140136718,-0.1514123231172561,0.009315688163042,-0.0038179049734026,-0.0102319847792387
1772902329385454300,2.188454345703125,0.0349957942962646,-0.0007810592651367,-0.0822222083806991,0.0135917412117123,-0.0288633611053228,-0.0120645789429545
1772902329404441000,2.207441162109375,0.0040647983551025,-0.0052576065063476,0.0270529091358184,0.0032070400193333,-0.0215329825878143,-0.0059559317305684
1772902329423428000,2.226427978515625,0.0083792209625244,-0.0233039855957031,0.0550685226917266,-0.009621120058,0.0077885258942842,-0.0016798780998215
1772902329442414800,2.245414794921875,0.0144855976104736,0.0153408050537109,-0.1253140121698379,0.0038179049734026,0.0157297682017087,-0.0059559317305684
1772902329461401900,2.26440185546875,0.0215444564819335,-0.0058574676513671,-0.1731424331665039,0.0276416316628456,0.0004581485991366,-0.0114537142217159
1772902329480388600,2.283388671875,0.022860050201416,-0.0073623657226562,-0.0195300579071044,0.0288633611053228,-0.0258090365678071,-0.0132863093167543
1772902329499375600,2.302375732421875,-0.0172617435455322,-0.0368204116821289,0.1052893996238708,0.0068722288124263,-0.0282524954527616,-0.0102319847792387
1772902329518362400,2.3213623046875,-0.0555105209350585,-0.0186834335327148,0.1210119128227233,-0.0132863093167543,-0.0074830935336649,-0.009621120058
1772902329537349400,2.340349365234375,0.0052456855773925,0.0342903137207031,0.0142745524644851,-0.009621120058,0.0138971740379929,-0.0132863093167543
1772902329556336000,2.359336181640625,0.0848951339721679,0.0293807983398437,-0.0825871527194976,0.0013744457392022,0.0212275516241788,-0.009621120058
1772902329575323100,2.3783232421875,0.0742702484130859,0.0238924026489257,-0.081744447350502,0.0068722288124263,0.0163406319916248,-0.0035124723799526
1772902329594310000,2.397309814453125,0.0455927848815918,-0.0165376663208007,-0.0682413280010223,0.0062613640911877,-0.0038179049734026,-0.0035124723799526
1772902329613297000,2.416296875,-0.0132527351379394,-0.0134696960449218,-0.0184804052114486,0.0038179049734026,-0.0154243353754282,-0.0077885258942842
1772902329632283600,2.43528369140625,-0.0263864994049072,-0.0615425109863281,0.0350113809108734,0.0025961752980947,-0.0007635809597559,-0.0120645789429545
1772902329651270700,2.454270751953125,0.0003747940063476,-0.0264797210693359,0.0714218020439148,0.0019853105768561,0.0200058221817016,-0.0114537142217159
1772902329670257400,2.47325732421875,0.0103805065155029,0.0122718811035156,0.0068091452121734,0.0044287694618105,0.0187840927392244,-0.0083993906155228
1772902329689244400,2.492244384765625,0.0202548503875732,0.0171136856079101,-0.0315825790166854,0.0080939587205648,-0.0019853105768561,-0.0083993906155228
1772902329708231400,2.5112314453125,0.0158658027648925,0.0355386734008789,0.0330528169870376,0.0074830935336649,-0.0111482823267579,-0.0071776611730456
1772902329727218200,2.53021826171875,-0.0116713047027587,0.0234479904174804,0.0615532100200653,-0.0004581485991366,-0.0025961752980947,-0.0077885258942842
1772902329746205200,2.549205078125,-0.0266253948211669,-0.0279569625854492,0.0721694529056549,-0.0053450670093297,0.0151189034804701,-0.0102319847792387
1772902329765192000,2.56819189453125,-0.0046181678771972,-0.030609130859375,0.0128825157880783,-0.0016798780998215,0.0175623632967472,-0.0132863093167543
1772902329784179000,2.587178955078125,0.0255920886993408,-0.0075616836547851,-0.0291644185781478,0.0032070400193333,0.0047342018224298,-0.0138971740379929
1772902329803165700,2.606165771484375,0.0249333381652832,0.0421161651611328,0.0013433992862701,0.0025961752980947,-0.0032070400193333,-0.009621120058
1772902329822152400,2.62515234375,0.0532140731811523,0.0810756683349609,0.0145540237426757,0.0001527161948615,-0.0105374176055192,-0.0041233371011912
1772902329841139500,2.644139404296875,0.0653247833251953,0.0477752685546875,0.0034627765417099,0.0013744457392022,-0.0123700117692351,0.0013744457392022
1772902329860126500,2.66312646484375,0.0247883796691894,0.0175352096557617,0.0802735984325409,-0.002901607658714,0.0022907429374754,0.0111482823267579
1772902329879113200,2.68211328125,0.0104627609252929,0.0133647918701171,0.0957909077405929,-0.006566796451807,0.0175623632967472,0.0184786599129438
1772902329898100200,2.701100341796875,-0.0502936840057373,-0.0253992080688476,0.0295954793691635,-0.006566796451807,0.0145080387592315,0.0123700117692351
1772902329917087000,2.7200869140625,-0.0596089363098144,-0.0226192474365234,-0.0146801173686981,-0.0047342018224298,-0.0050396346487104,0.0019853105768561
1772902329936074000,2.739073974609375,0.0199172496795654,-0.0296230316162109,0.0043452978134155,-0.0053450670093297,-0.0184786599129438,0.0050396346487104
1772902329955060700,2.758060791015625,0.030322790145874,-0.0225105285644531,0.0158305317163467,-0.0059559317305684,-0.0117591470479965,0.0154243353754282
1772902329974047700,2.7770478515625,0.0059649944305419,-0.0133180618286132,0.0065932124853134,-0.0047342018224298,-0.0056504993699491,0.0166460648179054
1772902329993034800,2.79603466796875,-0.0385661125183105,-0.0296688079833984,0.0144813954830169,-0.0071776611730456,-0.0007635809597559,0.0099265528842806
1772902330012021500,2.815021484375,0.0054657459259033,0.0201835632324218,-0.0684390068054199,-0.0004581485991366,-0.0203112531453371,0.0019853105768561
1772902330031008500,2.834008544921875,0.0708472728729248,0.0450563430786132,-0.0687106847763061,0.0080939587205648,-0.0313068181276321,0.0025961752980947
1772902330049995300,2.852995361328125,0.0443384647369384,0.0431575775146484,0.083215519785881,0.0007635809597559,-0.0172569304704666,0.0148134706541895
1772902330068982300,2.871982177734375,-0.0424823760986328,-0.0133171081542968,0.1107772290706634,-0.016951497644186,0.0206166859716177,0.0203112531453371
1772902330087969000,2.890968994140625,-0.0591490268707275,-0.0577611923217773,-0.0044979453086853,-0.0163406319916248,0.0432186834514141,0.0099265528842806
1772902330106956000,2.9099560546875,0.0135350227355957,0.0137901306152343,-0.1965432167053222,0.0111482823267579,0.0248927399516105,0.0025961752980947
1772902330125942800,2.92894287109375,0.0746300220489502,0.045379638671875,-0.1644161641597747,0.0331394150853157,-0.0154243353754282,0.0099265528842806
1772902330144929500,2.947929443359375,0.0066561698913574,-0.0270671844482421,0.0347311198711395,0.0203112531453371,-0.0478001683950424,0.0160352010279893
1772902330163916500,2.96691650390625,-0.0842924118041992,-0.0500755310058593,0.1546649485826492,-0.0114537142217159,-0.050854492932558,0.0129808764904737
1772902330182903600,2.985903564453125,-0.054248571395874,-0.028299331665039,0.0641693174839019,-0.0218384154140949,-0.0294742248952388,0.0074830935336649
1772902330201890300,3.004890380859375,0.0327165126800537,0.0188980102539062,-0.0722253918647766,-0.0083993906155228,-0.0062613640911877,0.0068722288124263
1772902330220877300,3.023877197265625,0.0847899913787841,0.0220985412597656,-0.0671636760234832,0.0062613640911877,0.0138971740379929,0.0117591470479965
1772902330239864000,3.042864013671875,0.0688843727111816,0.032083511352539,-0.0254935026168823,0.0019853105768561,0.0102319847792387,0.019700389355421
1772902330258851000,3.06185107421875,-0.0114345550537109,0.0361709594726562,-0.023731380701065,-0.0035124723799526,0.0010690133785828,0.0233655776828527
1772902330277837800,3.080837890625,-0.0572376251220703,-0.0547389984130859,-0.0029086917638778,-0.006566796451807,-0.0025961752980947,0.0148134706541895
1772902330296824800,3.099824951171875,-0.0495166778564453,-0.0837860107421875,0.0024881660938262,-0.0047342018224298,-0.0001527161948615,0.0050396346487104
1772902330315811600,3.1188115234375,-0.0078837871551513,-0.0228385925292968,-0.0488747656345367,0.0025961752980947,0.0071776611730456,0.0013744457392022
1772902330334798600,3.137798583984375,-0.0122771263122558,-0.0102996826171875,-0.0062469393014907,0.0050396346487104,0.0010690133785828,0.0013744457392022
1772902330353785600,3.15678564453125,-0.030703067779541,-0.0121183395385742,-0.0165363848209381,0.0044287694618105,-0.009315688163042,-0.0041233371011912
1772902330372772400,3.1757724609375,-0.0189442634582519,0.000340461730957,0.0483915358781814,-0.002901607658714,-0.0154243353754282,-0.0053450670093297
1772902330391759400,3.19475927734375,8.4638595581e-05,0.007181167602539,0.070860356092453,-0.0053450670093297,0.0035124723799526,0.0013744457392022
1772902330410746000,3.21374609375,0.0199847221374511,0.0018091201782226,0.0375830382108688,-0.006566796451807,0.0151189034804701,0.0074830935336649
1772902330429732900,3.23273291015625,-0.0146405696868896,0.029214859008789,0.0220950692892074,-0.0041233371011912,0.0218384154140949,0.0056504993699491
1772902330448720000,3.251719970703125,0.0028746128082275,0.0025873184204101,0.0179977715015411,-0.0041233371011912,0.0126754445955157,0.0007635809597559
1772902330467706600,3.27070654296875,0.0148439407348632,-0.004317283630371,-0.0190593600273132,-0.0035124723799526,0.006566796451807,0.0001527161948615
1772902330486693600,3.289693603515625,0.0195348262786865,-0.0463247299194335,0.0032766163349151,-0.0035124723799526,0.0035124723799526,0.0038179049734026
1772902330505680400,3.308680419921875,0.0052213668823242,-0.0238637924194335,0.0056016147136688,0.0001527161948615,0.0004581485991366,0.0007635809597559
1772902330524667400,3.32766748046875,-0.0539309978485107,0.0004768371582031,0.0286018103361129,0.0001527161948615,-0.0001527161948615,-0.0053450670093297
1772902330543654400,3.346654296875,-0.0041697025299072,0.0121536254882812,0.0013730227947235,0.0032070400193333,-0.0013744457392022,-0.0053450670093297
1772902330562641200,3.36564111328125,0.0448830127716064,0.0236921310424804,0.016379952430725,0.0074830935336649,-0.0001527161948615,0.0013744457392022
1772902330581628200,3.384628173828125,0.0120778083801269,0.0477075576782226,0.0425547361373901,0.0062613640911877,0.0047342018224298,0.0105374176055192
1772902330600615000,3.403614990234375,-0.0566174983978271,0.0315618515014648,0.0606989860534668,0.0001527161948615,0.0187840927392244,0.0099265528842806
1772902330619602000,3.422601806640625,-0.0652246475219726,0.0232219696044921,0.0372688621282577,-0.0035124723799526,0.0218384154140949,0.0025961752980947
1772902330638588700,3.441588623046875,-0.0187046527862548,-0.0196304321289062,-0.0089360326528549,-0.0016798780998215,0.0193949565291404,-0.0010690133785828
1772902330657575700,3.46057568359375,0.0127511024475097,-0.0213193893432617,-0.0898296684026718,0.0025961752980947,0.016951497644186,0.0032070400193333
1772902330676562400,3.4795625,0.0317714214324951,-0.0352411270141601,-0.1496514976024627,0.009315688163042,-0.0184786599129438,0.0068722288124263
1772902330695549400,3.498549560546875,0.0239539146423339,-0.0345277786254882,-0.1152726113796234,0.019700389355421,-0.0618500597774982,0.0013744457392022
1772902330714536400,3.517536376953125,-0.0008301734924316,-0.0590009689331054,-0.0030215978622436,0.0178677942603826,-0.086284652352333,-0.0041233371011912
1772902330733523200,3.536523193359375,-0.0649759769439697,-0.0353765487670898,0.1624245196580886,-0.0016798780998215,-0.0661261156201362,-0.0083993906155228
1772902330752510000,3.555510009765625,-0.0530188083648681,-0.0402050018310546,0.1194977462291717,-0.0138971740379929,-0.0294742248952388,-0.0132863093167543
1772902330771497000,3.5744970703125,0.0181450843811035,0.027435302734375,-0.0518551766872406,-0.0022907429374754,-0.0074830935336649,-0.0138971740379929
1772902330790483700,3.593483642578125,0.0368499755859375,0.0572786331176757,-0.0979173332452774,0.0099265528842806,-0.0062613640911877,-0.0059559317305684
1772902330809470700,3.612470703125,-0.0068416595458984,0.0206260681152343,-0.0477049797773361,0.0062613640911877,-0.0178677942603826,-0.0004581485991366
1772902330828457500,3.63145751953125,-0.0624778270721435,-0.022475242614746,-0.0266312509775161,-0.0041233371011912,-0.0209221187978982,0.0025961752980947
1772902330847444500,3.650444580078125,-0.0696732997894287,0.0016145706176757,-0.0373927056789398,-0.0083993906155228,-0.0142026059329509,0.0007635809597559
1772902330866431500,3.669431396484375,-0.0773475170135498,0.0187311172485351,-0.0917427986860275,0.0007635809597559,-0.0013744457392022,-0.006566796451807
1772902330885418200,3.688418212890625,-0.0301883220672607,0.0141687393188476,-0.087397813796997,0.0117591470479965,0.0041233371011912,-0.0132863093167543
1772902330904405200,3.7074052734375,0.0413048267364501,0.0376052856445312,0.002803236246109,0.0099265528842806,0.0041233371011912,-0.0102319847792387
1772902330923392000,3.72639208984375,0.0328607559204101,0.0549030303955078,-0.0137895047664642,0.0019853105768561,0.0114537142217159,0.0025961752980947
1772902330942379000,3.74537890625,-0.0207650661468505,-0.0339994430541992,-0.0291786789894104,0.0044287694618105,0.0175623632967472,0.0038179049734026
1772902330961365800,3.76436572265625,-0.0507569313049316,-0.0561037063598632,-0.002902403473854,0.009315688163042,0.0157297682017087,-0.0071776611730456
1772902330980352800,3.783352783203125,-0.0134615898132324,-2.00271606445e-05,0.0150902718305587,0.0080939587205648,0.0090102553367614,-0.0114537142217159
1772902330999339500,3.802339599609375,-0.0191738605499267,-0.0020771026611328,0.0350911021232605,0.0019853105768561,0.0004581485991366,-0.0071776611730456
1772902331018326500,3.821326416015625,-0.0053951740264892,0.0097999572753906,0.041152998805046,-0.0022907429374754,-0.0074830935336649,-0.0047342018224298
1772902331037313300,3.840313232421875,-0.0318813323974609,0.0190467834472656,0.0380148738622665,-0.0053450670093297,-0.009315688163042,-0.0041233371011912
1772902331056300300,3.85930029296875,-0.0282027721405029,0.0183830261230468,0.0377388447523117,-0.006566796451807,-0.0019853105768561,-0.0010690133785828
1772902331075287000,3.878287109375,-0.0250513553619384,0.0387439727783203,0.011746808886528,-0.0035124723799526,0.0071776611730456,0.0001527161948615
1772902331094274000,3.897274169921875,-0.023923635482788,0.0118331909179687,-0.0059816837310791,-0.002901607658714,0.0090102553367614,0.0019853105768561
1772902331113260800,3.9162607421875,-0.0158498287200927,-0.007080078125,-0.0356665402650833,-0.0004581485991366,0.0022907429374754,0.0007635809597559
1772902331132247800,3.935247802734375,-0.0224683284759521,0.0307569503784179,-0.0227776914834976,0.0007635809597559,-0.0013744457392022,-0.0022907429374754
1772902331151234600,3.954234619140625,-0.0059447288513183,0.0066146850585937,-0.0151838064193725,0.0013744457392022,-0.0019853105768561,-0.0016798780998215
1772902331170221600,3.9732216796875,0.0525908470153808,0.0106277465820312,0.0010484009981155,0.0032070400193333,0.0035124723799526,0.0044287694618105
1772902331189208300,3.992208251953125,-0.0085039138793945,-0.0136308670043945,0.0216225385665893,0.0038179049734026,0.0151189034804701,0.0087048234418034
1772902331208195300,4.0111953125,-0.0396399497985839,-0.0018262863159179,0.0352787673473358,0.0025961752980947,0.0187840927392244,0.0038179049734026
1772902331227182300,4.030182373046875,-0.0096797943115234,0.002577781677246,0.034742385149002,0.0025961752980947,0.0157297682017087,0.0007635809597559
1772902331246169000,4.049169189453125,-0.0279881954193115,-0.0257062911987304,0.017801821231842,0.0038179049734026,0.0181732270866632,0.0001527161948615
1772902331265156000,4.068156005859375,-0.0131976604461669,-0.029677391052246,0.0503369122743606,0.0013744457392022,0.0126754445955157,0.0001527161948615
1772902331284142800,4.087142822265625,-0.0148901939392089,0.0065155029296875,0.0240764170885086,-0.0016798780998215,0.0114537142217159,0.0007635809597559
1772902331303129900,4.1061298828125,-0.0163197517395019,-0.0124645233154296,0.012987270951271,-0.002901607658714,0.0138971740379929,0.0013744457392022
1772902331322116600,4.12511669921875,-0.0015010833740234,-0.0027198791503906,-0.0404319018125534,0.0001527161948615,0.0022907429374754,-0.0010690133785828
1772902331341103600,4.144103515625,0.016564130783081,0.0462360382080078,-0.042872816324234,0.0080939587205648,-0.0154243353754282,-0.0035124723799526
1772902331360090400,4.16309033203125,0.053276777267456,0.0144071578979492,0.0114437341690063,0.0056504993699491,-0.0313068181276321,0.0038179049734026
1772902331379077400,4.182077392578125,-0.0312952995300293,-0.0445899963378906,0.0891123265027999,-0.0041233371011912,-0.0154243353754282,0.0074830935336649
1772902331398064000,4.201064208984375,-0.0783543586730957,-0.0590553283691406,0.0667483508586883,-0.0090102553367614,0.0102319847792387,-0.0016798780998215
1772902331417051100,4.220051025390625,-0.0377357006072998,0.0157985687255859,-0.0840719640254974,0.0032070400193333,0.0108428495004773,-0.0126754445955157
1772902331436038000,4.239037841796875,0.0360529422760009,0.0717582702636718,-0.1062754392623901,0.0135917412117123,-0.0019853105768561,-0.0077885258942842
1772902331455025000,4.25802490234375,0.0347354412078857,0.0296659469604492,-6.71446323394e-05,0.0062613640911877,-0.0154243353754282,0.0038179049734026
1772902331474011600,4.27701171875,-0.0119009017944335,-0.004312515258789,0.0363532602787017,-0.002901607658714,-0.0203112531453371,0.0068722288124263
1772902331492998700,4.29599853515625,-0.0786898136138916,-0.0438995361328125,0.0026541948318481,-0.0071776611730456,-0.0111482823267579,0.0001527161948615
1772902331511985400,4.3149853515625,-0.0679206848144531,-0.0440855026245117,-0.0249930918216705,-0.0053450670093297,-0.0032070400193333,-0.009621120058
1772902331530972400,4.333972412109375,0.0041718482971191,0.0026521682739257,-0.0759881734848022,0.0050396346487104,-0.0013744457392022,-0.0145080387592315
1772902331549959400,4.35295947265625,0.0624003410339355,0.0501117706298828,-0.051453098654747,0.0062613640911877,-0.009315688163042,-0.0120645789429545
1772902331568946200,4.3719462890625,0.0499019622802734,0.0486373901367187,-0.0192116200923919,0.0056504993699491,-0.0245873071253299,-0.0047342018224298
1772902331587933200,4.39093310546875,0.0150625705718994,-0.004408836364746,0.0102533996105194,0.0001527161948615,-0.0258090365678071,-0.0004581485991366
1772902331606920000,4.409919921875,0.0099713802337646,-0.029698371887207,0.0448619574308395,-0.006566796451807,-0.0123700117692351,0.0001527161948615
1772902331625907000,4.428906982421875,-0.0066285133361816,-0.0519571304321289,0.0115631818771362,-0.006566796451807,0.0047342018224298,-0.0022907429374754
1772902331644893700,4.447893798828125,-0.0472815036773681,-0.026503562927246,-0.0109742730855941,0.0019853105768561,0.0083993906155228,-0.0083993906155228
1772902331663880700,4.466880615234375,-0.0159559249877929,-0.00140380859375,-0.0582217723131179,0.0062613640911877,-0.009315688163042,-0.0163406319916248
1772902331682867500,4.485867431640625,0.0446298122406005,0.006500244140625,0.035467118024826,0.0019853105768561,-0.0172569304704666,-0.0132863093167543
1772902331701854500,4.5048544921875,0.0446662902832031,0.0015983581542968,0.0745735019445419,-0.0071776611730456,0.002901607658714,-0.0016798780998215
1772902331720841200,4.52384130859375,0.039039134979248,-0.0126609802246093,0.0159150660037994,-0.0090102553367614,0.0157297682017087,0.0038179049734026
1772902331739828200,4.542828125,0.0120422840118408,0.0089101791381835,-0.0273965746164321,-0.0022907429374754,0.0126754445955157,-0.0004581485991366
1772902331758815000,4.56181494140625,-0.0220415592193603,-0.0213699340820312,-0.0237243771553039,0.0013744457392022,0.0047342018224298,-0.0071776611730456
1772902331777802000,4.580802001953125,-0.0043654441833496,0.001418113708496,0.0096305757761001,-0.0010690133785828,-0.0044287694618105,-0.0126754445955157
1772902331796788700,4.599788818359375,0.0170884132385253,-0.0163908004760742,0.0048248916864395,-0.002901607658714,-0.0068722288124263,-0.0120645789429545
1772902331815775700,4.618775634765625,0.0378577709197998,0.0247373580932617,0.0022506862878799,-0.0016798780998215,-0.0056504993699491,-0.0090102553367614
1772902331834762500,4.637762451171875,0.011348009109497,0.013258934020996,0.0251684486865997,0.0038179049734026,0.0053450670093297,-0.009621120058
1772902331853749500,4.65674951171875,0.0256953239440917,-0.0078754425048828,0.023695483803749,0.0056504993699491,0.0108428495004773,-0.009621120058
1772902331872736500,4.675736572265625,0.0369524955749511,0.0187711715698242,0.0131385177373886,0.0007635809597559,-0.0025961752980947,-0.0108428495004773
1772902331891723300,4.69472314453125,0.0415692329406738,0.016550064086914,-0.0088068693876266,-0.0041233371011912,-0.0184786599129438,-0.0090102553367614
1772902331910710300,4.713710205078125,0.0266849994659423,-0.0206050872802734,-0.0048586428165435,-0.0022907429374754,-0.0294742248952388,-0.0102319847792387
1772902331929697000,4.732697021484375,0.0029325485229492,-0.0313959121704101,-0.0064858794212341,-0.0022907429374754,-0.0319176837801933,-0.0090102553367614
1772902331948684000,4.75168408203125,-0.0339202880859375,-0.0345878601074218,0.0491465926170349,-0.0053450670093297,-0.0190895237028598,-0.0120645789429545
1772902331967670800,4.7706708984375,-0.0052242279052734,0.0257282257080078,0.0053400993347167,-0.0083993906155228,-0.0282524954527616,-0.0145080387592315
1772902331986657800,4.78965771484375,0.0274088382720947,0.0486402511596679,-0.0358389467000961,0.0013744457392022,-0.0313068181276321,-0.0120645789429545
1772902332005644500,4.80864453125,0.0735697746276855,0.0359869003295898,-0.0118061453104019,0.0038179049734026,-0.0368046015501022,-0.0083993906155228
1772902332024631600,4.827631591796875,-0.0001266002655029,-0.0139999389648437,0.066293329000473,-0.002901607658714,-0.0190895237028598,-0.0035124723799526
1772902332043618300,4.846618408203125,-0.0567855834960937,-0.0153760910034179,0.091858796775341,-0.0200058221817016,0.0016798780998215,-0.006566796451807
1772902332062605300,4.865605224609375,-0.0218021869659423,-0.011728286743164,-0.0692090541124343,-0.0114537142217159,0.0090102553367614,-0.0126754445955157
1772902332081592000,4.884592041015625,0.0442211627960205,0.0405654907226562,-0.1470088511705398,0.0129808764904737,-0.0068722288124263,-0.0126754445955157
1772902332100579000,4.9035791015625,0.010542869567871,0.0091495513916015,-0.0666060745716095,0.0190895237028598,-0.0227547138929367,-0.0077885258942842
1772902332119565800,4.92256591796875,-0.0423557758331298,-0.0210084915161132,0.0892298519611358,0.0019853105768561,-0.0178677942603826,-0.0010690133785828
1772902332138552800,4.941552734375,-0.0764341354370117,-0.006143569946289,0.1202055513858795,-0.0108428495004773,0.0071776611730456,-0.0022907429374754
1772902332157539800,4.960539794921875,-0.0658152103424072,-0.0172386169433593,0.016773983836174,-0.0120645789429545,0.027336198836565,-0.009621120058
1772902332176526600,4.979526611328125,0.0014412403106689,-0.0043363571166992,-0.0870260447263717,0.0025961752980947,0.0200058221817016,-0.0145080387592315
1772902332195513600,4.998513671875,0.0713615417480468,0.0079755783081054,-0.0991671979427337,0.0080939587205648,-0.0087048234418034,-0.0102319847792387
1772902332214500400,5.017500244140625,0.0400824546813964,-0.0155000686645507,-0.0423826873302459,0.0056504993699491,-0.0239764433354139,-0.0004581485991366
1772902332233487400,5.0364873046875,-0.0313596725463867,-0.017496109008789,0.0230442285537719,0.0025961752980947,-0.0044287694618105,-0.0010690133785828
1772902332252474000,5.05547412109375,-0.0248003005981445,-0.0100078582763671,0.1048027276992797,-0.0053450670093297,0.0108428495004773,-0.0053450670093297
1772902332271461000,5.074461181640625,0.0312690734863281,0.0136661529541015,0.0718067735433578,-0.0077885258942842,0.0401643589138984,-0.0053450670093297
1772902332290448000,5.09344775390625,0.0270719528198242,0.0249719619750976,-0.0161249637603759,0.0007635809597559,0.0432186834514141,-0.0041233371011912
1772902332309435000,5.112434814453125,0.0160014629364013,0.0124025344848632,-0.0544842779636383,0.0111482823267579,0.0291687939316034,-0.0083993906155228
1772902332328421600,5.131421630859375,0.0108537673950195,0.0054950714111328,-0.025916576385498,0.0129808764904737,0.0108428495004773,-0.0132863093167543
1772902332347408600,5.15040869140625,0.043938398361206,-0.00579833984375,0.0646309852600097,0.0050396346487104,0.002901607658714,-0.0077885258942842
1772902332366395400,5.1693955078125,0.0517528057098388,-0.0151214599609375,0.0693017542362213,-0.0010690133785828,0.0047342018224298,0.0032070400193333
1772902332385382400,5.18838232421875,-0.0005898475646972,-0.033879280090332,0.0302381366491317,0.0001527161948615,0.0083993906155228,0.0032070400193333
1772902332404369200,5.207369140625,-0.0220801830291748,-0.037114143371582,-0.0058909803628921,0.0025961752980947,0.0041233371011912,-0.0083993906155228
1772902332423356200,5.226356201171875,-0.0045108795166015,-0.014540672302246,-0.004154548048973,0.0013744457392022,-0.0105374176055192,-0.0090102553367614
1772902332442343200,5.24534326171875,0.0036151409149169,0.0096302032470703,-0.035837709903717,0.0038179049734026,-0.0227547138929367,-0.0059559317305684
1772902332461330000,5.264329833984375,0.0092568397521972,-0.0299367904663085,-0.0447453111410141,0.009315688163042,-0.0300850905478,-0.0077885258942842
1772902332480317000,5.28331689453125,-0.0025358200073242,-0.0097055435180664,0.0279753059148788,0.0117591470479965,-0.0233655776828527,-0.0126754445955157
1772902332499303700,5.3023037109375,0.012059211730957,0.0264778137207031,0.0548152923583984,0.0056504993699491,-0.0105374176055192,-0.0108428495004773
1772902332518290700,5.321290771484375,0.0502498149871826,0.0329980850219726,0.0257486850023269,0.0044287694618105,-0.0062613640911877,-0.0053450670093297
1772902332537277400,5.34027734375,0.0448591709136962,0.0092935562133789,-0.0001824796199798,0.0068722288124263,-0.0135917412117123,-0.0077885258942842
1772902332556264400,5.359264404296875,-0.0238924026489257,0.0281352996826171,0.021100714802742,0.0068722288124263,-0.0148134706541895,-0.0114537142217159
1772902332575251200,5.378251220703125,-0.0204079151153564,0.0489768981933593,0.0752902552485466,0.0013744457392022,-0.0087048234418034,-0.0102319847792387
1772902332594238200,5.39723828125,-0.0118780136108398,-0.0006980895996093,0.0611681193113327,-0.0035124723799526,-0.0007635809597559,-0.0071776611730456
1772902332613225000,5.416224853515625,-0.0402417182922363,-0.0260734558105468,0.0257103890180587,-0.0090102553367614,0.009621120058,-0.0035124723799526
1772902332632212000,5.4352119140625,-0.0226764678955078,0.0053215026855468,-0.0125292539596557,-0.0102319847792387,0.0138971740379929,0.0007635809597559
1772902332651198700,5.45419873046875,-0.0056381225585937,0.0331554412841796,-0.0975268930196762,0.0001527161948615,-0.0019853105768561,0.0001527161948615
1772902332670185700,5.473185791015625,0.035820722579956,0.0113859176635742,-0.051857367157936,0.0068722288124263,-0.0264199022203683,-0.0035124723799526
1772902332689172500,5.49217236328125,0.0037910938262939,0.0158243179321289,0.0653576254844665,-0.0059559317305684,-0.0178677942603826,-0.0004581485991366
1772902332708159500,5.511159423828125,-0.0358562469482421,-0.0477313995361328,0.0685474127531051,-0.0230601448565721,0.0047342018224298,0.0001527161948615
1772902332727146500,5.530146484375,-0.0190341472625732,-0.0461149215698242,-0.1222153306007385,-0.0077885258942842,0.0090102553367614,-0.0077885258942842
1772902332746133200,5.54913330078125,0.0235595703125,-0.011214256286621,-0.1856636255979538,0.0221438482403755,-0.0099265528842806,-0.0145080387592315
1772902332765120300,5.568120361328125,-0.0153627395629882,-0.0123243331909179,-0.0097526758909225,0.0172569304704666,-0.0355828739702701,-0.0132863093167543
1772902332784107000,5.58710693359375,-0.0358941555023193,-0.0204248428344726,0.1233724206686019,-0.0059559317305684,-0.040469791740179,-0.0145080387592315
1772902332803094000,5.606093994140625,-0.0416207313537597,0.0420742034912109,0.1208691447973251,-0.0261144693940877,-0.0233655776828527,-0.0114537142217159
1772902332822080800,5.625080810546875,0.0179247856140136,0.0753612518310546,0.0403613746166229,-0.0291687939316034,0.0138971740379929,0.0032070400193333
1772902332841067800,5.64406787109375,0.0333991050720214,0.0819787979125976,-0.0529944598674774,-0.0212275516241788,0.0383317656815052,0.0123700117692351
1772902332860054500,5.663054443359375,0.0113615989685058,0.0713825225830078,-0.0830439180135726,-0.0132863093167543,0.0444404110312461,0.0135917412117123
1772902332879041500,5.68204150390625,0.0426075458526611,0.0375909805297851,-0.1069207936525344,-0.0083993906155228,0.0401643589138984,0.0203112531453371
1772902332898028300,5.7010283203125,0.0247440338134765,-0.0277318954467773,-0.0955289155244827,-0.0035124723799526,0.037720900028944,0.0258090365678071
1772902332917015300,5.720015380859375,-0.0354607105255126,-0.0743598937988281,-0.0509384870529174,-0.0004581485991366,0.0248927399516105,0.0184786599129438
1772902332936002000,5.739001953125,-0.0604045391082763,-0.0721712112426757,-0.0273514091968536,0.0032070400193333,0.0187840927392244,0.0050396346487104
1772902332954989000,5.757989013671875,-0.0210144519805908,-0.0207071304321289,0.0321031510829925,0.0019853105768561,0.016951497644186,-0.0016798780998215
1772902332973976000,5.77697607421875,0.0215640068054199,-0.0293636322021484,0.0079373270273208,0.0025961752980947,0.006566796451807,-0.0010690133785828
1772902332992962800,5.795962890625,0.0070583820343017,-0.0286684036254882,0.0169048160314559,0.0038179049734026,-0.0001527161948615,-0.0004581485991366
1772902333011949800,5.81494970703125,-0.0052993297576904,0.016890525817871,0.0670473128557205,-0.0004581485991366,-0.0056504993699491,-0.0016798780998215
1772902333030936600,5.8339365234375,-0.012261152267456,-0.0045433044433593,0.0709227174520492,-0.006566796451807,0.006566796451807,-0.0010690133785828
1772902333049923600,5.852923583984375,0.0190451145172119,0.0144195556640625,0.0521776229143142,-0.0090102553367614,0.0163406319916248,0.0001527161948615
1772902333068910300,5.871910400390625,0.0074639320373535,0.0208911895751953,-0.0006051659584045,-0.0053450670093297,0.0261144693940877,0.0019853105768561
1772902333087897300,5.8908974609375,0.0170960426330566,0.0088415145874023,0.0207462459802627,-0.0059559317305684,0.0218384154140949,0.0044287694618105
1772902333106884400,5.90988427734375,0.0358996391296386,0.015669822692871,-0.0508680194616317,-0.0010690133785828,0.006566796451807,0.0032070400193333
1772902333125871000,5.92887109375,0.0092298984527587,0.0059003829956054,-0.0405133515596389,0.0044287694618105,-0.0099265528842806,-0.0004581485991366
1772902333144858000,5.947858154296875,0.0184881687164306,0.0078287124633789,0.0132152736186981,0.0032070400193333,-0.0135917412117123,0.0032070400193333
1772902333163844900,5.966844970703125,-0.0161740779876709,-0.0043134689331054,0.0237138718366622,-0.0004581485991366,-0.0068722288124263,0.0056504993699491
1772902333182831600,5.98583154296875,-0.0293798446655273,0.000497817993164,-0.0034032762050628,0.0013744457392022,-0.009315688163042,0.0001527161948615
1772902333201818600,6.004818603515625,-0.0359480381011962,0.0124006271362304,0.0170704573392868,0.0032070400193333,-0.0056504993699491,-0.0047342018224298
1772902333220805600,6.0238056640625,-0.0285170078277587,0.0030584335327148,0.0521108657121658,-0.002901607658714,0.0022907429374754,-0.0047342018224298
1772902333239792400,6.04279248046875,0.0611755847930908,0.0238618850708007,0.0021542608737945,-0.0016798780998215,0.006566796451807,0.0025961752980947
1772902333258779400,6.061779296875,0.027639627456665,-0.0220289230346679,-0.0236677676439285,0.0013744457392022,0.0090102553367614,0.0099265528842806
1772902333277766100,6.08076611328125,-0.0020620822906494,-0.033792495727539,-0.0418321043252944,0.0001527161948615,-0.0068722288124263,0.0068722288124263
1772902333296753200,6.099753173828125,-0.0390903949737548,-0.0098867416381835,-0.0252057462930679,0.0001527161948615,-0.0160352010279893,0.0013744457392022
1772902333315740000,6.118739990234375,-0.0119516849517822,-0.0047292709350585,0.0268423110246658,-0.0035124723799526,-0.0129808764904737,0.0001527161948615
1772902333334727000,6.137726806640625,0.0112457275390625,-0.00921630859375,-0.0638321191072464,0.0038179049734026,-0.0166460648179054,-0.0010690133785828
1772902333353714000,6.1567138671875,-0.0018255710601806,0.007237434387207,-0.0219856947660446,0.0099265528842806,-0.0184786599129438,-0.0059559317305684
1772902333372700700,6.17570068359375,0.0069580078125,0.0401868820190429,0.0560309737920761,0.0019853105768561,-0.0099265528842806,-0.0022907429374754
1772902333391687700,6.194687744140625,0.01462984085083,-0.0031614303588867,0.1032985746860504,-0.0145080387592315,0.0200058221817016,0.0074830935336649
1772902333410674400,6.21367431640625,-0.0145001411437988,-0.0500211715698242,0.0098017901182174,-0.0187840927392244,0.0462730079889297,0.0068722288124263
1772902333429661400,6.232661376953125,-0.0065457820892333,0.0147209167480468,-0.1573212295770645,-0.0004581485991366,0.0371100343763828,0.0007635809597559
1772902333448648200,6.251648193359375,0.0029022693634033,0.0491857528686523,-0.1512822210788726,0.0184786599129438,0.0083993906155228,-0.0010690133785828
1772902333467635200,6.27063525390625,0.0022478103637695,0.000986099243164,-0.0523743629455566,0.0135917412117123,-0.0276416316628456,-0.0016798780998215
1772902333486622000,6.2896220703125,-0.0093958377838134,-0.008493423461914,0.0490954220294952,-0.0004581485991366,-0.0313068181276321,0.0013744457392022
