time,seconds_elapsed,acc_z,acc_y,acc_x,gyro_z,gyro_y,gyro_x
1772902351477744600,0.13474462890625,-0.0389051437377929,-0.0199947357177734,0.0106799900531768,-0.0163406319916248,-0.0129808764904737,0.0215329825878143
1772902351496731600,0.153731689453125,-0.0681381225585937,-0.0289459228515625,-0.0100949704647064,-0.0175623632967472,-0.0251981727778911,0.0099265528842806
1772902351515718700,0.17271875,-0.0689563751220703,-0.016632080078125,-0.0184839963912963,-0.0126754445955157,-0.0306959543377161,-0.0004581485991366
1772902351534705700,0.19170556640625,-0.0548202991485595,0.0001602172851562,0.0234787762165069,-0.009621120058,-0.0068722288124263,-0.0004581485991366
1772902351553692700,0.210692626953125,0.00752854347229,0.0170173645019531,0.0408342629671096,-0.0126754445955157,-0.0129808764904737,0.0032070400193333
1772902351572679700,0.2296796875,0.0176050662994384,0.0697746276855468,-0.0532574951648712,-0.0071776611730456,-0.0264199022203683,0.009315688163042
1772902351591666700,0.248666748046875,-0.0112006664276123,0.0379924774169921,0.0206295549869537,-0.002901607658714,-0.0361937396228313,0.009315688163042
1772902351610653700,0.26765380859375,-0.0337560176849365,0.0009317398071289,0.0865806639194488,-0.0090102553367614,-0.0294742248952388,0.0087048234418034
1772902351629640700,0.286640625,-0.0107135772705078,-0.0506620407104492,0.1557541787624359,-0.0236710105091333,-0.0080939587205648,0.0074830935336649
1772902351648627700,0.305627685546875,0.0158674716949462,-0.0189237594604492,0.0050520747900009,-0.027336198836565,0.0004581485991366,0.0087048234418034
1772902351667614700,0.32461474609375,0.0553953647613525,0.0167322158813476,-0.1440511345863342,-0.0114537142217159,-0.0044287694618105,0.0178677942603826
1772902351686601700,0.343601806640625,0.0568935871124267,0.0067968368530273,-0.0853170156478881,-0.0047342018224298,-0.0337502807378768,0.0270307660102844
1772902351705588700,0.362588623046875,-0.0263817310333251,0.0074892044067382,0.0376957952976226,-0.0108428495004773,-0.0355828739702701,0.0300850905478
1772902351724575500,0.381575439453125,-0.1087849140167236,0.0182142257690429,0.0727537870407104,-0.0175623632967472,-0.0160352010279893,0.0215329825878143
1772902351743562500,0.4005625,-0.0901155471801757,-0.0223655700683593,0.0142833590507507,-0.0163406319916248,0.006566796451807,0.0123700117692351
1772902351762549500,0.419549560546875,0.039097785949707,0.0082292556762695,-0.0576345324516296,-0.0090102553367614,0.002901607658714,0.0148134706541895
1772902351781536500,0.43853662109375,0.0774972438812255,0.0202102661132812,-0.024346649646759,-0.0132863093167543,-0.0117591470479965,0.0264199022203683
1772902351800523500,0.4575234375,-0.0143084526062011,0.0111331939697265,0.0113720297813415,-0.0181732270866632,-0.0178677942603826,0.0251981727778911
1772902351819510500,0.476510498046875,-0.0374014377593994,0.030557632446289,0.0105361640453338,-0.0163406319916248,-0.009315688163042,0.0227547138929367
1772902351838497500,0.49549755859375,-0.0694384574890136,-0.0043554306030273,0.0362352132797241,-0.0138971740379929,0.0126754445955157,0.0160352010279893
1772902351857484500,0.514484619140625,-0.0181279182434082,-0.0417566299438476,0.0336907505989074,-0.0187840927392244,0.0230601448565721,0.0129808764904737
1772902351876471600,0.533471435546875,-0.00746750831604,-0.0288352966308593,-0.0118796229362487,-0.0175623632967472,0.027336198836565,0.0166460648179054
1772902351895458600,0.55245849609375,0.005267858505249,0.0013275146484375,-0.0756869614124298,-0.0071776611730456,0.0090102553367614,0.0172569304704666
1772902351914445600,0.571445556640625,0.0149595737457275,0.0235414505004882,-0.025651216506958,-0.0004581485991366,0.0035124723799526,0.0184786599129438
1772902351933432600,0.5904326171875,0.0111093521118164,-0.003915786743164,0.0528677701950073,-0.0041233371011912,0.0138971740379929,0.0215329825878143
1772902351952419600,0.609419677734375,-0.0366430282592773,0.0001220703125,0.0693120509386062,-0.0090102553367614,0.027336198836565,0.019700389355421
1772902351971406600,0.628406494140625,-0.0278193950653076,-0.0053844451904296,0.0023112297058105,-0.0077885258942842,0.0291687939316034,0.0135917412117123
1772902351990393600,0.6473935546875,-0.0013580322265625,-0.0123777389526367,-0.0195511281490325,0.0007635809597559,0.0193949565291404,0.0105374176055192
1772902352009380600,0.666380615234375,-0.0204367637634277,-0.0521516799926757,-0.0229023098945617,0.0025961752980947,0.0108428495004773,0.0099265528842806
1772902352028367400,0.685367431640625,-0.0141711235046386,-0.0156497955322265,-0.0178808867931365,0.0007635809597559,-0.0087048234418034,0.0025961752980947
1772902352047354400,0.704354248046875,-0.0248677730560302,0.0196962356567382,0.0149700045585632,-0.0022907429374754,-0.0148134706541895,0.0025961752980947
1772902352066341400,0.72334130859375,0.0161728858947753,0.0163726806640625,0.0347223877906799,-0.0004581485991366,-0.0013744457392022,0.0050396346487104
1772902352085328400,0.742328369140625,0.0425593852996826,-0.008131980895996,0.0270131528377532,0.0013744457392022,0.0138971740379929,0.0087048234418034
1772902352104315400,0.7613154296875,0.0104422569274902,-0.0107374191284179,0.0340258479118347,-0.0016798780998215,0.0108428495004773,0.0111482823267579
1772902352123302400,0.780302490234375,-0.0611746311187744,-0.012953758239746,0.0153565108776092,-0.0047342018224298,0.0010690133785828,0.0050396346487104
1772902352142289400,0.799289306640625,-0.0523004531860351,-0.0190458297729492,-0.005560427904129,-0.002901607658714,-0.0044287694618105,-0.0041233371011912
1772902352161276400,0.8182763671875,-0.0147573947906494,0.0124168395996093,0.0018692016601562,-0.002901607658714,-0.0038179049734026,-0.0083993906155228
1772902352180263400,0.837263427734375,0.0156116485595703,0.0429515838623046,0.0428163409233093,-0.0077885258942842,0.006566796451807,-0.0010690133785828
1772902352199250400,0.85625048828125,0.0180613994598388,0.0347795486450195,0.0083653032779693,-0.009621120058,0.0059559317305684,0.0050396346487104
1772902352218237400,0.875237548828125,0.0069820880889892,-0.0135631561279296,-0.0441368520259857,-0.0053450670093297,0.0016798780998215,0.0068722288124263
1772902352237224400,0.894224365234375,-0.0411939620971679,-0.0274133682250976,-0.0044252872467041,-0.0035124723799526,0.0108428495004773,0.0013744457392022
1772902352256211500,0.91321142578125,-0.0546331405639648,-0.030653953552246,0.0589127540588378,-0.0108428495004773,0.0236710105091333,-0.0053450670093297
1772902352275198500,0.932198486328125,0.0091476440429687,0.0504236221313476,-0.0196269452571868,-0.0102319847792387,0.0145080387592315,-0.009621120058
1772902352294185500,0.951185546875,0.0359563827514648,0.0374078750610351,-0.0572634935379028,-0.0010690133785828,0.002901607658714,-0.0022907429374754
1772902352313172500,0.97017236328125,0.0299780368804931,0.0107192993164062,0.0215300023555755,0.0007635809597559,-0.0025961752980947,0.0019853105768561
1772902352332159200,0.9891591796875,-0.0424137115478515,-0.0176076889038085,0.104315161705017,-0.0138971740379929,0.0157297682017087,0.0044287694618105
1772902352351146200,1.008146240234375,-0.0994637012481689,-0.0278491973876953,0.0639072656631469,-0.0224492810666561,0.0389426313340663,-0.006566796451807
1772902352370133200,1.02713330078125,-0.0491843223571777,0.0323114395141601,-0.0586097538471221,-0.0138971740379929,0.0499381944537162,-0.0163406319916248
1772902352389120500,1.04612060546875,0.0833756923675537,0.0525693893432617,-0.1380426585674286,0.0001527161948615,0.0358883067965507,-0.0077885258942842
1772902352408107300,1.065107177734375,0.0862054824829101,0.0087890625,-0.0366161167621612,-0.0010690133785828,0.016951497644186,0.0105374176055192
1772902352427094300,1.08409423828125,-0.0337967872619628,-0.0061683654785156,0.0269330739974975,-0.009621120058,0.0102319847792387,0.0117591470479965
1772902352446081300,1.103081298828125,-0.0999593734741211,-0.0080499649047851,0.0238226056098938,-0.0090102553367614,0.0181732270866632,-0.0016798780998215
1772902352465068300,1.122068359375,-0.0175833702087402,0.0182352066040039,0.0279273986816406,-0.0047342018224298,0.0316122509539127,-0.002901607658714
1772902352484055300,1.14105517578125,0.0655364990234375,0.0267591476440429,0.0349594950675964,-0.0077885258942842,0.0401643589138984,0.0062613640911877
1772902352503042300,1.160042236328125,0.0588090419769287,0.0135421752929687,0.0123211145401,-0.0114537142217159,0.0401643589138984,0.0117591470479965
1772902352522029300,1.179029296875,0.0521848201751709,0.0310525894165039,-0.0124475955963134,-0.0102319847792387,0.0285579282790422,0.0099265528842806
1772902352541016300,1.198016357421875,0.0528907775878906,-0.001042366027832,-0.0445486903190612,-0.0047342018224298,0.0224492810666561,0.0099265528842806
1772902352560003300,1.21700341796875,0.0111162662506103,-0.0436220169067382,0.0247966945171356,-0.0053450670093297,0.0322231166064739,0.0087048234418034
1772902352578990300,1.235990234375,-0.0086288452148437,-0.0375642776489257,-0.0201669633388519,-0.0053450670093297,0.0401643589138984,0.0050396346487104
1772902352597977300,1.254977294921875,-0.0100829601287841,-0.0221691131591796,-0.0760399997234344,0.0025961752980947,0.0285579282790422,0.0001527161948615
1772902352616964400,1.27396435546875,0.0134923458099365,-0.0192441940307617,-0.0458956360816955,0.0099265528842806,0.016951497644186,-0.0016798780998215
1772902352635951000,1.292951171875,0.0293807983398437,0.0374383926391601,0.0506124794483184,0.0074830935336649,0.016951497644186,0.0001527161948615
1772902352654938000,1.311938232421875,0.0313022136688232,0.0314693450927734,0.0943560600280761,-0.0016798780998215,0.0267253331840038,0.0032070400193333
1772902352673925400,1.33092529296875,-0.004169225692749,0.000319480895996,0.032712697982788,-0.0022907429374754,0.0401643589138984,0.0019853105768561
1772902352692912400,1.349912353515625,0.0098137855529785,-0.0343494415283203,-0.0435124039649963,0.0013744457392022,0.0303905233740806,-0.002901607658714
1772902352711899100,1.368899169921875,0.0320019721984863,-0.0491886138916015,-0.065797358751297,0.0074830935336649,0.0059559317305684,-0.006566796451807
1772902352730886100,1.38788623046875,0.0245435237884521,-0.0213842391967773,-0.0022435784339904,0.0074830935336649,-0.009315688163042,-0.0108428495004773
1772902352749873200,1.406873046875,0.0451602935791015,0.0031518936157226,0.0714543461799621,0.0032070400193333,-0.0050396346487104,-0.0102319847792387
1772902352768860200,1.425860107421875,0.0609438419342041,0.0126705169677734,0.0551997125148773,0.0013744457392022,0.0035124723799526,-0.0102319847792387
1772902352787847200,1.44484716796875,0.0296525955200195,0.0079469680786132,0.0375249683856964,-0.0016798780998215,0.0120645789429545,-0.0071776611730456
1772902352806834200,1.463834228515625,0.0416023731231689,0.0014324188232421,0.01388680934906,-0.002901607658714,0.0022907429374754,-0.0071776611730456
1772902352825821200,1.4828212890625,0.026763916015625,-0.0425891876220703,0.0095595717430114,-0.006566796451807,-0.0117591470479965,-0.009621120058
1772902352844808200,1.50180810546875,0.0119776725769042,-0.0218935012817382,-0.0397561490535736,-0.0041233371011912,-0.0154243353754282,-0.0157297682017087
1772902352863795200,1.520795166015625,0.0392506122589111,-0.0209264755249023,-0.0175062716007232,-0.0022907429374754,-0.0105374176055192,-0.0151189034804701
1772902352882782200,1.5397822265625,0.0381484031677246,0.0223026275634765,-0.000385969877243,-0.0053450670093297,-0.0056504993699491,-0.0102319847792387
1772902352901769200,1.558769287109375,-0.01617431640625,0.0105762481689453,0.0122871398925781,-0.0047342018224298,0.009621120058,-0.0083993906155228
1772902352920756200,1.577756103515625,-0.0214269161224365,-0.0171670913696289,-0.0211135745048522,-0.0053450670093297,0.0126754445955157,-0.0083993906155228
1772902352939743200,1.5967431640625,-0.0224149227142334,-0.0161848068237304,-0.0370932519435882,-0.0053450670093297,0.0151189034804701,-0.0090102553367614
1772902352958730200,1.615730224609375,-0.0192124843597412,0.0386810302734375,-0.0681076347827911,-0.0016798780998215,-0.0025961752980947,-0.0145080387592315
1772902352977717200,1.63471728515625,-0.0007219314575195,0.0451374053955078,-0.0530985295772552,0.0080939587205648,-0.0129808764904737,-0.0181732270866632
1772902352996704300,1.653704345703125,0.0554940700531005,0.0043888092041015,0.0473623573780059,0.0025961752980947,-0.0135917412117123,-0.0071776611730456
1772902353015691000,1.67269091796875,0.0018415451049804,-0.0402603149414062,0.1147549152374267,-0.0108428495004773,0.0071776611730456,0.0038179049734026
1772902353034678000,1.691677978515625,-0.0798406600952148,-0.0197229385375976,0.0072699189186096,-0.0157297682017087,0.0206166859716177,-0.0053450670093297
1772902353053665000,1.7106650390625,-0.0400433540344238,0.0334882736206054,-0.1453735530376434,-0.0004581485991366,0.0108428495004773,-0.0187840927392244
1772902353072652000,1.729652099609375,0.0121734142303466,0.0354299545288085,-0.1208100616931915,0.0135917412117123,0.0047342018224298,-0.0132863093167543
1772902353091639000,1.74863916015625,0.0011839866638183,0.006382942199707,0.0210777819156646,0.0111482823267579,-0.0050396346487104,-0.0053450670093297
1772902353110626000,1.7676259765625,-0.0370054244995117,0.0226974487304687,0.09922456741333,0.0007635809597559,0.0083993906155228,-0.0059559317305684
1772902353129613000,1.786613037109375,-0.1021263599395752,0.0040035247802734,0.0914181470870971,-0.0102319847792387,0.0291687939316034,-0.0077885258942842
1772902353148600000,1.80560009765625,-0.0308699607849121,0.0117721557617187,-0.0581336021423339,-0.0059559317305684,0.0261144693940877,-0.0126754445955157
1772902353167587000,1.824587158203125,0.0058989524841308,0.002608299255371,-0.1374700963497162,0.0068722288124263,0.0151189034804701,-0.0102319847792387
1772902353186574000,1.843573974609375,0.0417344570159912,0.0117416381835937,-0.0360644161701202,0.009315688163042,0.0016798780998215,-0.0022907429374754
1772902353205561000,1.86256103515625,0.0312998294830322,0.0392723083496093,-0.0343607664108276,0.0074830935336649,0.0010690133785828,0.0019853105768561
1772902353224548000,1.881548095703125,0.0003414154052734,0.0190181732177734,-0.0209242105484008,0.0087048234418034,-0.0001527161948615,0.0013744457392022
1772902353243535000,1.90053515625,-0.0207581520080566,0.0160760879516601,0.0211157500743865,0.0044287694618105,0.0083993906155228,-0.0022907429374754
1772902353262522000,1.919522216796875,-0.0136513710021972,-0.0261182785034179,0.0514528453350067,-0.0022907429374754,0.0230601448565721,-0.0041233371011912
1772902353281509000,1.938509033203125,0.044283390045166,-0.0295419692993164,-0.0210089683532714,-0.0022907429374754,0.0138971740379929,-0.0035124723799526
1772902353300496100,1.95749609375,0.0166678428649902,-0.0140933990478515,-0.105019211769104,0.0068722288124263,-0.0111482823267579,-0.0053450670093297
1772902353319483000,1.97648291015625,-0.0041401386260986,0.0051708221435546,-0.0421092510223388,0.0135917412117123,-0.0300850905478,-0.0071776611730456
1772902353338470100,1.99547021484375,0.0039358139038085,0.0031547546386718,0.0731217265129089,0.0056504993699491,-0.0245873071253299,-0.0047342018224298
1772902353357457200,2.01445703125,-0.0177843570709228,-0.0057077407836914,0.1268158853054046,-0.0077885258942842,-0.0019853105768561,-0.0022907429374754
1772902353376444000,2.03344384765625,-0.0624003410339355,-0.0050201416015625,0.0174935460090637,-0.0102319847792387,0.009621120058,-0.0083993906155228
1772902353395431000,2.052430908203125,-0.0207419395446777,-0.0182018280029296,-0.0541407465934753,-0.0035124723799526,0.0035124723799526,-0.0157297682017087
1772902353414418000,2.07141796875,0.0286653041839599,-0.0145912170410156,-0.0687934160232544,0.0025961752980947,-0.0032070400193333,-0.0151189034804701
1772902353433405000,2.090405029296875,0.0370512008666992,-0.0063810348510742,-0.0396680533885955,0.0038179049734026,-0.0050396346487104,-0.0138971740379929
1772902353452392000,2.109391845703125,0.0409057140350341,0.028879165649414,0.0169132649898529,0.0044287694618105,0.0004581485991366,-0.0083993906155228
1772902353471379000,2.12837890625,0.0523867607116699,0.0144405364990234,-0.0126208662986755,0.0074830935336649,0.0041233371011912,-0.0047342018224298
1772902353490366000,2.147365966796875,0.0644829273223877,-0.0255212783813476,-0.0181311964988708,0.0099265528842806,0.0047342018224298,0.0001527161948615
1772902353509353000,2.16635302734375,0.016118049621582,-0.0038576126098632,0.0136127769947052,0.0080939587205648,0.0010690133785828,0.0025961752980947
1772902353528340000,2.185340087890625,-0.0149741172790527,-0.0061264038085937,0.0379971265792846,0.0032070400193333,-0.0013744457392022,-0.0035124723799526
1772902353547327000,2.204326904296875,-0.0061991214752197,-0.0190372467041015,0.0596437156200408,0.0001527161948615,-0.0087048234418034,-0.0090102553367614
1772902353566314000,2.22331396484375,0.0747821331024169,-0.0112180709838867,0.0270975530147552,-0.0010690133785828,-0.0099265528842806,-0.0016798780998215
1772902353585301000,2.242301025390625,0.0453035831451416,0.0212631225585937,0.0209555625915527,-0.002901607658714,-0.0056504993699491,0.0080939587205648
1772902353604288000,2.2612880859375,-0.0089693069458007,0.0085639953613281,-0.0081967711448669,-0.0022907429374754,-0.0142026059329509,0.0013744457392022
1772902353623275000,2.28027490234375,-0.0096065998077392,0.0086593627929687,-0.0186032950878143,0.0025961752980947,-0.0245873071253299,-0.0077885258942842
1772902353642262000,2.299261962890625,0.030898094177246,0.0276260375976562,0.0242730677127838,0.0032070400193333,-0.0294742248952388,-0.0083993906155228
1772902353661249000,2.3182490234375,0.0261549949645996,0.0060787200927734,0.0518910884857177,0.0032070400193333,-0.0331394150853157,-0.0059559317305684
1772902353680236000,2.337236083984375,0.0195639133453369,-0.0333948135375976,0.0364443063735961,0.0056504993699491,-0.0227547138929367,-0.0053450670093297
1772902353699222800,2.356222900390625,-0.0148277282714843,-0.0387849807739257,0.0953049063682556,-0.0041233371011912,-0.0129808764904737,-0.0071776611730456
1772902353718210000,2.3752099609375,-0.0207242965698242,0.007537841796875,0.0036202669143676,-0.006566796451807,-0.0178677942603826,-0.009621120058
1772902353737197000,2.394197021484375,0.0112075805664062,0.0097227096557617,-0.0485034883022308,0.0032070400193333,-0.0209221187978982,-0.0077885258942842
1772902353756183800,2.413183837890625,0.0265834331512451,0.0397777557373046,0.0171861946582794,0.0038179049734026,-0.0135917412117123,0.0001527161948615
1772902353775170800,2.4321708984375,0.005333662033081,-0.0110082626342773,0.103908896446228,-0.0090102553367614,0.0151189034804701,0.0038179049734026
1772902353794157800,2.45115771484375,-0.027416706085205,0.0296201705932617,0.0221494138240814,-0.0145080387592315,0.0248927399516105,-0.0053450670093297
1772902353813144800,2.470144775390625,0.0566596984863281,0.0778884887695312,-0.1523810923099517,0.0032070400193333,0.0041233371011912,-0.0022907429374754
1772902353832131800,2.4891318359375,0.083831787109375,0.0211677551269531,-0.1199473440647125,0.0215329825878143,-0.0148134706541895,0.0117591470479965
1772902353851118800,2.508118896484375,0.0232853889465332,-0.0460166931152343,0.0946129858493805,0.0135917412117123,-0.0190895237028598,0.0221438482403755
1772902353870105900,2.52710595703125,-0.1308562755584716,-0.0357551574707031,0.200969859957695,-0.009621120058,-0.0025961752980947,0.0148134706541895
1772902353889092900,2.5460927734375,-0.1725270748138427,0.0004301071166992,0.0953275263309478,-0.0163406319916248,0.0224492810666561,-0.0047342018224298
1772902353908079900,2.565079833984375,-0.0307252407073974,0.0356245040893554,-0.0211372673511505,-0.0071776611730456,0.0261144693940877,-0.0108428495004773
1772902353927067000,2.58406689453125,0.1174509525299072,0.0485124588012695,-0.0822084248065948,0.0007635809597559,0.0138971740379929,0.0056504993699491
1772902353946054000,2.603053955078125,0.1496627330780029,0.0248565673828125,-0.044723093509674,-0.0010690133785828,-0.0074830935336649,0.0264199022203683
1772902353965041000,2.622041015625,-0.0065751075744628,-0.0005455017089843,-0.0273038744926452,-0.0016798780998215,-0.0105374176055192,0.0294742248952388
1772902353984028000,2.64102783203125,-0.0698297023773193,0.0335016250610351,-0.0316886305809021,0.0062613640911877,0.0010690133785828,0.019700389355421
1772902354003015000,2.660014892578125,-0.050959825515747,-0.0497732162475585,0.0341859459877014,0.0056504993699491,0.0157297682017087,0.0129808764904737
1772902354022002000,2.679001953125,0.0232620239257812,-0.0673141479492187,0.0298192501068115,-0.002901607658714,0.0285579282790422,0.0148134706541895
1772902354040989000,2.697989013671875,7.22408294677e-05,-0.0122699737548828,-0.0156602263450622,-0.0041233371011912,0.0236710105091333,0.0172569304704666
1772902354059975700,2.7169755859375,-0.0562992095947265,0.0011844635009765,-0.0963692069053649,0.009315688163042,0.0138971740379929,0.0074830935336649
1772902354078962700,2.735962646484375,-0.0095686912536621,0.0197181701660156,-0.0317135751247406,0.0135917412117123,0.0022907429374754,0.0007635809597559
1772902354097949700,2.75494970703125,-0.0300171375274658,-0.0115547180175781,0.0590232908725738,0.0056504993699491,0.0071776611730456,0.0007635809597559
1772902354116937000,2.77393701171875,-0.0412702560424804,-0.0108880996704101,0.0672845840454101,-0.002901607658714,0.0151189034804701,-0.0059559317305684
1772902354135923700,2.792923828125,-0.0044155120849609,-0.0144824981689453,0.0134629607200622,-0.0071776611730456,0.016951497644186,-0.0120645789429545
1772902354154910700,2.81191064453125,0.1069309711456298,0.0346975326538085,-0.0135031342506408,-0.0090102553367614,0.0047342018224298,0.0007635809597559
1772902354173897700,2.830897705078125,0.0961148738861084,-0.0045013427734375,-0.0344076752662658,-0.0083993906155228,0.009621120058,0.0184786599129438
1772902354192884700,2.849884765625,-0.0092208385467529,-0.0375661849975585,-0.0440590381622314,-0.0016798780998215,-0.0007635809597559,0.0123700117692351
1772902354211871700,2.868871826171875,-0.0618185997009277,0.0078792572021484,-0.050315111875534,0.0056504993699491,-0.009315688163042,-0.0010690133785828
1772902354230858800,2.887858642578125,-0.0138309001922607,0.0099287033081054,0.029327243566513,0.0032070400193333,-0.0074830935336649,-0.0047342018224298
1772902354249845800,2.906845703125,0.0310652256011962,-0.0020351409912109,0.0636879205703735,-0.0047342018224298,-0.0019853105768561,0.0025961752980947
1772902354268832800,2.925832763671875,0.0004427433013916,-0.0115518569946289,0.0093665421009063,-0.006566796451807,0.0004581485991366,0.0068722288124263
1772902354287819800,2.94481982421875,-0.0553653240203857,-0.0460329055786132,-0.0159052312374115,-0.0004581485991366,0.0059559317305684,-0.0016798780998215
1772902354306806800,2.963806884765625,-0.0409505367279052,-0.0321054458618164,0.026808887720108,-0.0010690133785828,0.0059559317305684,-0.0108428495004773
1772902354325793800,2.982793701171875,0.0099811553955078,-0.0237579345703125,0.0149794220924377,-0.0010690133785828,0.0114537142217159,-0.0077885258942842
1772902354344780800,3.00178076171875,0.0300297737121582,0.0383100509643554,-0.0013867914676666,-0.0022907429374754,0.0059559317305684,-0.002901607658714
1772902354363767800,3.020767822265625,0.010188341140747,0.0418577194213867,-0.0106047689914703,0.0001527161948615,0.0035124723799526,0.0001527161948615
1772902354382754800,3.0397548828125,-0.020679235458374,0.0620012283325195,-0.0150984823703765,0.0038179049734026,0.002901607658714,-0.0016798780998215
1772902354401741800,3.058741943359375,-0.0207068920135498,0.0157384872436523,0.0199404954910278,0.0013744457392022,-0.0013744457392022,-0.0047342018224298
1772902354420728800,3.077728759765625,-0.013777732849121,-0.0032892227172851,-0.0044440925121307,0.0025961752980947,-0.0068722288124263,-0.0035124723799526
1772902354439715600,3.096715576171875,0.0068614482879638,-0.0382099151611328,-0.0029865503311157,0.0038179049734026,-0.0111482823267579,-0.0041233371011912
1772902354458702600,3.11570263671875,-0.0009534358978271,0.0147476196289062,0.0282042324542999,0.0050396346487104,-0.0123700117692351,-0.002901607658714
1772902354477689900,3.13468994140625,0.0039868354797363,-0.0019607543945312,0.0551616549491882,-0.0016798780998215,-0.0007635809597559,0.0038179049734026
1772902354496676900,3.1536767578125,-0.024101972579956,0.0077190399169921,0.023440271615982,-0.0059559317305684,-0.0074830935336649,0.0001527161948615
1772902354515663600,3.17266357421875,-0.0149896144866943,0.007852554321289,-0.0670370161533355,0.0038179049734026,-0.0184786599129438,-0.006566796451807
1772902354534650600,3.191650634765625,0.0476131439208984,0.0125999450683593,-0.0065535902976989,0.0068722288124263,-0.0251981727778911,-0.0022907429374754
1772902354553637600,3.2106376953125,-0.002352237701416,-0.0323123931884765,0.0676461160182952,-0.0041233371011912,-0.0038179049734026,0.0062613640911877
1772902354572624600,3.229624755859375,-0.0598785877227783,-0.0407543182373046,0.0306174755096435,-0.0138971740379929,0.0206166859716177,0.0013744457392022
1772902354591611600,3.248611572265625,-0.0470240116119384,0.0380897521972656,-0.1081790328025817,-0.002901607658714,0.0200058221817016,-0.006566796451807
1772902354610598700,3.2675986328125,0.0119953155517578,0.0882120132446289,-0.2142117917537689,0.0215329825878143,-0.0050396346487104,-0.0047342018224298
1772902354629585700,3.286585693359375,0.0393412113189697,-0.0131711959838867,-0.0351194143295288,0.0276416316628456,-0.0203112531453371,0.0062613640911877
1772902354648572700,3.30557275390625,-0.0163831710815429,-0.0359954833984375,0.1607568114995956,0.0056504993699491,-0.0172569304704666,0.0129808764904737
1772902354667559700,3.3245595703125,-0.1309502124786377,-0.0235204696655273,0.1357957124710083,-0.0108428495004773,0.0108428495004773,0.0056504993699491
1772902354686546700,3.343546630859375,-0.1320219039916992,-0.0132732391357421,0.0059316158294677,-0.0077885258942842,0.0291687939316034,-0.0114537142217159
1772902354705533700,3.36253369140625,0.0288999080657959,0.0065183639526367,-0.1045950353145599,-0.0010690133785828,0.0157297682017087,-0.0157297682017087
1772902354724520700,3.381520751953125,0.1413705348968505,0.0483045578002929,-0.0991413593292236,0.0032070400193333,-0.0044287694618105,0.0001527161948615
1772902354743507700,3.4005078125,0.0988798141479492,0.0483293533325195,-0.0745227932929992,0.0056504993699491,-0.0184786599129438,0.0148134706541895
1772902354762494700,3.41949462890625,-0.0325431823730468,0.0247869491577148,-0.0136961638927459,0.0087048234418034,-0.0178677942603826,0.0154243353754282
1772902354781481700,3.438481689453125,-0.1308226585388183,-0.0391712188720703,0.0414734482765197,0.0074830935336649,0.0077885258942842,0.0013744457392022
1772902354800468700,3.45746875,-0.1304750442504882,-0.0511722564697265,0.0948239266872406,-0.0053450670093297,0.0218384154140949,-0.0145080387592315
1772902354819455500,3.47645556640625,-0.0500845909118652,-0.0204935073852539,-0.0224634110927581,-0.0090102553367614,0.0206166859716177,-0.0193949565291404
1772902354838442500,3.4954423828125,0.0064070224761962,-0.0002021789550781,-0.136043518781662,0.0074830935336649,0.0010690133785828,-0.0187840927392244
1772902354857429800,3.5144296875,0.0639259815216064,0.0076408386230468,-0.0558068454265594,0.0227547138929367,-0.0178677942603826,-0.0157297682017087
1772902354876416500,3.53341650390625,0.0721123218536377,0.0472774505615234,0.0891063809394836,0.0129808764904737,-0.0123700117692351,-0.0053450670093297
1772902354895403500,3.552403564453125,0.0531690120697021,0.0203523635864257,0.1461146771907806,-0.0041233371011912,0.0010690133785828,-0.0010690133785828
1772902354914390500,3.571390625,0.0003666877746582,-0.0105953216552734,0.0615634322166442,-0.009621120058,0.0083993906155228,-0.0010690133785828
1772902354933377500,3.59037744140625,0.006681203842163,-0.0408363342285156,-0.0254811644554138,-0.0016798780998215,0.006566796451807,-0.0022907429374754
1772902354952364500,3.609364501953125,-0.0202009677886962,-0.05548095703125,-0.0460737943649292,0.0074830935336649,0.0004581485991366,-0.0071776611730456
1772902354971351600,3.6283515625,-0.0148191452026367,0.0007667541503906,-0.0115135610103607,0.0080939587205648,-0.0184786599129438,-0.0138971740379929
1772902354990338600,3.647338623046875,-0.0010352134704589,0.0317115783691406,0.0496764779090881,0.0056504993699491,-0.0251981727778911,-0.0151189034804701
1772902355009325600,3.66632568359375,0.0461068153381347,0.0383224487304687,0.0506297647953033,0.0056504993699491,-0.0142026059329509,-0.0077885258942842
1772902355028312600,3.6853125,0.0560071468353271,0.0065832138061523,0.0503382086753845,0.0068722288124263,0.002901607658714,0.0013744457392022
1772902355047299600,3.704299560546875,0.0153260231018066,-0.021921157836914,0.0813260674476623,-0.0016798780998215,0.0041233371011912,0.0056504993699491
1772902355066286600,3.72328662109375,-0.0435507297515869,-0.0115089416503906,-0.0141961574554443,-0.002901607658714,-0.0025961752980947,-0.0016798780998215
1772902355085273600,3.742273681640625,-0.0294346809387207,0.0007543563842773,-0.025792509317398,0.0025961752980947,-0.0135917412117123,-0.009621120058
1772902355104260600,3.761260498046875,-0.0114903450012207,0.0057668685913085,-0.0195405483245849,0.0074830935336649,-0.0099265528842806,-0.0077885258942842
1772902355123247600,3.78024755859375,0.0045511722564697,0.0013866424560546,0.0214023292064666,0.0068722288124263,-0.0056504993699491,-0.0022907429374754
1772902355142234600,3.799234619140625,-0.0266404151916503,0.0227041244506835,0.0030684471130371,0.0032070400193333,-0.0062613640911877,-0.0041233371011912
1772902355161221600,3.8182216796875,0.0061872005462646,0.040877342224121,0.0229773819446563,0.0013744457392022,-0.0105374176055192,-0.0047342018224298
1772902355180208400,3.83720849609375,0.022064208984375,0.0278348922729492,0.0147338211536407,0.0013744457392022,-0.0001527161948615,-0.0010690133785828
1772902355199195400,3.8561953125,-0.0202076435089111,-0.0106382369995117,-0.0015903115272521,-0.0004581485991366,0.0090102553367614,0.0044287694618105
1772902355218182700,3.8751826171875,-0.0382077693939209,-0.0519046783447265,-0.0436795353889465,0.0038179049734026,0.002901607658714,-0.0004581485991366
1772902355237169700,3.894169677734375,-0.0520000457763671,-0.0338478088378906,-0.0836555957794189,0.0123700117692351,-0.0056504993699491,-0.0083993906155228
1772902355256156400,3.913156494140625,-0.0221588611602783,0.0099687576293945,-0.0021637678146362,0.0142026059329509,-0.0123700117692351,-0.0145080387592315
1772902355275143400,3.932143310546875,0.0130221843719482,0.0382499694824218,0.0324914455413818,0.0111482823267579,-0.0190895237028598,-0.0138971740379929
1772902355294130400,3.95113037109375,0.048046588897705,0.0557823181152343,0.0618450343608856,0.0080939587205648,-0.0160352010279893,-0.0102319847792387
1772902355313117400,3.970117431640625,0.0735552310943603,0.0075492858886718,0.1055767238140106,0.0007635809597559,-0.0062613640911877,-0.0022907429374754
1772902355332104400,3.9891044921875,0.0219519138336181,-0.0577287673950195,0.0869425684213638,-0.0071776611730456,0.0102319847792387,0.0007635809597559
1772902355351091500,4.008091552734375,-0.0664441585540771,-0.0481071472167968,-0.0114336311817169,-0.0108428495004773,0.0157297682017087,-0.0126754445955157
1772902355370078500,4.027078369140625,-0.0278635025024414,0.0363626480102539,-0.1548919975757599,0.0007635809597559,-0.0038179049734026,-0.0218384154140949
1772902355389065500,4.0460654296875,0.0493178367614746,0.0755014419555664,-0.1738511323928833,0.0166460648179054,-0.0325285494327545,-0.0151189034804701
1772902355408052500,4.065052490234375,0.0773613452911377,-0.013646125793457,-0.0383025705814361,0.0221438482403755,-0.0441349819302558,0.0007635809597559
1772902355427039500,4.08403955078125,0.0193214416503906,-0.0578823089599609,0.1057114601135253,0.009315688163042,-0.0300850905478,0.0056504993699491
1772902355446026500,4.103026611328125,-0.0649902820587158,-0.0285120010375976,0.1437270641326904,-0.0035124723799526,0.0053450670093297,0.0001527161948615
1772902355465013500,4.122013427734375,-0.0709784030914306,0.0033769607543945,0.0318519175052642,-0.0059559317305684,0.027336198836565,-0.0114537142217159
1772902355484000500,4.14100048828125,0.0410616397857666,0.0063486099243164,-0.1153980791568756,0.0019853105768561,0.006566796451807,-0.0132863093167543
1772902355502987500,4.159987548828125,0.1056108474731445,-0.0333538055419921,-0.1378922462463379,0.0154243353754282,-0.0178677942603826,-0.0059559317305684
1772902355521974500,4.178974609375,0.0802259445190429,0.0054941177368164,-0.007010281085968,0.0166460648179054,-0.0313068181276321,-0.0041233371011912
1772902355540961500,4.19796142578125,0.0100536346435546,0.0426139831542968,0.0670398622751236,0.0111482823267579,-0.0062613640911877,0.0019853105768561
1772902355559948300,4.2169482421875,-0.022388219833374,0.0059232711791992,0.1140972673892974,-0.0004581485991366,0.0181732270866632,0.0013744457392022
1772902355588428800,4.2454287109375,0.0089118480682373,-0.0197067260742187,-0.0042422711849212,-0.0004581485991366,0.0267253331840038,-0.0016798780998215
1772902355607415800,4.264415771484375,0.0511116981506347,-0.0483827590942382,-0.0956189334392547,0.0099265528842806,0.009621120058,0.0062613640911877
1772902355626402800,4.28340283203125,0.0335710048675537,-0.012312889099121,-0.0489393174648284,0.0160352010279893,-0.0227547138929367,0.0025961752980947
1772902355645390000,4.30239013671875,0.014676809310913,0.0202112197875976,0.0966957062482833,0.009315688163042,-0.0209221187978982,0.009315688163042
1772902355664376800,4.321376953125,-0.0359365940093994,0.0237817764282226,0.1632312387228012,-0.0035124723799526,-0.0032070400193333,0.0025961752980947
1772902355683363800,4.34036376953125,-0.047236680984497,-0.021066665649414,0.0871898233890533,-0.0059559317305684,0.0224492810666561,-0.009621120058
1772902355702350800,4.359350830078125,0.0504200458526611,-0.0475444793701171,0.0215878784656524,-0.0071776611730456,0.0267253331840038,-0.0120645789429545
1772902355721337900,4.378337890625,0.0823943614959716,-0.0245943069458007,-0.0216580927371978,-0.0047342018224298,0.009621120058,-0.0059559317305684
1772902355740324900,4.397324951171875,0.0090053081512451,-0.0354280471801757,-0.0671692490577697,-0.0010690133785828,-0.0038179049734026,-0.0041233371011912
1772902355759312000,4.416311767578125,0.0097692012786865,0.0148296356201171,-0.0178926885128021,0.0056504993699491,-0.0245873071253299,-0.009621120058
1772902355778299000,4.435298828125,-0.0033473968505859,0.0055246353149414,0.0271278619766235,0.0068722288124263,-0.009315688163042,-0.0059559317305684
1772902355797286000,4.454285888671875,0.0190958976745605,0.0311164855957031,0.088944524526596,0.0001527161948615,0.0041233371011912,-0.0041233371011912
1772902355816273000,4.47327294921875,0.0184097290039062,0.0228691101074218,0.064161941409111,-0.0090102553367614,0.0059559317305684,-0.0004581485991366
1772902355835260000,4.492260009765625,0.0322062969207763,0.0057058334350585,-0.0156693458557128,-0.0108428495004773,-0.009315688163042,0.0025961752980947
1772902355854247000,4.511246826171875,-0.0156266689300537,-0.0249958038330078,-0.0500780642032623,-0.0022907429374754,-0.0221438482403755,-0.0010690133785828
1772902355873234000,4.53023388671875,-0.0226023197174072,-0.0170345306396484,-0.0318208038806915,0.0062613640911877,-0.0203112531453371,-0.002901607658714
1772902355892221000,4.549220947265625,-0.0128846168518066,-0.0070047378540039,0.0455181002616882,0.0013744457392022,-0.0032070400193333,-0.0004581485991366
1772902355911208000,4.5682080078125,0.0014948844909667,0.0444984436035156,0.0189844667911529,-0.0059559317305684,-0.0062613640911877,-0.0004581485991366
1772902355930195000,4.58719482421875,-0.017432689666748,0.0548391342163085,-0.0577636361122131,-0.006566796451807,-0.0135917412117123,-0.0022907429374754
1772902355949182000,4.606181884765625,0.0067169666290283,0.0202589035034179,-0.0376854538917541,-0.0004581485991366,-0.0135917412117123,0.0038179049734026
1772902355968168700,4.625168701171875,-0.010655403137207,-0.0180854797363281,-0.0239231884479522,0.0032070400193333,-0.0080939587205648,0.0087048234418034
1772902355987156000,4.644156005859375,-0.0233097076416015,-0.0341339111328125,-0.0310714840888977,0.0050396346487104,-0.0099265528842806,0.0044287694618105
1772902356006143000,4.66314306640625,-0.0554001331329345,-0.0351028442382812,-0.0126613974571228,0.0032070400193333,-0.0062613640911877,-0.002901607658714
1772902356025130000,4.6821298828125,-0.0360181331634521,-0.0053424835205078,0.0340390503406524,-0.0016798780998215,-0.0019853105768561,-0.0077885258942842
1772902356044116700,4.70111669921875,0.0816221237182617,0.027510643005371,-0.0366675853729248,0.0007635809597559,0.0077885258942842,-0.0010690133785828
1772902356063103700,4.720103759765625,0.1628565788269043,0.037353515625,-0.0167211294174194,0.0007635809597559,0.0047342018224298,0.0209221187978982
1772902356082090800,4.7390908203125,0.0504746437072753,0.0178842544555664,0.0056277811527252,-0.0053450670093297,-0.0001527161948615,0.0313068181276321
1772902356101077800,4.758077880859375,-0.1502265930175781,-0.0514554977416992,0.0618350803852081,-0.0193949565291404,0.0175623632967472,0.0148134706541895
1772902356120064800,4.777064697265625,-0.2066915035247802,-0.0443153381347656,-0.0026582479476928,-0.0224492810666561,0.0322231166064739,-0.0145080387592315
1772902356139051800,4.7960517578125,-0.0467791557312011,0.026045799255371,-0.2026287615299224,0.0032070400193333,0.0383317656815052,-0.0193949565291404
1772902356158038800,4.815038818359375,0.1314449310302734,0.0623035430908203,-0.1629641056060791,0.0251981727778911,0.0114537142217159,0.0013744457392022
1772902356177025800,4.83402587890625,0.1424496173858642,0.0051288604736328,-0.0081952512264251,0.0227547138929367,-0.0068722288124263,0.0306959543377161
1772902356196012800,4.8530126953125,-0.0294291973114013,-0.0388526916503906,0.1037921607494354,0.0074830935336649,-0.0080939587205648,0.0306959543377161
1772902356214999800,4.871999755859375,-0.163999319076538,-0.0499944686889648,0.090556651353836,-0.0035124723799526,-0.0025961752980947,0.0025961752980947
1772902356233986800,4.89098681640625,-0.0579426288604736,-0.014902114868164,0.0700477510690689,-0.0041233371011912,0.0071776611730456,-0.0163406319916248
1772902356252973800,4.909973876953125,0.0936813354492187,0.0440998077392578,0.0201368927955627,-0.0010690133785828,0.0157297682017087,-0.0047342018224298
1772902356271960800,4.9289609375,0.148176908493042,0.0395441055297851,0.044571965932846,-0.0053450670093297,0.0181732270866632,0.0172569304704666
1772902356290947800,4.94794775390625,0.025820255279541,0.0515012741088867,0.0028441250324249,-0.0071776611730456,0.0016798780998215,0.0227547138929367
1772902356309934800,4.966934814453125,-0.0935695171356201,-0.006845474243164,-0.0226184129714965,-0.0047342018224298,-0.0044287694618105,0.0129808764904737
1772902356328921900,4.985921875,-0.1228466033935546,-0.0603580474853515,0.049221247434616,-0.0090102553367614,-0.0074830935336649,-0.002901607658714
1772902356347908900,5.004908935546875,-0.0438067913055419,-0.0857381820678711,0.014668196439743,-0.0175623632967472,-0.0129808764904737,-0.0120645789429545
1772902356366895900,5.023895751953125,-0.0144884586334228,-0.035491943359375,-0.0184900760650634,-0.0138971740379929,-0.0056504993699491,-0.0120645789429545
1772902356385883000,5.0428828125,0.00948166847229,-0.019536018371582,-0.0421915650367736,-0.0083993906155228,0.0016798780998215,-0.0114537142217159
1772902356404869600,5.06186962890625,-0.013864517211914,-0.0089902877807617,-0.0040760934352874,-0.0090102553367614,0.002901607658714,-0.0114537142217159
1772902356423856600,5.080856689453125,-0.0221660137176513,-0.010660171508789,0.0051615536212921,-0.0157297682017087,-0.0013744457392022,-0.0114537142217159
1772902356442843600,5.09984375,-0.0169653892517089,0.0067205429077148,-0.039223313331604,-0.0151189034804701,-0.0087048234418034,-0.0163406319916248
1772902356461831000,5.118830810546875,-0.0455090999603271,0.0147361755371093,-0.0644668936729431,-0.0083993906155228,-0.0038179049734026,-0.0193949565291404
1772902356480817700,5.137817626953125,-0.0285413265228271,0.0200881958007812,-0.0667223930358886,-0.0004581485991366,-0.0032070400193333,-0.0175623632967472
1772902356499804700,5.1568046875,0.0047528743743896,0.0364131927490234,-0.0509120225906372,0.0038179049734026,-0.0025961752980947,-0.0120645789429545
1772902356518791700,5.175791748046875,0.0174789428710937,0.0262832641601562,0.0034857392311096,0.0056504993699491,-0.0032070400193333,-0.0053450670093297
1772902356537778700,5.19477880859375,-0.0848250389099121,-0.0117321014404296,0.0375959873199462,0.0032070400193333,0.0047342018224298,-0.0077885258942842
1772902356556765700,5.213765625,-0.1087288856506347,-0.0152454376220703,0.028204470872879,0.0019853105768561,-0.0154243353754282,-0.0236710105091333
1772902356575752700,5.232752685546875,-0.0425689220428466,-0.0178995132446289,0.0259333252906799,0.0032070400193333,-0.019700389355421,-0.027336198836565
1772902356594739700,5.25173974609375,0.0063264369964599,0.0046806335449218,0.0496703684329986,0.0001527161948615,-0.0135917412117123,-0.0206166859716177
1772902356613726700,5.270726806640625,0.0782105922698974,0.0798540115356445,0.047616958618164,-0.0022907429374754,-0.0160352010279893,-0.0120645789429545
1772902356632713700,5.289713623046875,0.1084725856781005,0.0513134002685546,0.0300811529159545,-0.002901607658714,0.0041233371011912,0.0087048234418034
1772902356651700700,5.30870068359375,0.0495326519012451,0.0183429718017578,0.0027025938034057,-0.0059559317305684,0.0132863093167543,0.019700389355421
1772902356670687700,5.327687744140625,0.0088598728179931,0.0124139785766601,-0.0475507378578186,-0.006566796451807,-0.0013744457392022,0.0148134706541895
1772902356689674800,5.3466748046875,-0.0595870018005371,-0.0161476135253906,-0.0806953012943267,-0.0010690133785828,-0.0111482823267579,0.0080939587205648
1772902356708661800,5.365661865234375,-0.0809211730957031,-0.0367183685302734,-0.0205301046371459,0.0013744457392022,-0.0062613640911877,-0.0016798780998215
1772902356727648800,5.384648681640625,-0.0230510234832763,-0.0091733932495117,0.019700139760971,0.0007635809597559,0.0041233371011912,-0.0041233371011912
1772902356746635800,5.4036357421875,0.0146927833557128,0.0124101638793945,-0.0155626237392425,0.0025961752980947,0.009621120058,-0.0022907429374754
1772902356765622800,5.422622802734375,0.044919729232788,0.0517520904541015,-0.0004470646381378,-0.0022907429374754,-0.0007635809597559,0.0007635809597559
1772902356784609500,5.441609619140625,0.0185556411743164,0.0542612075805664,0.0544314682483673,-0.0114537142217159,0.002901607658714,0.0062613640911877
1772902356803596800,5.4605966796875,-0.0271267890930175,0.0006208419799804,0.0820956975221633,-0.0206166859716177,0.0193949565291404,0.0062613640911877
1772902356822583800,5.479583740234375,-0.0351929664611816,-0.0342140197753906,-0.0712698698043823,-0.0102319847792387,0.0187840927392244,-0.002901607658714
1772902356841570800,5.49857080078125,0.0171337127685546,-0.0031080245971679,-0.161363422870636,0.0056504993699491,0.0004581485991366,0.0013744457392022
1772902356860557600,5.5175576171875,0.0737218856811523,-0.013132095336914,-0.0271389186382293,0.0056504993699491,-0.019700389355421,0.009315688163042
1772902356879544600,5.536544677734375,-0.0016355514526367,-0.0899057388305664,0.06140598654747,-0.0016798780998215,-0.0099265528842806,0.0105374176055192
1772902356898531600,5.555531494140625,-0.101569652557373,-0.1100378036499023,0.0681620836257934,-0.0102319847792387,0.016951497644186,-0.0035124723799526
1772902356917518600,5.5745185546875,-0.117302656173706,-0.0351638793945312,0.0037501156330108,-0.0102319847792387,0.0328339822590351,-0.0230601448565721
1772902356936505600,5.593505615234375,-0.0158069133758544,0.0560779571533203,-0.089372843503952,-0.0035124723799526,0.0255036037415266,-0.0328339822590351
1772902356955492600,5.61249267578125,0.1066350936889648,0.097208023071289,-0.0693758130073547,0.0001527161948615,0.0071776611730456,-0.0193949565291404
1772902356974479600,5.631479736328125,0.111405611038208,0.0453300476074218,-0.0397535860538482,0.0032070400193333,-0.0044287694618105,-0.0022907429374754
1772902356993466600,5.650466552734375,0.0546741485595703,0.0087547302246093,-0.0001144707202911,0.0080939587205648,-0.0044287694618105,0.0068722288124263
1772902357012453600,5.66945361328125,-0.015507698059082,-0.0336780548095703,0.0759300887584686,0.0050396346487104,0.0059559317305684,0.0074830935336649
1772902357031440600,5.688440673828125,-0.0896384716033935,-0.0511436462402343,0.0698444545269012,-0.0059559317305684,0.0157297682017087,-0.0016798780998215
1772902357050427600,5.707427734375,-0.0911478996276855,-0.0460615158081054,0.0164072215557098,-0.009621120058,0.0212275516241788,-0.0163406319916248
1772902357069414700,5.72641455078125,-0.0340397357940673,-0.0196790695190429,-0.0433386266231536,-0.0022907429374754,0.0108428495004773,-0.0279470644891262
1772902357088401700,5.745401611328125,0.06315279006958,0.0193157196044921,-0.030226856470108,0.0056504993699491,0.0004581485991366,-0.0242818742990493
1772902357107388700,5.764388671875,0.1148242950439453,0.0496330261230468,0.0511778891086578,0.0044287694618105,-0.0074830935336649,-0.009621120058
1772902357126375700,5.783375732421875,0.0902824401855468,0.0527019500732421,0.079396516084671,0.0001527161948615,0.0041233371011912,0.0056504993699491
1772902357145362700,5.80236279296875,0.025658369064331,0.0369958877563476,0.0401926040649414,-0.0035124723799526,0.009621120058,0.0074830935336649
1772902357164349400,5.821349365234375,-0.0381455421447753,0.0103473663330078,0.0230417251586914,-0.0022907429374754,0.0010690133785828,-0.0022907429374754
1772902357183336700,5.840336669921875,-0.0098466873168945,-0.0132207870483398,0.0011344254016876,0.0001527161948615,-0.0074830935336649,-0.0059559317305684
1772902357202323700,5.85932373046875,-0.0037693977355957,-0.0123052597045898,0.0356798470020294,-0.0010690133785828,-0.009315688163042,-0.0059559317305684
1772902357221310700,5.878310791015625,0.0371739864349365,-0.0182600021362304,0.0034096240997314,0.0001527161948615,-0.009315688163042,-0.0053450670093297
1772902357240297500,5.89729736328125,0.0143842697143554,-0.0080289840698242,0.0332859754562377,0.0001527161948615,-0.0050396346487104,-0.002901607658714
1772902357259284500,5.916284423828125,0.0157053470611572,0.0066127777099609,0.0442881882190704,-0.002901607658714,-0.0050396346487104,-0.0041233371011912
1772902357278271500,5.935271484375,-0.012972354888916,0.0204658508300781,0.0326371788978576,-0.0077885258942842,0.0035124723799526,0.0007635809597559
1772902357297258500,5.954258544921875,-0.0030949115753173,0.0103168487548828,-0.0468677282333374,-0.0035124723799526,-0.0001527161948615,0.0007635809597559
1772902357316245500,5.97324560546875,-0.0243434906005859,-0.0038776397705078,-0.0429940223693847,0.0019853105768561,-0.0099265528842806,-0.0010690133785828
1772902357335232500,5.992232421875,-0.0336437225341796,-0.029210090637207,-0.0076654851436614,0.0013744457392022,-0.0166460648179054,-0.006566796451807
1772902357354219500,6.011219482421875,0.0010726451873779,-0.0087203979492187,0.0125132501125335,0.0001527161948615,-0.0184786599129438,-0.0090102553367614
1772902357373206500,6.03020654296875,0.0114588737487792,-0.0035181045532226,-0.0142574310302734,0.0019853105768561,-0.009315688163042,-0.0053450670093297
1772902357392193500,6.049193603515625,0.0452854633331298,0.0416107177734375,0.0255073010921478,0.0032070400193333,-0.0013744457392022,-0.0047342018224298
1772902357411180500,6.0681806640625,0.0292575359344482,0.0641241073608398,-0.0132770538330078,0.0013744457392022,-0.0074830935336649,-0.0022907429374754
1772902357430167600,6.08716748046875,0.0377595424652099,0.0411033630371093,0.0078107416629791,0.0013744457392022,-0.0111482823267579,0.0019853105768561
1772902357449154600,6.106154541015625,0.0228240489959716,-0.021209716796875,0.0261370539665222,-0.0035124723799526,-0.0087048234418034,0.0038179049734026
1772902357468141600,6.1251416015625,-0.0454707145690918,-0.0625534057617187,0.0645381808280944,-0.0102319847792387,0.0187840927392244,-0.0035124723799526
1772902357487128600,6.144128662109375,-0.0575284957885742,-0.0570392608642578,-0.0439339578151702,-0.009621120058,0.0297796577215194,-0.0151189034804701
1772902357506115600,6.163115478515625,0.0563282966613769,0.0220346450805664,-0.169672280550003,0.0056504993699491,0.0157297682017087,-0.0108428495004773
1772902357525102600,6.1821025390625,0.0914154052734375,0.0495843887329101,-0.155630737543106,0.0215329825878143,-0.0203112531453371,0.0001527161948615
1772902357544089600,6.201089599609375,0.0489695072174072,0.0290851593017578,0.0332209467887878,0.0178677942603826,-0.0386371985077858,0.0068722288124263
1772902357563076600,6.22007666015625,-0.0400881767272949,-0.0021677017211914,0.2171067595481872,-0.0035124723799526,-0.0105374176055192,0.0074830935336649
1772902357582063600,6.239063720703125,-0.0634045600891113,0.0002899169921875,0.1433494687080383,-0.0175623632967472,0.0316122509539127,0.0019853105768561
1772902357601050400,6.25805029296875,-0.0123028755187988,0.000619888305664,-0.019212394952774,-0.0163406319916248,0.0456621423363685,-0.0041233371011912
1772902357620037400,6.277037353515625,0.0645766258239746,0.0099763870239257,-0.1292744576930999,-0.006566796451807,0.0230601448565721,-0.002901607658714
1772902357639024400,6.2960244140625,0.0838305950164794,0.0092630386352539,-0.1294548511505127,0.0032070400193333,-0.009315688163042,0.0038179049734026
1772902357658011600,6.31501171875,0.0166194438934326,0.0274696350097656,-0.0764656066894531,0.0129808764904737,-0.0160352010279893,0.0080939587205648
1772902357676998400,6.333998291015625,-0.0054507255554199,0.0025367736816406,0.0615002810955047,0.0099265528842806,0.0010690133785828,0.0105374176055192
1772902357695985400,6.3529853515625,-0.0365521907806396,-0.0211038589477539,0.1283274888992309,-0.0053450670093297,0.0175623632967472,0.0068722288124263
1772902357714972400,6.371972412109375,-0.0482761859893798,-0.0182294845581054,0.079046219587326,-0.0157297682017087,0.0328339822590351,0.0025961752980947
1772902357733959400,6.39095947265625,-0.0110728740692138,0.0147075653076171,-0.0201017558574676,-0.0090102553367614,0.0358883067965507,0.0038179049734026
1772902357752946400,6.409946533203125,0.0108282566070556,-0.0046396255493164,-0.0977818667888641,0.0074830935336649,0.0181732270866632,0.0038179049734026
1772902357771933400,6.428933349609375,0.0151267051696777,-0.0374860763549804,-0.0428334772586822,0.0129808764904737,-0.0019853105768561,0.0025961752980947
1772902357790920400,6.44792041015625,-0.0154728889465332,-0.0222482681274414,0.1088217794895172,0.0007635809597559,-0.0068722288124263,0.0001527161948615
1772902357809907500,6.466907470703125,-0.0697014331817627,0.0232839584350585,0.1015255749225616,-0.009621120058,0.0047342018224298,-0.0083993906155228
1772902357828894500,6.48589453125,-0.0228989124298095,-0.002354621887207,0.0374632179737091,-0.0083993906155228,0.0236710105091333,-0.0145080387592315
1772902357847881500,6.504881591796875,0.0436046123504638,-0.0132865905761718,0.0180281996726989,-0.0071776611730456,0.0291687939316034,-0.0108428495004773
1772902357866868500,6.523868408203125,0.0908553600311279,0.0362262725830078,-0.0034544169902801,-0.006566796451807,0.0163406319916248,0.0019853105768561
1772902357885855500,6.54285546875,0.0848894119262695,0.022735595703125,-0.0562617480754852,-0.0010690133785828,-0.0025961752980947,0.0117591470479965
1772902357914336000,6.5713359375,-0.0077581405639648,-0.0079498291015625,0.0211687684059143,0.0062613640911877,-0.0142026059329509,0.0172569304704666
1772902357933323000,6.590322998046875,-0.0849838256835937,-0.0430183410644531,0.0519348978996276,0.0025961752980947,-0.0025961752980947,0.0087048234418034
1772902357952309800,6.609309814453125,-0.0536615848541259,0.0046501159667968,0.0646487772464752,-0.0047342018224298,-0.0007635809597559,0.0019853105768561
1772902357971297000,6.628297119140625,-0.026191234588623,0.0044336318969726,-0.0089885890483856,-0.0059559317305684,-0.0044287694618105,0.0007635809597559
1772902357990284000,6.647283935546875,0.0029196739196777,-0.0218114852905273,-0.0484294891357421,-0.0041233371011912,-0.0154243353754282,0.0038179049734026
1772902358009270800,6.666270751953125,-0.0177555084228515,-0.0262088775634765,-0.0312991738319397,0.0001527161948615,-0.0129808764904737,0.0032070400193333
1772902358028257800,6.6852578125,-0.0661835670471191,-0.0113000869750976,0.0186878144741058,-0.0022907429374754,-0.0001527161948615,0.0001527161948615
1772902358047244800,6.704244873046875,-0.0669925212860107,0.0009822845458984,0.0027251541614532,-0.0041233371011912,0.0077885258942842,-0.006566796451807
1772902358066231800,6.723231689453125,-0.0591456890106201,0.0068216323852539,-0.0115538239479064,-0.0071776611730456,0.0114537142217159,-0.0120645789429545
1772902358085218800,6.74221875,0.0613033771514892,0.0373706817626953,-0.1519787907600402,0.0025961752980947,-0.0264199022203683,-0.0138971740379929
1772902358104205800,6.761205810546875,0.0767037868499755,-0.0130243301391601,-0.0682482719421386,0.0148134706541895,-0.0251981727778911,-0.0022907429374754
1772902358123192800,6.78019287109375,0.048344612121582,0.0079965591430664,0.0804325640201568,0.0056504993699491,-0.0209221187978982,0.0056504993699491
1772902358142179800,6.799179931640625,-0.0457053184509277,-0.0414676666259765,0.072082906961441,-0.0114537142217159,0.0077885258942842,0.0038179049734026
1772902358161166800,6.818166748046875,-0.1009864807128906,-0.0625886917114257,-0.0412585735321044,-0.0151189034804701,0.0230601448565721,-0.0132863093167543
1772902358180153900,6.83715380859375,-0.0212042331695556,0.0247049331665039,-0.1946581900119781,0.0025961752980947,0.0163406319916248,-0.0193949565291404
1772902358199140900,6.856140869140625,0.0584998130798339,0.0643587112426757,-0.1700221002101898,0.0203112531453371,-0.0117591470479965,-0.0090102553367614
1772902358218128000,6.8751279296875,0.0035414695739746,-0.0097255706787109,-0.000675082206726,0.0190895237028598,-0.0203112531453371,-0.0035124723799526
1772902358237115000,6.894114990234375,-0.0723788738250732,-0.0110034942626953,0.1606372594833374,-0.0010690133785828,-0.0178677942603826,-0.0090102553367614
1772902358256102000,6.913101806640625,-0.0815644264221191,-0.0004587173461914,0.1009382605552673,-0.0120645789429545,0.0126754445955157,-0.0145080387592315
1772902358275089000,6.9320888671875,-0.0250589847564697,0.0171747207641601,-0.0106239914894104,-0.0102319847792387,0.0432186834514141,-0.0145080387592315
1772902358294076000,6.951075927734375,0.1047472953796386,0.0287246704101562,-0.0893228352069854,-0.0004581485991366,0.027336198836565,-0.009621120058
1772902358313062700,6.970062744140625,0.1198720932006836,0.0202493667602539,-0.0903673470020294,0.0038179049734026,0.009621120058,0.0044287694618105
1772902358332050000,6.9890498046875,0.0616171360015869,0.0190868377685546,-0.0440112650394439,0.0068722288124263,-0.0013744457392022,0.0117591470479965
1772902358351037000,7.008036865234375,-0.0201060771942138,-0.017338752746582,0.0194276273250579,0.009315688163042,0.009621120058,0.0099265528842806
1772902358370024000,7.02702392578125,-0.0223119258880615,-0.0336723327636718,0.1102625727653503,-0.0010690133785828,0.027336198836565,0.0087048234418034
1772902358389010700,7.0460107421875,-0.0316555500030517,-0.0515480041503906,0.0676261186599731,-0.0077885258942842,0.0346665754914283,0.0080939587205648
1772902358407997700,7.064997802734375,-0.0247080326080322,-0.0058813095092773,-0.0396313071250915,-0.0010690133785828,0.0291687939316034,0.0050396346487104
1772902358426984700,7.083984619140625,0.0126376152038574,0.0266180038452148,-0.0193116664886474,0.0080939587205648,0.0114537142217159,0.0080939587205648
1772902358445971700,7.1029716796875,0.0470297336578369,0.0155525207519531,0.0293731093406677,0.0056504993699491,-0.0062613640911877,0.0166460648179054
1772902358464958700,7.121958740234375,0.0116913318634033,0.0161161422729492,0.0461017489433288,0.0019853105768561,-0.0050396346487104,0.0227547138929367
1772902358483945700,7.14094580078125,-0.0314521789550781,-0.0015392303466796,0.0682781636714935,-0.002901607658714,0.0016798780998215,0.0184786599129438
1772902358502932700,7.1599326171875,-0.0400764942169189,-0.0325889587402343,0.0225946307182312,-0.002901607658714,0.0090102553367614,0.0111482823267579
1772902358521919700,7.178919677734375,-0.0232477188110351,-0.0178413391113281,-0.0244898498058319,0.0001527161948615,0.0059559317305684,0.0062613640911877
1772902358540906800,7.19790673828125,0.0037155151367187,0.0010185241699218,-0.031575471162796,0.0025961752980947,-0.0135917412117123,0.0056504993699491
1772902358559893800,7.216893798828125,0.0213890075683593,-0.0092182159423828,-0.0108454227447509,0.0013744457392022,-0.0117591470479965,0.0105374176055192
1772902358578880800,7.235880859375,-0.0523521900177001,0.0021476745605468,0.0404652059078216,-0.0004581485991366,-0.009315688163042,0.0074830935336649
1772902358597867800,7.25486767578125,-0.099778413772583,0.0019407272338867,0.0388605892658233,0.0001527161948615,-0.0074830935336649,-0.0041233371011912
1772902358616854800,7.273854736328125,-0.0253443717956542,-0.014073371887207,0.0280915796756744,-0.002901607658714,-0.0074830935336649,-0.0047342018224298
1772902358635841800,7.292841796875,0.0358459949493408,-0.0113468170166015,0.0135522186756134,-0.0059559317305684,-0.0087048234418034,0.0019853105768561
1772902358654828800,7.311828857421875,0.0048587322235107,-0.0091514587402343,0.0214396715164184,-0.0071776611730456,-0.0013744457392022,0.0056504993699491
1772902358673815800,7.33081591796875,-0.0537028312683105,0.0029773712158203,-0.032025933265686,-0.002901607658714,0.0035124723799526,-0.0022907429374754
1772902358692802600,7.349802490234375,-0.023076057434082,0.0203962326049804,-0.0472535789012908,0.0001527161948615,-0.0044287694618105,-0.0108428495004773
1772902358711789800,7.368789794921875,0.0365245342254638,0.0106191635131835,-0.0303776562213897,0.0032070400193333,-0.009315688163042,-0.0047342018224298
1772902358730776800,7.38777685546875,0.0307919979095459,0.0099468231201171,-0.0090393126010894,0.0019853105768561,-0.0099265528842806,0.0032070400193333
1772902358749763800,7.406763916015625,0.0332894325256347,0.0161476135253906,0.0185791254043579,0.0013744457392022,-0.0019853105768561,0.0105374176055192
1772902358768750600,7.42575048828125,-0.0261158943176269,0.005537986755371,0.029885858297348,-0.0010690133785828,0.0077885258942842,0.0117591470479965
1772902358787737600,7.444737548828125,-0.0173285007476806,0.047433853149414,-0.0723022818565368,0.0050396346487104,-0.0099265528842806,0.0056504993699491
1772902358806724600,7.463724609375,-0.0139884948730468,-0.012801170349121,-0.0676071345806121,0.0129808764904737,-0.0160352010279893,0.0038179049734026
1772902358825711600,7.482711669921875,0.0147557258605957,-0.0261287689208984,0.052994430065155,0.0062613640911877,-0.0184786599129438,0.0032070400193333
1772902358844698600,7.50169873046875,-0.0391638278961181,-0.050948143005371,0.0868522524833679,-0.0077885258942842,0.0059559317305684,0.0013744457392022
1772902358863685600,7.520685546875,-0.0408182144165039,-0.0180797576904296,0.0146223008632659,-0.0126754445955157,0.0193949565291404,-0.0083993906155228
1772902358882672600,7.539672607421875,0.0362007617950439,0.0806846618652343,-0.169580191373825,0.0068722288124263,0.0053450670093297,-0.0059559317305684
1772902358901659600,7.55865966796875,0.1054840087890625,0.0562629699707031,-0.1823770105838775,0.0288633611053228,-0.0209221187978982,0.0087048234418034
1772902358920646700,7.577646728515625,0.0102162361145019,-0.0513200759887695,0.038525104522705,0.0276416316628456,-0.0349720083177089,0.0123700117692351
1772902358939633700,7.596633544921875,-0.1017382144927978,-0.0587940216064453,0.1826774030923843,0.0062613640911877,-0.0227547138929367,-0.0035124723799526
1772902358958620700,7.61562060546875,-0.0911433696746826,0.0024290084838867,0.1659785062074661,-0.0102319847792387,0.0083993906155228,-0.0151189034804701
1772902358977607700,7.634607666015625,0.0146543979644775,0.0145845413208007,0.0073941946029663,-0.0102319847792387,0.0291687939316034,-0.0114537142217159
1772902358996594700,7.6535947265625,0.1233847141265869,0.0071182250976562,-0.1148233711719513,0.0013744457392022,0.0138971740379929,0.0013744457392022
1772902359015581700,7.672581787109375,0.0785415172576904,0.011240005493164,-0.1099512875080108,0.0117591470479965,-0.0080939587205648,0.0087048234418034
1772902359034568700,7.691568603515625,-0.0330214500427246,0.047551155090332,-0.0490650534629821,0.0160352010279893,-0.0239764433354139,0.0038179049734026
1772902359053555700,7.7105556640625,-0.0464584827423095,0.0228185653686523,0.0538487434387207,0.0129808764904737,-0.0184786599129438,-0.002901607658714
1772902359072542700,7.729542724609375,-0.0221180915832519,-0.0386934280395507,0.1163903176784515,0.0025961752980947,0.0108428495004773,0.0007635809597559
1772902359091529700,7.74852978515625,0.0234875679016113,-0.0190143585205078,0.0770643353462219,-0.0035124723799526,0.0279470644891262,0.0025961752980947
1772902359110516700,7.767516845703125,0.0302634239196777,-0.0049610137939453,-0.0196414589881896,0.0019853105768561,0.0230601448565721,0.0032070400193333
1772902359129503500,7.78650341796875,-0.0149610042572021,-0.0328254699707031,-0.0379986464977264,0.0087048234418034,0.0022907429374754,-0.0022907429374754
1772902359148490500,7.805490478515625,-0.0250062942504882,-0.024062156677246,0.0191838145256042,0.0099265528842806,-0.0154243353754282,-0.009621120058
1772902359167477500,7.8244775390625,0.0209763050079345,0.0312232971191406,0.0704337060451507,0.0044287694618105,-0.0129808764904737,-0.006566796451807
1772902359186464500,7.843464599609375,0.0243980884552001,0.0284061431884765,0.1148653924465179,-0.002901607658714,-0.0001527161948615,-0.0022907429374754
1772902359224438000,7.88143798828125,-0.0046391487121582,0.0213518142700195,-0.0025676786899566,-0.0053450670093297,0.0083993906155228,0.0007635809597559
1772902359243425000,7.900425048828125,0.0326700210571289,-0.0147724151611328,-0.0301977097988128,-0.0022907429374754,-0.0056504993699491,0.0007635809597559
1772902359262412000,7.919412109375,0.008336067199707,-0.0212526321411132,0.0005870759487152,-0.0010690133785828,-0.0160352010279893,-0.0004581485991366
1772902359281399000,7.93839892578125,-0.0203189849853515,0.0006895065307617,0.0112114250659942,-0.0022907429374754,-0.0190895237028598,-0.0022907429374754
1772902359300386000,7.957385986328125,0.0125832557678222,-0.0060997009277343,0.0289515852928161,-0.0022907429374754,-0.0178677942603826,-0.0016798780998215
1772902359319373000,7.976373046875,0.0170977115631103,0.0171537399291992,0.0130449533462524,0.0007635809597559,-0.0166460648179054,0.0032070400193333
1772902359338360000,7.995360107421875,-0.0222139358520507,-0.0185394287109375,0.0235594809055328,0.0013744457392022,-0.0050396346487104,0.0050396346487104
1772902359357347000,8.01434716796875,-0.0582575798034668,-0.0062208175659179,0.0319302976131439,-0.0010690133785828,-0.0044287694618105,-0.0016798780998215
1772902359376334000,8.033333984375,-0.020015001296997,0.0153627395629882,-0.0089918076992034,-0.0022907429374754,-0.0099265528842806,-0.0053450670093297
1772902359395321000,8.052321044921875,0.040928840637207,0.0380630493164062,-0.028171420097351,-0.0010690133785828,-0.0190895237028598,0.0013744457392022
1772902359414308000,8.07130810546875,0.0195479393005371,0.0201320648193359,-0.0306365191936492,0.0013744457392022,-0.0221438482403755,0.0087048234418034
1772902359433295000,8.090295166015625,-0.0403203964233398,-0.0205507278442382,-0.0266216695308685,0.0038179049734026,-0.0148134706541895,0.0062613640911877
1772902359452282000,8.1092822265625,-0.0483012199401855,-0.017251968383789,-0.0061210095882415,-0.0004581485991366,-0.0135917412117123,-0.0016798780998215
1772902359471269000,8.12826904296875,0.0041651725769042,-0.014052391052246,-0.0038813352584838,-0.0022907429374754,-0.0019853105768561,-0.0053450670093297
1772902359490256100,8.147256103515625,0.046358585357666,0.027714729309082,0.0082157254219055,-0.0053450670093297,-0.0080939587205648,0.0074830935336649
1772902359509243100,8.1662431640625,-0.0002400875091552,0.0724763870239257,-0.0954810976982116,0.0074830935336649,0.0022907429374754,0.0111482823267579
1772902359528230000,8.18522998046875,-0.0470244884490966,0.0111246109008789,-0.0253118872642517,0.0050396346487104,0.0041233371011912,0.0135917412117123
1772902359547217200,8.204217041015625,-0.1088454723358154,-0.0223064422607421,0.0272281169891357,-0.0047342018224298,0.0120645789429545,0.009315688163042
1772902359566204200,8.2232041015625,-0.1137313842773437,-0.0302076339721679,-0.0230846405029296,-0.0071776611730456,0.0151189034804701,0.0007635809597559
1772902359585191000,8.24219091796875,-0.0053517818450927,-0.0126676559448242,-0.1154466271400451,0.0038179049734026,0.0047342018224298,-0.0004581485991366
1772902359604178000,8.261177978515626,0.0542154312133789,0.0384702682495117,-0.1045775115489959,0.0166460648179054,-0.0068722288124263,0.0099265528842806
1772902359623165000,8.2801650390625,0.0152580738067626,-0.0059547424316406,0.0874889492988586,0.0135917412117123,-0.0019853105768561,0.0160352010279893
1772902359642152000,8.29915185546875,-0.0203592777252197,-0.003610610961914,0.1259236931800842,0.0032070400193333,0.0108428495004773,0.009315688163042
1772902359661139000,8.318138916015625,-0.0159351825714111,-0.0014162063598632,0.1068895459175109,-0.0077885258942842,0.0157297682017087,0.0068722288124263
1772902359680126000,8.3371259765625,-0.0378482341766357,0.0097885131835937,0.0054655671119689,-0.0108428495004773,0.0151189034804701,0.0068722288124263
1772902359699113000,8.356113037109376,-0.0626366138458252,-0.0523529052734375,0.0219459533691406,-0.0138971740379929,0.0004581485991366,-0.0077885258942842
1772902359718100000,8.375099853515625,0.0404589176177978,0.0294246673583984,-0.083648532629013,-0.002901607658714,-0.0135917412117123,-0.006566796451807
1772902359737087000,8.3940869140625,0.0814099311828613,0.0681295394897461,-0.0113949179649353,-0.0016798780998215,-0.0160352010279893,0.0050396346487104
1772902359756074000,8.413073974609375,0.128047227859497,0.0278692245483398,-0.0004663467407226,0.0007635809597559,-0.0233655776828527,0.0166460648179054
1772902359775061000,8.43206103515625,0.0258169174194335,-0.0744771957397461,0.0036624073982238,0.0019853105768561,-0.0019853105768561,0.0258090365678071
1772902359794048000,8.451048095703126,-0.0422325134277343,-0.0680456161499023,-0.0390140712261199,0.0013744457392022,-0.0160352010279893,0.0117591470479965
1772902359813035000,8.470034912109375,-0.042954683303833,-0.0122156143188476,-0.058542251586914,0.0080939587205648,-0.0184786599129438,-0.0016798780998215
1772902359832022000,8.48902197265625,-0.0093355178833007,0.0348768234252929,0.0038404762744903,0.0105374176055192,-0.0160352010279893,-0.0022907429374754
1772902359851009000,8.508009033203125,0.0091876983642578,0.0080146789550781,0.0624306797981262,0.0074830935336649,-0.0068722288124263,-0.0016798780998215
1772902359869996000,8.52699609375,0.0114557743072509,0.0263938903808593,0.0997706353664398,0.0013744457392022,0.0132863093167543,0.0001527161948615
1772902359888983000,8.545983154296875,-0.0193939208984375,0.0017948150634765,0.0750670135021209,-0.009621120058,0.0193949565291404,0.0007635809597559
1772902359907970000,8.564969970703125,0.0039880275726318,0.0019960403442382,0.0009831190109252,-0.0126754445955157,0.0108428495004773,-0.0041233371011912
1772902359926957000,8.58395703125,0.0454094409942626,-0.0279712677001953,-0.0768695473670959,-0.0041233371011912,-0.0007635809597559,-0.0035124723799526
1772902359945944000,8.602944091796875,0.0532116889953613,-0.0158090591430664,-0.0890998244285583,0.0080939587205648,-0.0050396346487104,0.0025961752980947
1772902359964930800,8.621930908203124,0.0268428325653076,-0.0086145401000976,0.0125319957733154,0.0062613640911877,-0.0099265528842806,0.0062613640911877
1772902359983917800,8.640917724609375,-0.0389983654022216,0.0196847915649414,0.0184563994407653,-0.0010690133785828,-0.0123700117692351,0.0019853105768561
1772902360002904800,8.65990478515625,-0.0685963630676269,0.0238494873046875,0.0296411216259002,-0.0053450670093297,-0.0068722288124263,-0.0071776611730456
1772902360021892000,8.67889208984375,-2.50339508056e-05,0.0026702880859375,0.0059934556484222,-0.006566796451807,-0.0025961752980947,-0.0083993906155228
1772902360040878800,8.69787890625,0.01088547706604,-0.0066690444946289,-0.0305094122886657,-0.0035124723799526,0.0071776611730456,-0.0022907429374754
1772902360059865900,8.716865966796876,-0.0201976299285888,-0.0390281677246093,-0.0333299934864044,-0.0016798780998215,0.006566796451807,-0.0010690133785828
1772902360078852900,8.735852783203125,-0.0724000930786132,-0.032973289489746,-0.0508328676223754,0.0001527161948615,-0.0001527161948615,-0.0108428495004773
1772902360097839900,8.75483984375,-0.0688250064849853,-0.00958251953125,-0.0355910658836364,0.0038179049734026,-0.0019853105768561,-0.0230601448565721
1772902360116827000,8.773826904296875,0.0036251544952392,-0.0008869171142578,-0.0216498374938964,0.0044287694618105,-0.0044287694618105,-0.0267253331840038
1772902360135814000,8.79281396484375,0.0579638481140136,0.0397233963012695,-0.0100579261779785,0.0001527161948615,-0.0074830935336649,-0.0187840927392244
1772902360154801000,8.81180078125,0.080420970916748,0.0432510375976562,0.0827798843383789,-0.009621120058,0.0108428495004773,-0.0022907429374754
1772902360173788000,8.830787841796875,0.0084021091461181,0.088357925415039,0.0557465851306915,-0.016951497644186,0.0267253331840038,0.0044287694618105
1772902360192775000,8.84977490234375,0.0070278644561767,0.0358753204345703,-0.0526720285415649,-0.0114537142217159,0.0108428495004773,0.0062613640911877
1772902360211762000,8.868761962890625,0.0056014060974121,-0.0424880981445312,-0.0985950827598571,-0.002901607658714,-0.0105374176055192,0.0062613640911877
1772902360230749000,8.8877490234375,-0.0101587772369384,-0.080902099609375,-0.0381395816802978,0.0025961752980947,-0.0178677942603826,0.0062613640911877
1772902360249736000,8.90673583984375,-0.1151595115661621,-0.0963287353515625,0.0498826205730438,-0.0053450670093297,0.0010690133785828,-0.0071776611730456
1772902360268722700,8.92572265625,-0.0961391925811767,-0.0241918563842773,-0.003781646490097,-0.0059559317305684,0.0206166859716177,-0.0242818742990493
1772902360287710000,8.9447099609375,0.0524642467498779,0.110447883605957,-0.0747599899768829,0.0044287694618105,0.0224492810666561,-0.0181732270866632
1772902360306697000,8.963697021484375,0.1295511722564697,0.0645036697387695,-0.0450324416160583,0.0105374176055192,0.0114537142217159,0.0050396346487104
1772902360325684000,8.98268408203125,0.0766615867614746,-0.0111618041992187,0.0654362738132476,0.0019853105768561,0.0010690133785828,0.0184786599129438
1772902360344670700,9.001670654296875,-0.1030976772308349,-0.0490732192993164,0.0827606916427612,-0.0053450670093297,0.0151189034804701,0.0111482823267579
1772902360363657700,9.02065771484375,-0.1535801887512207,-0.0518341064453125,0.0263707339763641,-0.0059559317305684,0.0297796577215194,-0.0108428495004773
1772902360382645000,9.03964501953125,-0.0349407196044921,-0.0187444686889648,-0.0383324921131134,0.0032070400193333,0.0261144693940877,-0.0218384154140949
1772902360401632000,9.058632080078125,0.1297597885131836,0.0057086944580078,-0.0565424859523773,0.0117591470479965,0.0059559317305684,-0.0083993906155228
1772902360420618800,9.07761865234375,0.1771717071533203,0.0329723358154296,-0.0199179649353027,0.0142026059329509,-0.0227547138929367,0.0080939587205648
1772902360439605800,9.096605712890623,0.0710422992706298,0.0585222244262695,0.0377172231674194,0.0105374176055192,-0.0258090365678071,0.0190895237028598
1772902360458592800,9.1155927734375,-0.0353367328643798,0.0391817092895507,0.1426428109407425,-0.0004581485991366,-0.0038179049734026,0.0154243353754282
1772902360477579800,9.134579833984375,-0.0654628276824951,-0.0438356399536132,0.0925596803426742,-0.0090102553367614,0.0114537142217159,0.0025961752980947
1772902360496566800,9.15356689453125,0.0093026161193847,-0.0421380996704101,0.0177529752254486,-0.0132863093167543,0.0151189034804701,-0.0016798780998215
1772902360515553800,9.1725537109375,0.0160012245178222,-0.0549697875976562,-0.0624215900897979,-0.0077885258942842,0.0053450670093297,0.0025961752980947
1772902360534540800,9.191540771484377,-0.0194466114044189,-0.013681411743164,-0.1118408143520355,0.0032070400193333,-0.0105374176055192,-0.0004581485991366
1772902360553527800,9.21052783203125,-0.038405418395996,0.0241622924804687,-0.0266516804695129,0.009315688163042,-0.0203112531453371,-0.0053450670093297
1772902360572514800,9.229514892578123,0.0110716819763183,0.0302677154541015,0.0564873218536376,0.0038179049734026,-0.0062613640911877,-0.0016798780998215
1772902360591501800,9.248501708984374,0.0393285751342773,0.0058794021606445,0.0947627276182174,-0.0035124723799526,0.0132863093167543,0.0050396346487104
1772902360610488800,9.26748876953125,0.0445921421051025,-0.0020914077758789,0.0406937599182128,-0.0083993906155228,0.027336198836565,0.0123700117692351
1772902360629475800,9.286475830078125,0.0333600044250488,-0.0327434539794921,-0.0142170190811157,-0.0077885258942842,0.0206166859716177,0.0105374176055192
1772902360648462800,9.305462890625,-0.0348873138427734,-0.0459632873535156,-0.0357193350791931,0.0001527161948615,0.0090102553367614,-0.0010690133785828
1772902360667449900,9.324449951171877,-0.0184934139251709,-0.0069561004638671,-0.0397983789443969,0.0038179049734026,-0.0019853105768561,-0.0071776611730456
1772902360686436900,9.343436767578124,0.0210189819335937,0.0120353698730468,0.0238554775714874,0.0019853105768561,0.0016798780998215,-0.002901607658714
1772902360705424000,9.362423828125,0.0092113018035888,0.0302791595458984,0.0676871538162231,-0.0053450670093297,-0.0001527161948615,0.0032070400193333
1772902360724411000,9.381410888671876,-0.0002632141113281,0.0012321472167968,0.0058244466781616,-0.0053450670093297,-0.0068722288124263,0.0019853105768561
1772902360743398000,9.40039794921875,-0.0002024173736572,-0.019683837890625,0.0083397626876831,-0.0016798780998215,-0.0038179049734026,-0.0004581485991366
1772902360762385000,9.419385009765625,0.0159432888031005,-0.0188369750976562,0.0223797261714935,-0.0022907429374754,-0.0025961752980947,-0.002901607658714
1772902360781371600,9.43837158203125,0.0069415569305419,0.0385141372680664,-0.0032980442047119,-0.0035124723799526,-0.0099265528842806,-0.0083993906155228
1772902360800358700,9.457358642578123,0.0684926509857177,0.0492773056030273,-0.0053294599056243,-0.006566796451807,-0.0184786599129438,-0.0041233371011912
1772902360819346000,9.476345947265624,0.059819221496582,-0.0085229873657226,-0.0187346041202545,-0.0083993906155228,-0.0111482823267579,0.0062613640911877
1772902360838333000,9.4953330078125,-0.0037496089935302,-0.0158071517944335,-0.0338658988475799,-0.0035124723799526,-0.0038179049734026,0.0080939587205648
1772902360857319700,9.514319580078125,-0.0634293556213378,-0.0339231491088867,-0.0437108278274536,0.0019853105768561,0.0120645789429545,0.0044287694618105
1772902360876306700,9.533306640625,-0.0495262145996093,-0.0348768234252929,8.58902931213e-05,-0.0010690133785828,0.009621120058,-0.0004581485991366
1772902360895293700,9.552293701171877,0.0051043033599853,0.0223855972290039,-0.0747737288475036,0.0032070400193333,-0.0068722288124263,-0.0047342018224298
1772902360914280700,9.57128076171875,0.0655946731567382,0.0262556076049804,0.0036805868148803,0.0044287694618105,-0.0074830935336649,0.0025961752980947
1772902360933267700,9.590267822265623,0.0533976554870605,0.0013456344604492,0.1140413433313369,-0.0059559317305684,0.0187840927392244,0.0154243353754282
1772902360952254700,9.609254638671874,-0.0535151958465576,-0.0478448867797851,0.0822530090808868,-0.0175623632967472,0.0444404110312461,0.0087048234418034
1772902360971241700,9.62824169921875,-0.0585038661956787,0.0054054260253906,-0.0717796683311462,-0.0151189034804701,0.0432186834514141,-0.0035124723799526
1772902360990228700,9.647228759765625,0.0202617645263671,0.044717788696289,-0.1535615921020507,0.0025961752980947,0.0212275516241788,0.0019853105768561
1772902361009215700,9.6662158203125,0.0488767623901367,0.0265922546386718,-0.0918810665607452,0.0142026059329509,0.0022907429374754,0.0111482823267579
1772902361028202800,9.68520263671875,-0.0135993957519531,-0.0470132827758789,0.0558569729328155,0.0087048234418034,-0.0025961752980947,0.0129808764904737
1772902361047189800,9.704189697265624,-0.0954656600952148,-0.0367326736450195,0.1598532497882843,-0.009621120058,0.0108428495004773,0.0056504993699491
1772902361066176800,9.7231767578125,-0.0900249481201171,0.0040559768676757,0.0581280589103698,-0.0181732270866632,0.0200058221817016,-0.0053450670093297
1772902361085163800,9.742163818359376,-0.0563697814941406,0.0021867752075195,-0.0803964138031005,-0.0083993906155228,0.0212275516241788,-0.0145080387592315
1772902361104150800,9.76115087890625,0.050544261932373,0.0052080154418945,-0.0720185935497284,0.0007635809597559,0.0047342018224298,-0.0132863093167543
1772902361123137800,9.7801376953125,0.1156706809997558,0.0399436950683593,-0.058318018913269,-0.0022907429374754,-0.0142026059329509,-0.0010690133785828
1772902361142124800,9.799124755859374,0.0715000629425048,0.0402374267578125,0.0036235749721527,-0.0047342018224298,-0.0123700117692351,0.0160352010279893
1772902361161111800,9.81811181640625,-0.0329303741455078,0.0405664443969726,0.0158110857009887,-0.0022907429374754,0.0022907429374754,0.0160352010279893
1772902361180098800,9.837098876953124,-0.1115097999572753,-0.0082511901855468,0.0237598121166229,-0.0022907429374754,0.0236710105091333,0.0056504993699491
1772902361199085800,9.8560859375,-0.0823919773101806,-0.0214395523071289,-0.0028032064437866,-0.0047342018224298,0.0279470644891262,-0.006566796451807
1772902361218072800,9.87507275390625,-0.0272295475006103,-0.0250892639160156,-0.0949122011661529,0.0050396346487104,0.0163406319916248,-0.0053450670093297
1772902361237059600,9.8940595703125,0.0341486930847168,-0.0103530883789062,-0.0537853837013244,0.0148134706541895,-0.0001527161948615,0.0019853105768561
1772902361256046800,9.913046875,-0.0106849670410156,0.0109491348266601,0.0620028674602508,0.0148134706541895,-0.0001527161948615,0.0056504993699491
1772902361275033900,9.932033935546874,-0.0329241752624511,0.0222320556640625,0.1312736570835113,0.0032070400193333,0.0071776611730456,0.0019853105768561
1772902361294020600,9.9510205078125,0.0127596855163574,0.0167856216430664,0.1070862263441085,-0.0090102553367614,0.0035124723799526,0.0007635809597559
1772902361313007600,9.970007568359376,0.0250270366668701,-0.0122489929199218,0.0598690211772918,-0.0138971740379929,0.0102319847792387,0.0087048234418034
1772902361331994600,9.98899462890625,0.0192160606384277,-0.0122690200805664,-0.005035787820816,-0.0090102553367614,0.0053450670093297,0.0117591470479965
1772902361350982000,10.00798193359375,-0.0148713588714599,-0.0146446228027343,-0.0320151150226593,-0.0004581485991366,0.0004581485991366,0.0068722288124263
1772902361369968600,10.02696875,-0.0141091346740722,-0.0143375396728515,0.0318836569786071,-0.002901607658714,-0.009315688163042,-0.0010690133785828
1772902361388955600,10.04595556640625,0.0070765018463134,-0.008793830871582,0.0145879983901977,-0.0077885258942842,-0.0184786599129438,0.0007635809597559
1772902361407942700,10.064942626953124,0.0187318325042724,0.0006771087646484,0.002634584903717,-0.0071776611730456,-0.0258090365678071,0.0038179049734026
1772902361426929700,10.0839296875,0.0164737701416015,-0.0042324066162109,-0.0188699662685394,-0.0022907429374754,-0.0209221187978982,0.0050396346487104
1772902361445916700,10.102916748046876,-0.006493330001831,-0.0181436538696289,0.0119962990283966,-0.0022907429374754,-0.0038179049734026,0.0050396346487104
1772902361464903700,10.121903564453126,-0.0314493179321289,0.0056982040405273,0.0003040730953216,-0.0047342018224298,0.0016798780998215,0.0013744457392022
1772902361483890700,10.140890625,-0.0232882499694824,-0.0155611038208007,-0.0336386561393737,-0.0041233371011912,0.0071776611730456,-0.002901607658714
1772902361502877700,10.159877685546874,-0.002286672592163,0.0156631469726562,-0.0460170805454254,0.0007635809597559,0.0047342018224298,-0.0071776611730456
1772902361521864700,10.17886474609375,0.0580527782440185,0.0202836990356445,-0.0403031408786773,0.0032070400193333,-0.0007635809597559,-0.0041233371011912
1772902361540851700,10.197851806640625,0.0729436874389648,-0.0014524459838867,0.030708223581314,0.0013744457392022,-0.0007635809597559,0.0074830935336649
1772902361559838700,10.216838623046876,0.0308051109313964,-0.0163946151733398,0.0373925268650054,-0.002901607658714,0.0047342018224298,0.0160352010279893
1772902361578825700,10.23582568359375,-0.0754826068878173,-0.0397319793701171,0.0731700360774993,-0.0102319847792387,0.0132863093167543,0.0080939587205648
1772902361597812700,10.254812744140626,-0.0920276641845703,0.0061321258544921,-0.0419389903545379,-0.0071776611730456,-0.0001527161948615,-0.0059559317305684
1772902361616799700,10.2737998046875,0.0261046886444091,0.0179529190063476,-0.0589132606983184,0.0025961752980947,-0.0080939587205648,-0.009621120058
1772902361635786800,10.292786865234374,0.1207759380340576,0.0336771011352539,0.0074564218521118,0.0025961752980947,-0.0105374176055192,0.0038179049734026
1772902361654773800,10.311773681640624,0.0536479949951171,-0.0149173736572265,0.0897691249847412,-0.0083993906155228,0.009621120058,0.0166460648179054
1772902361673760800,10.3307607421875,-0.0816497802734375,-0.0399351119995117,0.0204081535339355,-0.0181732270866632,0.0206166859716177,0.0038179049734026
1772902361692747800,10.349747802734376,-0.0546023845672607,0.0320281982421875,-0.1505744457244873,-0.0022907429374754,0.0145080387592315,-0.0108428495004773
1772902361711734800,10.36873486328125,0.0328481197357177,0.035597801208496,-0.1799612045288086,0.0203112531453371,0.0077885258942842,-0.0016798780998215
1772902361730721800,10.3877216796875,0.0560483932495117,-0.0222530364990234,0.0232076942920684,0.0178677942603826,-0.0117591470479965,0.009315688163042
1772902361749708500,10.40670849609375,-0.0442311763763427,-0.0448360443115234,0.1448066085577011,-0.0022907429374754,-0.0111482823267579,0.0087048234418034
1772902361768695800,10.42569580078125,-0.1356585025787353,-0.0155286788940429,0.1517805010080337,-0.0145080387592315,0.0163406319916248,-0.002901607658714
1772902361787682800,10.444682861328126,-0.0532577037811279,0.0255613327026367,-0.0076785683631896,-0.0120645789429545,0.0395534932613372,-0.0126754445955157
1772902361806669600,10.463669677734377,0.0684733390808105,0.0581378936767578,-0.0884515643119812,-0.0053450670093297,0.0303905233740806,-0.0071776611730456
1772902361825656600,10.482656494140626,0.1227362155914306,0.0606603622436523,-0.0964749157428741,-0.0010690133785828,-0.0001527161948615,0.0080939587205648
1772902361844643600,10.5016435546875,0.0461146831512451,0.0066566467285156,-0.0688186585903167,0.0056504993699491,-0.0123700117692351,0.0123700117692351
1772902361863630800,10.520630859375,-0.0468585491180419,-0.003514289855957,-0.0007892847061157,0.0087048234418034,0.0016798780998215,0.0080939587205648
1772902361882617600,10.53961767578125,-0.0534579753875732,-0.0315914154052734,0.0832400321960449,0.0001527161948615,0.0230601448565721,0.0050396346487104
1772902361901604600,10.5586044921875,-0.043933629989624,-0.0306158065795898,0.0952363312244415,-0.0108428495004773,0.0346665754914283,0.0044287694618105
1772902361920591600,10.577591552734376,-0.0237390995025634,-0.0064783096313476,-0.0284219682216644,-0.006566796451807,0.0224492810666561,-0.0010690133785828
1772902361939578600,10.59657861328125,-0.01678466796875,-0.0086908340454101,-0.0784587562084198,0.0087048234418034,0.0047342018224298,-0.0047342018224298
1772902361958565600,10.615565673828126,0.0038013458251953,-0.0155725479125976,0.0181111395359039,0.0099265528842806,-0.0001527161948615,-0.002901607658714
1772902361977552600,10.634552734375,0.0198509693145751,-0.017465591430664,0.0894471704959869,-0.002901607658714,-0.0025961752980947,0.0001527161948615
1772902361996539600,10.65353955078125,-0.0063300132751464,0.0018510818481445,0.0477497577667236,-0.0071776611730456,0.0047342018224298,-0.0010690133785828
1772902362015526700,10.672526611328124,0.0054385662078857,0.0182399749755859,0.0225132703781127,-0.0041233371011912,0.0193949565291404,-0.0016798780998215
1772902362034513700,10.691513671875,0.0124166011810302,-0.0031385421752929,-0.0068849921226501,-0.0016798780998215,0.0224492810666561,-0.0004581485991366
1772902362053500700,10.710500732421876,0.0171997547149658,-0.0008573532104492,-0.0479395389556884,-0.0022907429374754,0.0083993906155228,0.0025961752980947
1772902362072487700,10.72948779296875,-0.0095160007476806,0.0270967483520507,-0.0324650108814239,0.0019853105768561,-0.0087048234418034,-0.002901607658714
1772902362091474700,10.748474609375,-0.0196883678436279,0.0243988037109375,-0.0116476714611053,0.0056504993699491,-0.0135917412117123,-0.006566796451807
1772902362110461700,10.767461669921875,0.0196833610534667,0.0051326751708984,0.038431167602539,0.0025961752980947,-0.0142026059329509,-0.002901607658714
1772902362129448700,10.78644873046875,0.004981517791748,-0.0279188156127929,0.0393363833427429,-0.0022907429374754,-0.0056504993699491,0.0019853105768561
1772902362148435700,10.805435791015626,-0.0539765357971191,-0.0197629928588867,0.0271936357021331,-0.0047342018224298,0.0010690133785828,-0.0041233371011912
1772902362167422700,10.824422607421877,-0.0584094524383544,0.0121116638183593,-0.0225291550159454,-0.0004581485991366,-0.0013744457392022,-0.0126754445955157
1772902362186409700,10.84340966796875,0.0132715702056884,0.0171356201171875,-0.0221295356750488,0.0013744457392022,-0.0062613640911877,-0.0126754445955157
1772902362205396700,10.862396728515623,0.05275559425354,-0.0183649063110351,-0.0154346823692321,0.0025961752980947,-0.0111482823267579,-0.0071776611730456
1772902362224383700,10.8813837890625,0.024083137512207,-0.0033750534057617,-0.0442225039005279,0.0038179049734026,-0.0117591470479965,-0.0041233371011912
1772902362243370500,10.90037060546875,-0.0265262126922607,-0.0168848037719726,-0.0230289697647094,0.0050396346487104,-0.009315688163042,-0.0071776611730456
1772902362262357800,10.919357666015625,-0.0085322856903076,0.0051441192626953,-0.0166263282299041,0.0038179049734026,-0.0087048234418034,-0.0102319847792387
1772902362281344800,10.9383447265625,0.0303237438201904,-0.0014066696166992,-0.0076707899570465,0.0007635809597559,-0.0032070400193333,-0.0041233371011912
1772902362300331800,10.957331787109377,0.0198864936828613,0.0125198364257812,-0.0313686430454254,0.0025961752980947,-0.0038179049734026,0.0019853105768561
1772902362319318500,10.976318603515624,-0.0222105979919433,0.0030126571655273,-0.0314942896366119,0.0032070400193333,-0.0068722288124263,0.0013744457392022
1772902362338305800,10.995305908203123,-0.0524954795837402,-0.0130300521850585,0.0014892816543579,0.0038179049734026,-0.0044287694618105,-0.0077885258942842
1772902362357292800,11.014292724609374,-0.0345549583435058,0.037449836730957,-0.0280090272426605,0.0062613640911877,-0.0080939587205648,-0.0151189034804701
1772902362376279800,11.03327978515625,0.0558061599731445,0.0152473449707031,-0.024265706539154,0.0087048234418034,-0.0013744457392022,-0.0077885258942842
1772902362395266600,11.0522666015625,0.0839767456054687,-0.0016651153564453,0.055053025484085,0.0001527161948615,0.0010690133785828,0.0025961752980947
1772902362414253600,11.071253662109376,-0.0235359668731689,-0.0554723739624023,0.0238226950168609,-0.0077885258942842,0.0047342018224298,-0.0010690133785828
1772902362433240800,11.09024072265625,-0.107114553451538,-0.0481033325195312,-0.0696691572666168,-0.0004581485991366,0.0010690133785828,-0.0236710105091333
1772902362452227600,11.1092275390625,-0.0035743713378906,0.0247278213500976,-0.1844267845153808,0.0203112531453371,-0.0074830935336649,-0.0291687939316034
1772902362471214600,11.128214599609375,0.0576996803283691,0.045210838317871,-0.1360008120536804,0.0361937396228313,-0.0245873071253299,-0.0181732270866632
1772902362490201600,11.14720166015625,0.0386121273040771,0.0396089553833007,0.0159355401992797,0.0343611426651477,-0.0514653585851192,-0.0157297682017087
1772902362509188600,11.166188720703126,-0.0698297023773193,0.0206518173217773,0.1320448666810989,0.0251981727778911,-0.0435241162776947,-0.0261144693940877
1772902362528175600,11.185175537109377,0.0033237934112548,0.0472850799560546,0.1520505547523498,0.0087048234418034,-0.0105374176055192,-0.0230601448565721
1772902362547162600,11.20416259765625,0.0147011280059814,0.0210170745849609,0.0171756744384765,0.0184786599129438,0.0328339822590351,-0.0163406319916248
1772902362566149600,11.223149658203123,0.0603327751159668,-0.0274906158447265,0.001106858253479,0.0215329825878143,0.0823140293359756,0.0178677942603826
1772902362585136600,11.24213671875,0.2728075981140136,0.0301980972290039,-0.0046455562114715,-0.0016798780998215,-0.0203112531453371,0.0337502807378768
1772902362604123600,11.26112353515625,0.0579752922058105,-0.0058259963989257,-0.0618592202663421,-0.0022907429374754,-0.050854492932558,0.0423023849725723
1772902362623110700,11.280110595703125,-0.2223949432373047,-0.0166234970092773,-0.039809226989746,0.0111482823267579,-0.0410806573927402,0.0129808764904737
1772902362642097700,11.29909765625,-0.267573595046997,-0.0711202621459961,0.039430946111679,0.0105374176055192,-0.0282524954527616,-0.0334448479115963
1772902362661084700,11.318084716796877,-0.0844268798828125,-0.1176538467407226,0.107408732175827,-0.002901607658714,-0.0001527161948615,-0.0444404110312461
1772902362680071700,11.33707177734375,0.107011079788208,-0.090667724609375,0.0575271248817443,-0.0132863093167543,0.0206166859716177,-0.0212275516241788
