time,seconds_elapsed,acc_z,acc_y,acc_x,gyro_z,gyro_y,gyro_x
1772902400444240000,0.093239990234375,0.0,0.0,0.0,0.0203112531453371,-0.0923933014273643,0.0135917412117123
1772902400463227000,0.112226806640625,-0.0474936962127685,-0.0023393630981445,0.0536926090717315,0.0209221187978982,-0.0569631420075893,0.0258090365678071
1772902400482213600,0.131213623046875,-0.076484203338623,-0.0010223388671875,0.04570934176445,0.0080939587205648,-0.0380263328552246,0.0258090365678071
1772902400501200600,0.15020068359375,-0.1120798587799072,-0.0161247253417968,0.0842311084270477,-0.0083993906155228,-0.0129808764904737,0.0148134706541895
1772902400520187600,0.169187744140625,-0.1002893447875976,-0.0208253860473632,-0.0673368573188781,-0.0102319847792387,0.0010690133785828,0.0068722288124263
1772902400539174700,0.188174560546875,-0.070218801498413,0.0342607498168945,-0.0803500413894653,-0.0041233371011912,-0.0025961752980947,-0.0077885258942842
1772902400558161700,0.20716162109375,0.1315362453460693,0.0096750259399414,-0.0315864980220794,-0.0010690133785828,-0.0288633611053228,0.0074830935336649
1772902400577148700,0.226148681640625,0.0405805110931396,0.0251235961914062,-0.035661906003952,-0.0022907429374754,-0.0160352010279893,0.0117591470479965
1772902400596135700,0.2451357421875,-0.0064318180084228,0.0496625900268554,0.0818701386451721,-0.016951497644186,-0.0007635809597559,0.0068722288124263
1772902400615122700,0.264122802734375,0.1736350059509277,0.0145988464355468,0.0084700286388397,-0.0395534932613372,-0.0441349819302558,0.0478001683950424
1772902400634109700,0.283109619140625,0.2012779712677002,0.2006988525390625,0.0275255143642425,-0.0334448479115963,-0.0270307660102844,0.0594066008925437
1772902400653096400,0.302096435546875,0.1451196670532226,0.1183080673217773,0.315126359462738,-0.0853683501482009,-0.0203112531453371,0.088117241859436
1772902400672083500,0.32108349609375,-0.1129062175750732,0.1050329208374023,0.4915235340595245,-0.1580612659454345,0.0474947355687618,0.0844520553946495
1772902400691070500,0.340070556640625,-0.2185347080230713,-0.0149116516113281,0.2359171211719513,-0.2008218020200729,0.0676532760262489,0.0386371985077858
1772902400710057500,0.359057373046875,0.0749001502990722,0.0463600158691406,-0.0600615739822387,-0.1769980639219284,0.1623373180627823,0.0447458438575267
1772902400729044500,0.37804443359375,0.3210797309875488,-0.0266199111938476,-0.0104656219482421,-0.1562286615371704,0.2661843299865722,0.1003345400094986
1772902400748031500,0.397031494140625,0.4418807029724121,-0.0190963745117187,-0.1932477056980133,-0.1049160286784172,0.328492522239685,0.1809686869382858
1772902400767018500,0.4160185546875,0.4078261852264404,-0.201115608215332,-0.3100373744964599,-0.0499381944537162,0.3565923273563385,0.2628245651721954
1772902400786005500,0.435005615234375,0.1938929557800293,-0.2914876937866211,-0.3526568412780761,0.0050396346487104,0.3052796721458435,0.2890917658805847
1772902400804992500,0.453992431640625,0.1240866184234619,-0.2773847579956054,-0.3407623767852783,0.0636826530098915,0.2991710305213928,0.3159697949886322
1772902400823979300,0.472979248046875,0.0244085788726806,-0.2139225006103515,-0.5073153972625732,0.1125518381595611,0.2258672565221786,0.3342957496643066
1772902400842966300,0.49196630859375,-0.3213229179382324,-0.2910881042480469,-0.3678320050239563,0.1583666950464248,0.1708894222974777,0.304974228143692
1772902400861953300,0.510953369140625,-0.3275139331817627,-0.3119745254516601,-0.5838508009910583,0.2225074917078018,0.1195767819881439,0.2481638193130493
1772902400880940300,0.529940185546875,-0.2815074920654297,-0.1161355972290039,-0.3318905234336853,0.2573267817497253,0.0957530513405799,0.2255618125200271
1772902400899927300,0.54892724609375,-0.2092621326446533,-0.0074701309204101,-0.0796884894371032,0.2524398565292358,0.093920461833477,0.2243400961160659
1772902400918914300,0.567914306640625,-0.3844308853149414,-0.0710792541503906,-0.0319794416427612,0.2267835438251495,0.0548251122236251,0.1815795600414276
1772902400937901300,0.5869013671875,-0.4199326038360595,-0.0444240570068359,0.0141587853431701,0.2060141414403915,0.0181732270866632,0.1400407552719116
1772902400956888300,0.605888427734375,-0.3759267330169678,-0.006209373474121,-0.110492467880249,0.2078467458486557,0.0328339822590351,0.0972802191972732
1772902400975875300,0.624875244140625,-0.2797454595565796,0.0431470870971679,-0.0858737230300903,0.2102901935577392,0.0536033846437931,0.0618500597774982
1772902400994862000,0.643862060546875,-0.1506733894348144,0.121774673461914,-0.0811628401279449,0.2102901935577392,0.0346665754914283,0.0001527161948615
1772902401013849000,0.66284912109375,-0.1391572952270507,0.2422103881835937,0.1599003821611404,0.1736383140087127,0.016951497644186,-0.0566577091813087
1772902401032836000,0.681836181640625,-0.1627163887023925,0.2230854034423828,0.2420381009578704,0.119271345436573,-0.0117591470479965,-0.0902552679181099
1772902401051823000,0.700822998046875,-0.077695608139038,0.1453866958618164,0.2539373338222503,0.0667369738221168,-0.0184786599129438,-0.1293506175279617
1772902401070810000,0.71981005859375,-0.0842859745025634,0.0763273239135742,0.1370400488376617,0.0380263328552246,0.016951497644186,-0.1470656991004943
1772902401089797000,0.738797119140625,0.0245032310485839,0.063568115234375,0.0461529493331909,0.0325285494327545,0.0218384154140949,-0.1513417512178421
1772902401118277400,0.76727734375,0.0856258869171142,0.0113115310668945,-0.0468246489763259,0.0337502807378768,0.016951497644186,-0.1207985132932663
1772902401137264400,0.786264404296875,0.1173408031463623,0.0060625076293945,-0.0398040413856506,0.0294742248952388,-0.0300850905478,-0.0994182452559471
1772902401156251600,0.805251708984375,0.1015667915344238,-0.0260858535766601,0.0413266718387603,0.0117591470479965,-0.0771216750144958,-0.0798705667257309
1772902401175238400,0.82423828125,-0.1893970966339111,-0.0548810958862304,0.1720633804798126,-0.0138971740379929,-0.0826194584369659,-0.0829248949885368
1772902401194225400,0.843225341796875,-0.3148317337036133,-0.0903596878051757,0.0877768248319625,-0.0255036037415266,-0.0820086002349853,-0.1360701322555542
1772902401213212400,0.86221240234375,-0.2285549640655517,-0.0315132141113281,0.0233419984579086,-0.0303905233740806,-0.0826194584369659,-0.1696676909923553
1772902401232199400,0.881199462890625,-0.0470116138458251,0.0572977066040039,0.1322227716445922,-0.0395534932613372,-0.0532979518175125,-0.1745546162128448
1772902401251186400,0.9001865234375,0.1054346561431884,-0.0348386764526367,0.2558250725269317,-0.0670424103736877,-0.0343611426651477,-0.1580612659454345
1772902401270173400,0.91917333984375,0.073465347290039,0.0171117782592773,0.0937181189656257,-0.0762053802609443,-0.0325285494327545,-0.1385135948657989
1772902401289160400,0.938160400390625,0.0029401779174804,0.0086574554443359,0.0507834106683731,-0.0688750073313713,-0.0203112531453371,-0.1354592591524124
1772902401308147500,0.9571474609375,0.0874295234680175,0.0264759063720703,0.0055051743984222,-0.0572685748338699,-0.0166460648179054,-0.1232419684529304
1772902401327134500,0.976134521484375,0.1238954067230224,0.028472900390625,0.0281533747911453,-0.0517707914113998,-0.019700389355421,-0.0988073796033859
1772902401346121200,0.995121337890625,0.0882806777954101,0.0552616119384765,-0.0262969881296157,-0.0438295491039752,-0.0172569304704666,-0.0810922980308532
1772902401365108200,1.014108154296875,-0.0303776264190673,0.0554571151733398,-0.0544163435697555,-0.0334448479115963,0.0010690133785828,-0.073151059448719
1772902401384095200,1.03309521484375,-0.0178251266479492,-0.031813621520996,-0.0881481766700744,-0.0200058221817016,0.0120645789429545,-0.0652098134160041
1772902401403082200,1.052082275390625,0.0505862236022949,-0.0095548629760742,-0.1590785086154937,-0.0022907429374754,0.0352774411439895,-0.0456621423363685
1772902401422069200,1.0710693359375,0.0322751998901367,0.0106935501098632,-0.0518321692943573,-0.0041233371011912,0.0511599257588386,-0.027336198836565
1772902401441056300,1.09005615234375,0.0494108200073242,0.066868782043457,-0.1072872281074523,0.0032070400193333,0.0688750073313713,-0.0108428495004773
1772902401460043300,1.109043212890625,-0.0056242942810058,0.0111236572265625,-0.1457977592945099,0.0099265528842806,0.0884226784110069,0.0013744457392022
1772902401479030300,1.1280302734375,-0.0114943981170654,-0.031508445739746,-0.1035018563270568,0.0117591470479965,0.0914769992232322,0.0038179049734026
1772902401498017300,1.147017333984375,-0.0238840579986572,-0.0094232559204101,-0.0997734665870666,0.0117591470479965,0.1055268943309784,0.0025961752980947
1772902401517004300,1.16600439453125,-0.0878746509552002,0.0700340270996093,-0.0551907122135162,0.0001527161948615,0.0969747826457023,0.0007635809597559
1772902401535991000,1.184990966796875,-0.1493265628814697,0.0890817642211914,0.1152774691581726,-0.0285579282790422,0.0713184624910354,-0.0145080387592315
1772902401554978000,1.20397802734375,-0.0409498214721679,0.1013975143432617,-0.1491509974002838,-0.0279470644891262,0.0206166859716177,-0.0261144693940877
1772902401573965000,1.222965087890625,0.0177836418151855,0.1811037063598632,0.0243469476699829,-0.0248927399516105,0.0157297682017087,-0.0187840927392244
1772902401592952000,1.2419521484375,0.0730206966400146,0.0830936431884765,0.1569471508264541,-0.0536033846437931,-0.0227547138929367,0.0062613640911877
1772902401611939000,1.26093896484375,0.0104262828826904,0.0003719329833984,-0.0587824583053588,-0.0572685748338699,-0.0783434063196182,0.0068722288124263
1772902401630926000,1.279926025390625,-0.1701436042785644,-0.1642427444458007,-0.0722076892852783,-0.048105601221323,-0.088117241859436,-0.0212275516241788
1772902401649912800,1.298912841796875,-0.231199026107788,-0.1843643188476562,-0.0963653922080993,-0.0371100343763828,-0.1015562713146209,-0.0792597085237503
1772902401668900000,1.317900146484375,-0.1291024684906005,-0.1040153503417968,-0.1424525380134582,-0.0230601448565721,-0.1302669197320938,-0.0951421856880188
1772902401687887000,1.33688720703125,0.0668575763702392,-0.0162992477416992,-0.1772947311401367,-0.0120645789429545,-0.162031888961792,-0.0878118127584457
1772902401706873900,1.355873779296875,0.2184271812438964,0.1063499450683593,-0.063670128583908,-0.002901607658714,-0.1718057245016098,-0.0474947355687618
1772902401725860900,1.37486083984375,0.087937593460083,0.0654191970825195,0.029741883277893,-0.0059559317305684,-0.136986419558525,-0.0077885258942842
1772902401744848000,1.393847900390625,-0.1329782009124755,0.0172071456909179,0.0208620429039001,-0.0108428495004773,-0.0930041596293449,-0.0187840927392244
1772902401763835000,1.4128349609375,-0.0762777328491211,0.113560676574707,0.0637333691120147,-0.0181732270866632,-0.0649043843150138,-0.0297796577215194
1772902401782822000,1.43182177734375,0.0655524730682373,0.1692008972167968,0.0755175650119781,-0.0297796577215194,-0.0435241162776947,-0.0059559317305684
1772902401801809000,1.450808837890625,0.0528743267059326,0.0334367752075195,0.0369971394538879,-0.0303905233740806,-0.0514653585851192,0.0160352010279893
1772902401820796000,1.4697958984375,-0.0127985477447509,0.0172004699707031,-0.0962755382061004,-0.0200058221817016,-0.0734564885497093,0.0276416316628456
1772902401839783000,1.488782958984375,-0.0913639068603515,-0.0584936141967773,-0.1339063346385955,-0.0004581485991366,-0.1021671369671821,0.0154243353754282
1772902401858769700,1.507769775390625,-0.1079058647155761,-0.0879144668579101,-0.0434934794902801,0.0117591470479965,-0.0801760032773017,-0.0145080387592315
1772902401877756700,1.526756591796875,-0.0444891452789306,-0.1046400070190429,0.0694735646247863,0.0135917412117123,-0.0624609254300594,-0.0328339822590351
1772902401896743700,1.54574365234375,-0.0642066001892089,-0.0978631973266601,0.0213709473609924,0.0270307660102844,-0.0148134706541895,-0.0395534932613372
1772902401915730700,1.564730712890625,0.1160392761230468,0.0302085876464843,-0.0662078857421875,0.0435241162776947,-0.0117591470479965,-0.0322231166064739
1772902401934717700,1.5837177734375,0.0990772247314453,0.0151271820068359,-0.0069586932659149,0.0520762242376804,-0.0392480604350566,-0.009621120058
1772902401953704700,1.60270458984375,0.052819013595581,0.1224679946899414,0.016686737537384,0.0471893027424812,-0.0704021677374839,-0.006566796451807
1772902401972691500,1.62169140625,-0.0505478382110595,0.023259162902832,0.0713657736778259,0.0282524954527616,-0.0948367565870285,-0.0175623632967472
1772902401991678700,1.6406787109375,-0.1722786426544189,0.0563640594482421,0.1338488757610321,0.0080939587205648,-0.0978910773992538,-0.0407752245664596
1772902402010665500,1.65966552734375,-0.2218942642211914,0.1072664260864257,0.0113998055458068,0.0056504993699491,-0.1113301068544387,-0.0823140293359756
1772902402029652500,1.678652587890625,-0.2036261558532714,0.0308027267456054,-0.1521446406841278,0.0319176837801933,-0.0991128087043762,-0.1091920807957649
1772902402048639500,1.697639404296875,0.0093746185302734,0.0510644912719726,-0.0785742998123169,0.0374154672026634,-0.0850629210472107,-0.0981965139508247
1772902402067626500,1.71662646484375,0.0193226337432861,-0.03021240234375,-0.0757938921451568,0.0349720083177089,-0.0936150252819061,-0.0817031636834144
1772902402086613500,1.735613525390625,0.0356183052062988,0.0554742813110351,-0.1002223193645477,0.0459675751626491,-0.1119409725069999,-0.0694858655333519
1772902402105600500,1.7546005859375,0.1005680561065673,0.0467901229858398,-0.0252200216054916,0.0520762242376804,-0.1229365393519401,-0.0529925189912319
1772902402124587500,1.77358740234375,0.2190616130828857,0.0721721649169921,-0.1586061865091323,0.0783434063196182,-0.1217148080468177,-0.0236710105091333
1772902402143574300,1.79257421875,0.179858922958374,-0.1000080108642578,-0.0579678416252136,0.0868955180048942,-0.1241582632064819,-0.002901607658714
1772902402162561300,1.811561279296875,0.0741865634918212,-0.1734352111816406,0.0695097297430038,0.0685695707798004,-0.1082757785916328,0.0099265528842806
1772902402181548300,1.83054833984375,-0.0228230953216552,-0.1897487640380859,0.1397540122270584,0.0416915230453014,-0.0728456228971481,0.0068722288124263
1772902402200535300,1.849535400390625,-0.065706729888916,-0.1064338684082031,0.1047882810235023,0.0251981727778911,-0.0300850905478,0.0019853105768561
1772902402219522300,1.868522216796875,-0.0326857566833496,-0.0459613800048828,-0.025983914732933,0.0282524954527616,-0.0233655776828527,-0.0151189034804701
1772902402238509300,1.88750927734375,0.0197651386260986,0.0102577209472656,0.01151093095541,0.0270307660102844,-0.0172569304704666,-0.0120645789429545
1772902402257496300,1.906496337890625,0.0574054718017578,0.0054397583007812,0.0223583579063415,0.0142026059329509,-0.0355828739702701,-0.006566796451807
1772902402276483300,1.9254833984375,0.066188097000122,0.0122146606445312,-0.0322315990924835,0.019700389355421,-0.0349720083177089,-0.0016798780998215
1772902402295470000,1.944469970703125,-0.0513172149658203,-0.0457019805908203,0.041520494967699,0.0190895237028598,-0.0154243353754282,-0.009621120058
1772902402314457000,1.96345703125,-0.0531651973724365,0.0405330657958984,0.1550257802009582,0.0105374176055192,0.0126754445955157,-0.0224492810666561
1772902402333444000,1.982444091796875,-0.0374252796173095,0.0240736007690429,-0.018252208828926,0.0227547138929367,0.0236710105091333,-0.0236710105091333
1772902402352431000,2.00143115234375,0.0353598594665527,0.0028867721557617,0.0372594520449638,0.0361937396228313,0.0322231166064739,-0.0151189034804701
1772902402371418000,2.020418212890625,0.0802068710327148,-0.0059709548950195,0.0499721206724643,0.0282524954527616,0.009621120058,0.0007635809597559
1772902402390405000,2.039405029296875,0.0252256393432617,-0.0217657089233398,0.1582428812980651,0.0087048234418034,0.0145080387592315,0.0080939587205648
1772902402409392000,2.05839208984375,-0.0065255165100097,-0.0338668823242187,0.1665141284465789,-0.0077885258942842,0.0346665754914283,0.0111482823267579
1772902402428379100,2.077379150390625,0.1157960891723632,0.0037727355957031,0.1910644173622131,-0.0230601448565721,0.0597120337188243,0.019700389355421
1772902402447366100,2.0963662109375,0.2558350563049316,0.0567865371704101,0.0886617675423622,-0.0310013871639966,0.0755945146083831,0.0642935186624527
1772902402466353000,2.115352783203125,0.2944772243499756,0.0215692520141601,0.0150859281420707,-0.0340557098388671,0.0462730079889297,0.1064431890845298
1772902402485340000,2.13433984375,0.0705571174621582,-0.0497341156005859,-0.0759848356246948,-0.0145080387592315,0.0200058221817016,0.1058323234319686
1772902402504327000,2.153326904296875,-0.1212763786315918,-0.1316184997558593,-0.0446774438023567,0.0105374176055192,0.0230601448565721,0.0801760032773017
1772902402523314000,2.17231396484375,-0.1557481288909912,-0.1228561401367187,0.0527902692556381,0.0215329825878143,0.0248927399516105,0.0496327616274356
1772902402542301000,2.191301025390625,-0.1396121978759765,-0.038924217224121,0.0718366205692291,0.0172569304704666,0.0102319847792387,0.0319176837801933
1772902402561288000,2.210287841796875,-0.1100366115570068,0.0710573196411132,0.0671945586800575,0.0117591470479965,0.0010690133785828,0.019700389355421
1772902402580275000,2.22927490234375,-0.0660772323608398,0.0862960815429687,0.1318110823631286,-0.006566796451807,-0.0111482823267579,0.0166460648179054
1772902402599262000,2.248261962890625,-0.0153214931488037,0.0870323181152343,0.018825776875019,-0.0138971740379929,-0.0123700117692351,0.0270307660102844
1772902402618249000,2.2672490234375,0.0404543876647949,0.026707649230957,-0.0305069163441658,-0.0083993906155228,0.0090102553367614,0.0361937396228313
1772902402637235700,2.286235595703125,0.0950396060943603,0.1169042587280273,0.048806257545948,-0.0126754445955157,0.0364991687238216,0.0594066008925437
1772902402656222700,2.30522265625,0.067474365234375,0.0444116592407226,0.0361150316894054,-0.0230601448565721,0.0572685748338699,0.0771216750144958
1772902402675209700,2.324209716796875,-0.0308661460876464,-0.0353689193725585,-0.0652584955096244,-0.0206166859716177,0.0621554926037788,0.0710130333900451
1772902402694196700,2.34319677734375,-0.0378389358520507,-0.0274782180786132,-0.1094091981649398,-0.016951497644186,0.0310013871639966,0.0551305450499057
1772902402713183700,2.362183837890625,-0.0330846309661865,-0.0108766555786132,-0.1534017771482467,-0.0047342018224298,-0.0123700117692351,0.0447458438575267
1772902402732170800,2.381170654296875,-0.0116059780120849,0.0721549987792968,-0.1511511951684951,0.0190895237028598,-0.0361937396228313,0.0331394150853157
1772902402751157800,2.40015771484375,0.0373580455780029,0.0540180206298828,0.0499611645936965,0.0190895237028598,-0.0233655776828527,0.0410806573927402
1772902402770144800,2.419144775390625,0.0393061637878418,0.0262527465820312,0.1345927864313125,0.0019853105768561,-0.0184786599129438,0.0471893027424812
1772902402789131800,2.4381318359375,-0.0397276878356933,-0.0216188430786132,0.069682128727436,-0.0041233371011912,-0.0019853105768561,0.0496327616274356
1772902402808118500,2.457118408203125,-0.1294252872467041,-0.0149908065795898,-0.0774367228150367,0.009315688163042,0.0059559317305684,0.0325285494327545
1772902402827105500,2.47610546875,-0.0903725624084472,-0.0526857376098632,-0.0439508035778999,0.0135917412117123,-0.0025961752980947,0.0209221187978982
1772902402846092500,2.495092529296875,-0.0692613124847412,-0.0793294906616211,-0.0977896824479103,0.0154243353754282,-0.0465784408152103,0.0044287694618105
1772902402865079600,2.51407958984375,-0.0120160579681396,-0.057037353515625,-0.064012162387371,0.0215329825878143,-0.0728456228971481,-0.0108428495004773
1772902402884066600,2.533066650390625,-0.0152008533477783,-0.0631370544433593,0.119273841381073,0.0160352010279893,-0.050854492932558,-0.0255036037415266
1772902402903053600,2.552053466796875,0.0232942104339599,0.0176343917846679,0.1035799533128738,0.019700389355421,-0.0080939587205648,-0.0371100343763828
1772902402922040600,2.57104052734375,0.0787997245788574,0.036931037902832,0.1909055411815643,-0.0016798780998215,0.0267253331840038,-0.0267253331840038
1772902402941027600,2.590027587890625,0.0858767032623291,-0.0174846649169921,0.0635937452316284,-0.0200058221817016,-0.0099265528842806,-0.037720900028944
1772902402960014600,2.6090146484375,0.0461106300354003,-0.0360355377197265,-0.0345346108078956,-0.006566796451807,0.0077885258942842,-0.0371100343763828
1772902402979001300,2.62800146484375,0.0613470077514648,-0.0050821304321289,-0.0663022622466087,0.0038179049734026,-0.0074830935336649,-0.0364991687238216
1772902402997988400,2.64698828125,-0.0058555603027343,-0.0377912521362304,0.0260995998978614,-0.0059559317305684,-0.0319176837801933,-0.0389426313340663
1772902403016975400,2.665975341796875,-0.0716140270233154,-0.0127820968627929,0.0635870993137359,-0.0126754445955157,-0.0245873071253299,-0.0468838736414909
1772902403035962400,2.68496240234375,-0.0826365947723388,0.0045099258422851,-0.0193110033869743,-0.0053450670093297,-0.0019853105768561,-0.0487164668738842
1772902403054949400,2.703949462890625,-0.0098297595977783,0.0042886734008789,-0.0822301506996154,0.0105374176055192,0.0035124723799526,-0.0358883067965507
1772902403073936400,2.722936279296875,0.0614345073699951,0.0255966186523437,-0.0870968550443649,0.0172569304704666,0.0010690133785828,-0.0120645789429545
1772902403092923400,2.74192333984375,0.0480763912200927,0.0527896881103515,-0.0284131541848182,0.0142026059329509,0.006566796451807,0.0056504993699491
1772902403111910400,2.760910400390625,-0.0139970779418945,0.1388025283813476,0.0084231384098529,0.0062613640911877,0.0120645789429545,0.0160352010279893
1772902403130897400,2.7798974609375,-0.0557572841644287,0.0494489669799804,0.0327863879501819,-0.0114537142217159,0.002901607658714,0.0105374176055192
1772902403149884200,2.79888427734375,-0.0749969482421875,-0.0218458175659179,-0.0474722385406494,-0.0102319847792387,0.0181732270866632,-0.0053450670093297
1772902403168871200,2.81787109375,0.0463297367095947,0.0141372680664062,-0.0166744217276573,-0.0120645789429545,0.0261144693940877,-0.0010690133785828
1772902403187858200,2.836858154296875,0.1124665737152099,0.0315380096435546,-0.0175265595316886,-0.0157297682017087,0.0212275516241788,0.0203112531453371
1772902403206845200,2.85584521484375,0.0447347164154052,-0.0037975311279296,-0.0496428683400154,-0.0083993906155228,0.0206166859716177,0.0386371985077858
1772902403225832200,2.874832275390625,-0.0425143241882324,-0.0359668731689453,0.0265722312033176,-0.0059559317305684,0.0279470644891262,0.0435241162776947
1772902403244819200,2.893819091796875,-0.073871374130249,0.0054273605346679,0.0876561477780342,-0.0163406319916248,0.0261144693940877,0.0349720083177089
1772902403263806200,2.91280615234375,-0.0375404357910156,0.034428596496582,0.0620347410440444,-0.0212275516241788,0.0261144693940877,0.0325285494327545
1772902403282793200,2.931793212890625,0.016871690750122,0.0219058990478515,-0.0248654931783676,-0.0090102553367614,0.0346665754914283,0.0368046015501022
1772902403301780200,2.9507802734375,0.0214147567749023,0.0054378509521484,-0.0171638876199722,-0.0016798780998215,0.0340557098388671,0.0441349819302558
1772902403320767000,2.96976708984375,-0.0081045627593994,-0.003885269165039,0.0415569022297859,-0.0047342018224298,0.037720900028944,0.0478001683950424
1772902403339754000,2.98875390625,0.0072503089904785,0.0268440246582031,-0.0346257910132408,-0.0010690133785828,0.0291687939316034,0.0423023849725723
1772902403358741000,3.007740966796875,-0.0400645732879638,-0.0015420913696289,-0.0092403143644332,0.0044287694618105,0.0279470644891262,0.0374154672026634
1772902403377728000,3.02672802734375,-0.0685701370239257,0.0161848068237304,-0.0654528066515922,0.0123700117692351,0.0114537142217159,0.0233655776828527
1772902403396715000,3.045715087890625,0.0182561874389648,0.0403347015380859,-0.0301752090454101,0.0123700117692351,-0.0025961752980947,0.0123700117692351
1772902403415701800,3.06470166015625,0.0909717082977294,0.0165224075317382,-0.0226002410054206,0.0129808764904737,-0.0166460648179054,0.0270307660102844
1772902403434688800,3.083688720703125,0.0359351634979248,9.5367431640625e-07,-0.0567721799015998,0.0209221187978982,-0.0215329825878143,0.0392480604350566
1772902403453675800,3.10267578125,-0.0527510643005371,-0.037306785583496,0.0504336953163147,0.0245873071253299,-0.0135917412117123,0.0306959543377161
1772902403472662800,3.121662841796875,-0.0547223091125488,-0.0626487731933593,0.1341920346021652,0.0105374176055192,-0.0050396346487104,0.0154243353754282
1772902403491649800,3.14064990234375,-0.0895702838897705,-0.0509834289550781,0.0076488405466079,0.0062613640911877,0.0206166859716177,-0.0010690133785828
1772902403510636800,3.15963671875,-0.0706617832183837,0.01690673828125,0.056840643286705,0.0038179049734026,0.0267253331840038,-0.0224492810666561
1772902403529623800,3.178623779296875,-0.0460851192474365,0.0410985946655273,0.0590285919606685,-0.0041233371011912,0.0316122509539127,-0.0371100343763828
1772902403548610800,3.19761083984375,0.0086250305175781,0.0046110153198242,0.0772678032517433,-0.0145080387592315,0.0383317656815052,-0.0444404110312461
1772902403567597800,3.216597900390625,0.1059527397155761,-0.027780532836914,-0.0110331699252128,-0.0248927399516105,0.0248927399516105,-0.0419969521462917
1772902403586584600,3.23558447265625,0.1079943180084228,0.0542783737182617,-0.1355499327182769,-0.0047342018224298,0.0322231166064739,-0.0291687939316034
1772902403605571600,3.254571533203125,0.1140468120574951,0.0177240371704101,-0.122268445789814,0.0117591470479965,0.0035124723799526,-0.0077885258942842
1772902403624558600,3.27355859375,0.0394487380981445,-0.0408735275268554,-0.0843816623091697,0.0178677942603826,-0.0209221187978982,-0.002901607658714
1772902403643545600,3.292545654296875,-0.0329012870788574,-0.0747079849243164,0.042408287525177,0.0117591470479965,-0.0258090365678071,-0.006566796451807
1772902403662532600,3.31153271484375,-0.0677320957183837,-0.0170354843139648,0.1318280100822448,-0.0053450670093297,-0.0135917412117123,-0.0236710105091333
1772902403681519600,3.33051953125,-0.064396858215332,0.0432758331298828,0.1305432468652725,-0.0193949565291404,0.0035124723799526,-0.0340557098388671
1772902403700506400,3.34950634765625,0.0399184226989746,0.050271987915039,-0.0103442445397377,-0.0120645789429545,0.0200058221817016,-0.027336198836565
1772902403719493600,3.36849365234375,0.1547672748565673,-0.0046472549438476,-0.0065646767616271,-0.0108428495004773,0.0181732270866632,-0.0108428495004773
1772902403738480600,3.387480712890625,0.1169309616088867,0.0189342498779296,0.0128358826041221,-0.009621120058,0.0303905233740806,0.0019853105768561
1772902403757467400,3.40646728515625,0.0286033153533935,-0.044844627380371,-0.0445337072014808,-0.0145080387592315,0.0297796577215194,0.0087048234418034
1772902403776454400,3.425454345703125,0.0241611003875732,-0.0247812271118164,-0.0925933942198753,-0.0126754445955157,0.0279470644891262,0.0044287694618105
1772902403795441400,3.44444140625,0.0026893615722656,-0.028365135192871,-0.1050135940313339,-0.009621120058,0.0303905233740806,-0.0004581485991366
1772902403814428400,3.463428466796875,0.0258553028106689,-0.0019397735595703,-0.1253306865692138,-0.0022907429374754,0.0218384154140949,-0.0010690133785828
1772902403833415400,3.48241552734375,0.0917952060699462,0.0303821563720703,-0.0961696952581405,0.0074830935336649,0.0035124723799526,0.0117591470479965
1772902403852402400,3.50140234375,0.1187968254089355,-0.0025148391723632,-0.0176338702440261,0.0105374176055192,-0.0032070400193333,0.0319176837801933
1772902403871389400,3.520389404296875,0.0477066040039062,-0.0002336502075195,0.0414915308356285,0.0111482823267579,0.006566796451807,0.0435241162776947
1772902403890376400,3.53937646484375,-0.0888137817382812,-0.0629911422729492,0.0581772252917289,0.0062613640911877,0.0181732270866632,0.0392480604350566
1772902403909363500,3.558363525390625,-0.1424050331115722,-0.0855464935302734,0.0265037342905998,0.0019853105768561,0.0218384154140949,0.0154243353754282
1772902403928350200,3.57735009765625,-0.1120603084564209,-0.02911376953125,-0.0267164260149002,-0.006566796451807,-0.0019853105768561,-0.0053450670093297
1772902403947337200,3.596337158203125,-0.066624641418457,0.0006427764892578,-0.0504250526428222,-0.0102319847792387,-0.0172569304704666,-0.0163406319916248
1772902403966324200,3.61532421875,-0.0094332695007324,-0.0079984664916992,-0.0993293970823288,-0.0035124723799526,-0.0044287694618105,-0.0157297682017087
1772902403985311200,3.634311279296875,0.0239906311035156,0.001718521118164,-0.0835694521665573,0.0007635809597559,0.009621120058,-0.0077885258942842
1772902404004298200,3.65329833984375,0.0199601650238037,0.022566795349121,-0.0950704514980316,0.0062613640911877,0.0083993906155228,-0.002901607658714
1772902404023285000,3.672284912109375,0.0294725894927978,0.0330219268798828,-0.1028352528810501,0.0087048234418034,-0.0044287694618105,0.0062613640911877
1772902404042272000,3.69127197265625,0.0098471641540527,0.0053634643554687,-0.0598442405462265,0.0099265528842806,-0.0056504993699491,0.0160352010279893
1772902404061259000,3.710259033203125,-0.0247018337249755,0.0041160583496093,0.0199023634195327,0.0074830935336649,0.0102319847792387,0.0160352010279893
1772902404080246000,3.72924609375,-0.0823767185211181,-0.0450124740600585,0.0242635905742645,0.0013744457392022,0.027336198836565,0.009315688163042
1772902404099233000,3.74823291015625,-0.1178255081176757,-0.056650161743164,-0.0144810229539871,-0.0047342018224298,0.0248927399516105,-0.0120645789429545
1772902404118220000,3.767219970703125,-0.0620219707489013,-0.0465707778930664,-0.035851776599884,0.0007635809597559,0.0279470644891262,-0.027336198836565
1772902404146700300,3.7957001953125,0.1198198795318603,0.0315275192260742,0.0275406017899513,0.0087048234418034,0.0413860902190208,-0.0059559317305684
1772902404165687300,3.814687255859375,0.1580235958099365,0.047769546508789,0.0535008683800697,0.0038179049734026,0.0444404110312461,0.0251981727778911
1772902404184674300,3.83367431640625,0.0312461853027343,0.0071830749511718,0.0189191251993179,0.0032070400193333,0.0609337612986564,0.0380263328552246
1772902404203661300,3.852661376953125,-0.0499632358551025,0.0735530853271484,0.0423820465803146,-0.0047342018224298,0.0536033846437931,0.0288633611053228
1772902404222648300,3.8716484375,-0.102426528930664,0.0814027786254882,-0.0765167474746704,0.0032070400193333,0.0358883067965507,0.0190895237028598
1772902404241635300,3.89063525390625,-0.068284273147583,0.0147104263305664,-0.1336258202791214,0.019700389355421,0.0090102553367614,0.0154243353754282
1772902404260622300,3.909622314453125,-0.046684980392456,0.0155839920043945,-0.0241549611091613,0.0245873071253299,-0.0160352010279893,0.0172569304704666
1772902404279609300,3.928609375,-0.07537841796875,0.0030851364135742,0.1457743495702743,0.0099265528842806,-0.009315688163042,0.0123700117692351
1772902404298596400,3.947596435546875,-0.0861127376556396,0.0214252471923828,0.1907199323177337,-0.0102319847792387,0.0053450670093297,0.0007635809597559
1772902404317583000,3.9665830078125,-0.0280942916870117,-0.0093097686767578,0.0752240568399429,-0.0114537142217159,0.0083993906155228,-0.0077885258942842
1772902404336570000,3.985570068359375,0.0180122852325439,-0.0482826232910156,-0.0354062169790267,-0.0010690133785828,0.002901607658714,-0.0083993906155228
1772902404355557000,4.00455712890625,0.0362219810485839,-0.0715742111206054,0.0024217367172241,0.0038179049734026,-0.0148134706541895,-0.0102319847792387
1772902404374544100,4.023544189453125,-0.0090308189392089,0.0010137557983398,-0.0141591280698776,0.0068722288124263,-0.0368046015501022,-0.0114537142217159
1772902404393531100,4.04253125,-0.0272090435028076,0.0249738693237304,-0.0204439610242843,0.0111482823267579,-0.0606283284723758,-0.0108428495004773
1772902404412518100,4.06151806640625,-0.0247392654418945,0.0414190292358398,0.04440239071846,0.0050396346487104,-0.0349720083177089,-0.0200058221817016
1772902404431505200,4.080505126953125,0.0287895202636718,0.0433540344238281,0.1282621026039123,-0.0077885258942842,-0.0160352010279893,-0.0138971740379929
1772902404450492200,4.0994921875,0.0408334732055664,0.0350465774536132,-0.0153614953160285,-0.0035124723799526,-0.0056504993699491,-0.0016798780998215
1772902404469479200,4.118479248046875,0.0333898067474365,-0.0012750625610351,-0.0556831583380699,0.0068722288124263,-0.0105374176055192,0.0068722288124263
1772902404488466000,4.1374658203125,0.0197925567626953,-0.024916648864746,-0.0211966484785079,0.0111482823267579,-0.0117591470479965,0.0074830935336649
1772902404507453000,4.156452880859375,-0.0216741561889648,-0.0289478302001953,0.0752855017781257,0.0056504993699491,-0.0117591470479965,0.0038179049734026
1772902404526440000,4.17543994140625,-0.037562608718872,-0.0066127777099609,0.102015346288681,0.0025961752980947,-0.0007635809597559,-0.0059559317305684
1772902404545427000,4.194427001953125,-0.0355439186096191,-0.0245018005371093,0.0521861538290977,-0.0016798780998215,0.0071776611730456,-0.009621120058
1772902404564414000,4.2134140625,0.0394024848937988,0.0467920303344726,0.0114774852991104,-0.0022907429374754,0.002901607658714,-0.0035124723799526
1772902404583400700,4.232400634765625,0.0881457328796386,0.0356149673461914,-0.0525991693139076,0.0032070400193333,-0.0025961752980947,0.009315688163042
1772902404602387700,4.2513876953125,0.04585862159729,0.0219964981079101,-0.019740842282772,0.009315688163042,-0.0032070400193333,0.0166460648179054
1772902404621374700,4.270374755859375,-0.0111947059631347,-0.000594139099121,-0.0090085864067077,0.0111482823267579,-0.0105374176055192,0.0123700117692351
1772902404640361700,4.28936181640625,-0.0119950771331787,-0.0264577865600585,-0.0372654125094413,0.0123700117692351,-0.0203112531453371,0.0038179049734026
1772902404659348700,4.3083486328125,-0.0044829845428466,-0.0022401809692382,0.0120985656976699,0.009315688163042,-0.0245873071253299,0.0001527161948615
1772902404678335700,4.327335693359375,2.14576721191e-05,-0.0255327224731445,0.0284466594457626,0.0062613640911877,-0.0123700117692351,0.0007635809597559
1772902404697322800,4.34632275390625,0.0070884227752685,0.0173311233520507,-0.0253328904509544,0.009315688163042,-0.0050396346487104,-0.0004581485991366
1772902404716309800,4.365309814453125,0.0108335018157958,-0.0084772109985351,-0.0644051060080528,0.0123700117692351,-0.0154243353754282,-0.0053450670093297
1772902404735296800,4.384296875,0.0408539772033691,-0.005868911743164,-0.0561258643865585,0.0148134706541895,-0.0062613640911877,0.0001527161948615
1772902404754283500,4.403283447265625,0.0334861278533935,-0.0061540603637695,0.0305438861250877,0.0087048234418034,0.0071776611730456,0.0025961752980947
1772902404773270500,4.4222705078125,0.0045208930969238,-0.0296144485473632,-0.0980838686227798,0.0099265528842806,0.0004581485991366,0.0013744457392022
1772902404792257500,4.441257568359375,-0.0154480934143066,-0.0515203475952148,-0.0815448760986328,0.019700389355421,-0.0013744457392022,-0.0083993906155228
1772902404811244500,4.46024462890625,0.0371403694152832,0.0039739608764648,0.0011539608240127,0.0239764433354139,-0.0007635809597559,-0.009621120058
1772902404830231600,4.4792314453125,0.0377769470214843,-0.0267972946166992,0.0735302343964576,0.0117591470479965,0.0181732270866632,0.0007635809597559
1772902404849218600,4.498218505859375,-0.0620660781860351,-0.0375738143920898,0.0795507878065109,-0.0059559317305684,0.0334448479115963,-0.0053450670093297
1772902404868205300,4.517205322265625,-0.0764582157135009,0.0208187103271484,-0.0745451152324676,-0.002901607658714,0.0328339822590351,-0.0193949565291404
1772902404887192300,4.5361923828125,-0.0542340278625488,0.030313491821289,-0.1562684178352356,0.0148134706541895,0.0255036037415266,-0.0224492810666561
1772902404906179300,4.555179443359375,-0.0178005695343017,-0.016798973083496,-0.0629153624176979,0.0221438482403755,0.016951497644186,-0.0120645789429545
1772902404925166300,4.574166259765625,-0.0110163688659667,-0.0184478759765625,0.07198466360569,0.0105374176055192,0.006566796451807,-0.0041233371011912
1772902404944153300,4.5931533203125,-0.069690465927124,-0.0061864852905273,0.1289927214384079,-0.009621120058,0.0108428495004773,-0.0077885258942842
1772902404963140400,4.612140380859375,-0.0820620059967041,0.0018243789672851,0.0421397425234317,-0.016951497644186,0.0236710105091333,-0.0218384154140949
1772902404982127400,4.63112744140625,-0.0399463176727294,0.0219755172729492,-0.0368556156754493,-0.0114537142217159,0.0401643589138984,-0.0291687939316034
1772902405001114400,4.6501142578125,0.0550236701965332,0.0248746871948242,-0.0440222024917602,-0.0041233371011912,0.0462730079889297,-0.0236710105091333
1772902405020101000,4.66910107421875,0.1141972541809082,0.0570840835571289,-0.0383640453219413,-0.0004581485991366,0.0291687939316034,-0.0041233371011912
1772902405039088000,4.688088134765625,0.075268268585205,0.0519428253173828,0.0184246152639389,-0.0059559317305684,0.0230601448565721,0.0190895237028598
1772902405058075100,4.7070751953125,-0.0466959476470947,0.0254764556884765,0.0466251596808433,-0.0126754445955157,0.0224492810666561,0.0239764433354139
1772902405077062100,4.726062255859375,-0.1526687145233154,-0.0223608016967773,0.030121311545372,-0.0126754445955157,0.0334448479115963,0.0056504993699491
1772902405096049200,4.745049072265625,-0.1271615028381347,0.0513420104980468,-0.0022358745336532,-0.009621120058,0.0322231166064739,-0.0090102553367614
1772902405115036200,4.7640361328125,-0.0196208953857421,0.0498342514038085,-0.0616762563586235,0.0001527161948615,0.0151189034804701,-0.009621120058
1772902405134023000,4.78302294921875,0.0364215373992919,0.0065155029296875,-0.0612225160002708,0.0105374176055192,-0.0044287694618105,-0.0004581485991366
1772902405153010000,4.802010009765625,0.0403940677642822,-0.0032205581665039,0.0522232986986637,0.0123700117692351,-0.0166460648179054,0.0068722288124263
1772902405171997000,4.820996826171875,-0.0039842128753662,-0.0271558761596679,0.0878609269857406,0.0062613640911877,-0.0209221187978982,0.0074830935336649
1772902405190984000,4.83998388671875,-0.0650415420532226,-0.0566654205322265,0.0531586445868015,0.0050396346487104,-0.0080939587205648,-0.006566796451807
1772902405209971000,4.858970947265625,-0.037593126296997,-0.025731086730957,0.0738501399755477,0.0038179049734026,-0.0013744457392022,-0.016951497644186
1772902405228958000,4.8779580078125,0.0334260463714599,0.0316295623779296,0.0236495956778526,0.0032070400193333,-0.0062613640911877,-0.0120645789429545
1772902405247945000,4.896945068359375,0.0613956451416015,0.0425033569335937,0.0005800276994705,0.0013744457392022,-0.0209221187978982,-0.0022907429374754
1772902405266931700,4.915931640625,0.0378737449645996,-0.0076532363891601,-0.0316708981990814,0.0038179049734026,-0.0343611426651477,-0.0004581485991366
1772902405285918700,4.934918701171875,0.0177297592163085,0.0063323974609375,-0.0191130489110946,0.0025961752980947,-0.0392480604350566,-0.0010690133785828
1772902405304905700,4.95390576171875,-0.007007360458374,-0.0190420150756835,-0.0188024491071701,0.0032070400193333,-0.0325285494327545,-0.0059559317305684
1772902405323892700,4.972892822265625,0.0056521892547607,0.0052223205566406,-0.0227047950029373,0.0068722288124263,-0.0221438482403755,-0.0090102553367614
1772902405342879700,4.991879638671875,0.0225324630737304,-0.0132732391357421,-0.0241629406809806,0.0087048234418034,-0.0129808764904737,-0.0071776611730456
1772902405361866800,5.01086669921875,0.0394494533538818,-0.0266046524047851,-0.0563908591866493,0.0117591470479965,-0.0117591470479965,-0.0053450670093297
1772902405380853800,5.029853759765625,0.0446925163269043,-0.0281562805175781,-0.0836942866444587,0.0166460648179054,-0.019700389355421,0.0001527161948615
1772902405399840500,5.048840576171875,0.0341103076934814,-0.0298061370849609,-0.0570839717984199,0.0184786599129438,-0.0154243353754282,0.0025961752980947
1772902405418827500,5.06782763671875,-0.0179789066314697,-0.0267324447631835,0.0512499250471591,0.0154243353754282,0.0016798780998215,0.0025961752980947
1772902405437814500,5.086814453125,-0.043555736541748,-0.0542192459106445,0.0080161914229393,0.0135917412117123,0.0187840927392244,-0.0035124723799526
1772902405456801500,5.105801513671875,0.024134874343872,-0.0310068130493164,0.0569588169455528,0.0019853105768561,0.0236710105091333,-0.0108428495004773
1772902405475788500,5.12478857421875,0.0416948795318603,0.0077877044677734,-0.0327869281172752,-0.0016798780998215,0.0053450670093297,-0.0132863093167543
1772902405494775300,5.143775390625,0.0450716018676757,0.0219583511352539,-0.1477557569742202,0.0135917412117123,-0.0148134706541895,-0.0132863093167543
1772902405513762300,5.16276220703125,0.0181787014007568,-0.0017080307006835,-0.1716648638248443,0.0319176837801933,-0.0209221187978982,-0.0108428495004773
1772902405532749300,5.181749267578125,-0.038640022277832,-0.0289697647094726,-0.129614919424057,0.0447458438575267,-0.009315688163042,-0.0145080387592315
1772902405551736300,5.200736328125,-0.0505146980285644,-0.005864143371582,-0.0061130374670028,0.0386371985077858,0.0157297682017087,-0.0255036037415266
1772902405570723300,5.219723388671875,-0.0065009593963623,0.0307826995849609,-0.0513789057731628,0.0361937396228313,0.0248927399516105,-0.0242818742990493
1772902405589710300,5.23871044921875,0.0328595638275146,0.0534982681274414,-0.0907803475856781,0.0416915230453014,0.0187840927392244,-0.0132863093167543
1772902405608697300,5.257697265625,0.016899824142456,-0.0158948898315429,-0.0464926622807979,0.0447458438575267,0.0120645789429545,-0.0059559317305684
1772902405627684000,5.27668408203125,-0.0079619884490966,-0.0682325363159179,0.0461353734135627,0.0319176837801933,-0.0062613640911877,-0.0077885258942842
1772902405646671000,5.295671142578125,-0.073723554611206,-0.0674695968627929,0.1008643507957458,0.0203112531453371,-0.0013744457392022,-0.0193949565291404
1772902405665658000,5.314658203125,-0.1152923107147216,-0.0678081512451171,0.110036663711071,0.009315688163042,0.0236710105091333,-0.0474947355687618
1772902405684645000,5.33364501953125,-0.0648939609527587,0.022857666015625,0.0976443737745285,0.0044287694618105,0.0358883067965507,-0.0664315447211265
1772902405703632100,5.352632080078125,0.1958644390106201,0.0796880722045898,0.0091235395520925,-0.0010690133785828,-0.0007635809597559,-0.0401643589138984
1772902405722619100,5.371619140625,0.12799072265625,-0.0040798187255859,0.0394656620919704,-0.0041233371011912,-0.0044287694618105,-0.0114537142217159
1772902405741606100,5.390606201171875,0.0458936691284179,0.0500802993774414,-0.0377769395709037,0.0038179049734026,-0.0221438482403755,-0.0041233371011912
1772902405760593000,5.409593017578125,0.0067954063415527,0.0014867782592773,0.0004760082811117,0.0099265528842806,-0.0368046015501022,0.0013744457392022
1772902405779580000,5.428579833984375,-0.0358788967132568,-0.021463394165039,-0.0320053547620773,0.0142026059329509,-0.0441349819302558,-0.006566796451807
1772902405798567000,5.44756689453125,-0.0299656391143798,0.0195560455322265,-0.0222168434411287,0.0190895237028598,-0.0630717873573303,-0.0157297682017087
1772902405817554000,5.466553955078125,0.0151607990264892,0.056563377380371,0.0560877993702888,0.0160352010279893,-0.0691804364323616,-0.0120645789429545
1772902405836541000,5.485541015625,0.0645208358764648,0.032012939453125,0.1529652774333953,0.0025961752980947,-0.0514653585851192,-0.002901607658714
1772902405855528000,5.50452783203125,0.0422327518463134,0.0192823410034179,0.0854184329509735,-0.0022907429374754,-0.0264199022203683,0.0080939587205648
1772902405874514700,5.5235146484375,0.0191943645477294,0.0112438201904296,-0.021016240119934,-0.0010690133785828,-0.0270307660102844,0.0111482823267579
1772902405893501700,5.542501708984375,-0.0155472755432128,-0.0108108520507812,-0.0185352284461259,0.0117591470479965,-0.0178677942603826,0.0074830935336649
1772902405912488700,5.56148876953125,0.0027518272399902,-0.0223388671875,0.0232804268598556,0.0142026059329509,-0.0166460648179054,0.0062613640911877
1772902405931475700,5.580475830078125,-0.0109157562255859,-0.0170602798461914,-0.009748900309205,0.0160352010279893,-0.0319176837801933,0.0025961752980947
1772902405950462700,5.599462646484375,0.015547752380371,-0.0074720382690429,0.0427797473967075,0.0099265528842806,-0.0398589260876178,0.0044287694618105
1772902405969449500,5.618449462890625,0.0234057903289794,0.0225934982299804,0.0732708051800727,0.0025961752980947,-0.0447458438575267,0.009315688163042
1772902405988436500,5.6374365234375,-0.0060822963714599,0.021733283996582,0.0499552972614765,0.0007635809597559,-0.0374154672026634,0.0099265528842806
1772902406007423500,5.656423583984375,-0.0064625740051269,-0.0144052505493164,0.0207785461097955,0.0032070400193333,-0.0361937396228313,0.0099265528842806
1772902406026410500,5.675410400390625,0.0074036121368408,-0.0070343017578125,0.0319776497781276,0.0007635809597559,-0.0355828739702701,0.0117591470479965
1772902406045397500,5.6943974609375,0.0023691654205322,0.0114402770996093,0.0152099095284938,0.0013744457392022,-0.0313068181276321,0.0142026059329509
1772902406064384300,5.71338427734375,-0.0021431446075439,0.0101652145385742,-0.0111667998135089,0.0062613640911877,-0.0306959543377161,0.0148134706541895
1772902406083371300,5.732371337890625,-0.044588565826416,-0.0090579986572265,-0.0631960853934288,0.0129808764904737,-0.0306959543377161,0.0080939587205648
1772902406102358300,5.751358154296875,0.0096335411071777,-0.0206661224365234,0.0073461942374706,0.0111482823267579,-0.0319176837801933,0.0123700117692351
1772902406121345300,5.77034521484375,0.0146796703338623,-0.0162734985351562,0.0535047613084316,0.0013744457392022,-0.0294742248952388,0.0221438482403755
1772902406140332300,5.789332275390625,-0.0036296844482421,0.0068044662475585,-0.0135136730968952,0.0050396346487104,-0.0294742248952388,0.0154243353754282
1772902406159319300,5.8083193359375,-0.0249919891357421,0.0015735626220703,-0.0440880432724952,0.0135917412117123,-0.0300850905478,0.0099265528842806
1772902406178306300,5.827306396484375,0.0556502342224121,0.033574104309082,0.0739172175526619,0.0056504993699491,-0.0349720083177089,0.0142026059329509
1772902406197293300,5.846293212890625,0.0252561569213867,-0.015273094177246,0.0494904108345508,-0.0041233371011912,-0.0239764433354139,0.0239764433354139
1772902406216280300,5.8652802734375,-0.0486514568328857,-0.0557098388671875,0.0233899801969528,-0.0077885258942842,0.0047342018224298,0.019700389355421
1772902406235267000,5.88426708984375,-0.0667219161987304,0.0252943038940429,-0.0315416976809501,-0.0077885258942842,0.0120645789429545,0.0038179049734026
1772902406254254000,5.903254150390625,0.0057690143585205,0.1057920455932617,-0.1072213873267173,0.0038179049734026,0.0022907429374754,0.0019853105768561
1772902406273241000,5.922240966796875,0.0353143215179443,0.0388412475585937,-0.1224723756313324,0.0142026059329509,-0.0111482823267579,0.0117591470479965
1772902406292228000,5.94122802734375,0.0276629924774169,-0.0495033264160156,-0.0218783691525459,0.0142026059329509,-0.0166460648179054,0.0178677942603826
1772902406311214800,5.96021484375,-0.0398323535919189,-0.0626077651977539,0.0564356110990047,0.0056504993699491,-0.0032070400193333,0.019700389355421
1772902406330201900,5.979201904296875,-0.0498509407043457,-0.0474157333374023,0.0241131447255611,0.0019853105768561,0.0120645789429545,0.0123700117692351
1772902406349188900,5.99818896484375,-0.0095396041870117,-0.0205421447753906,-0.0163575634360313,0.0038179049734026,0.0151189034804701,0.0044287694618105
1772902406368175900,6.01717578125,0.0292010307312011,0.0126543045043945,0.0015229955315589,-0.0004581485991366,0.0212275516241788,0.0062613640911877
1772902406387163000,6.036162841796875,0.0711534023284912,0.0170135498046875,-0.0135124772787094,-0.0041233371011912,0.0010690133785828,0.0044287694618105
1772902406406150000,6.05514990234375,0.0839042663574218,0.0247907638549804,-0.0572277307510376,0.0013744457392022,-0.0056504993699491,0.0080939587205648
1772902406425137000,6.074136962890625,0.0385632514953613,0.0138568878173828,0.0335180535912513,0.0007635809597559,0.0138971740379929,0.0123700117692351
1772902406444123600,6.09312353515625,0.0113682746887207,-0.0551576614379882,0.0601883344352245,-0.006566796451807,0.0383317656815052,0.0117591470479965
1772902406463110700,6.112110595703125,-0.0289082527160644,-0.0559320449829101,-0.0200706683099269,-0.0071776611730456,0.0487164668738842,0.0080939587205648
1772902406482097700,6.13109765625,-0.0338335037231445,-0.0100517272949218,-0.0925679877400398,0.0044287694618105,0.0242818742990493,0.0050396346487104
1772902406501084700,6.150084716796875,-0.0177328586578369,0.004302978515625,-0.0678526163101196,0.0154243353754282,0.0059559317305684,0.0050396346487104
1772902406520071700,6.16907177734375,0.0073280334472656,0.0133638381958007,0.08148755133152,0.0111482823267579,0.0041233371011912,0.0062613640911877
1772902406539058400,6.188058349609375,0.0034081935882568,0.0267705917358398,0.1512476950883865,-0.0035124723799526,0.009621120058,0.0062613640911877
1772902406558045400,6.20704541015625,0.0279362201690673,-0.004556655883789,0.0810586735606193,-0.0102319847792387,0.0163406319916248,0.0074830935336649
1772902406577032400,6.226032470703125,0.0170185565948486,-0.0144863128662109,0.0014357976615428,-0.0090102553367614,0.0157297682017087,0.0111482823267579
1772902406596019500,6.24501953125,-0.011899709701538,-0.0283107757568359,-0.0060036852955818,-0.002901607658714,0.0181732270866632,0.0087048234418034
1772902406615006500,6.26400634765625,0.0084724426269531,-0.034285545349121,-0.0141218677163124,-0.002901607658714,0.0108428495004773,0.0050396346487104
1772902406633993200,6.2829931640625,-0.0282998085021972,0.0157127380371093,-0.0653497278690338,0.0007635809597559,-0.0044287694618105,0.0038179049734026
1772902406652980200,6.301980224609375,-0.0531959533691406,-0.042576789855957,-0.0039354525506496,0.0013744457392022,0.0047342018224298,-0.0047342018224298
1772902406671967200,6.32096728515625,0.0157616138458251,0.0638360977172851,0.0908694937825203,-0.0108428495004773,-0.0025961752980947,0.0007635809597559
1772902406690954200,6.339954345703125,0.0095455646514892,0.0288028717041015,0.02032320946455,-0.0102319847792387,0.0120645789429545,0.0080939587205648
1772902406709941200,6.358941162109375,0.0037870407104492,-0.0148048400878906,-0.008478544652462,-0.0077885258942842,-0.0019853105768561,0.0087048234418034
1772902406728928000,6.377927978515625,0.0172731876373291,0.0322284698486328,0.0090123638510704,-0.0071776611730456,-0.0172569304704666,0.0117591470479965
1772902406747915000,6.3969150390625,0.0345556735992431,0.0465145111083984,0.0092478692531585,-0.0083993906155228,-0.0178677942603826,0.0258090365678071
1772902406766902000,6.415902099609375,0.0130844116210937,0.0222492218017578,0.0188826844096183,-0.0090102553367614,-0.0142026059329509,0.0313068181276321
1772902406785889000,6.434888916015625,-0.0430390834808349,0.0274677276611328,0.0081962347030639,-0.0090102553367614,-0.0001527161948615,0.0264199022203683
1772902406804876000,6.4538759765625,-0.0593824386596679,-0.0117454528808593,-0.0678100138902664,-0.0059559317305684,0.0016798780998215,0.0172569304704666
1772902406823863000,6.472863037109375,-0.0697662830352783,-0.030196189880371,-0.1024919748306274,0.0001527161948615,-0.0056504993699491,0.0044287694618105
1772902406842849800,6.491849853515625,-0.0356333255767822,-0.0684270858764648,-0.017938433215022,0.0013744457392022,-0.0074830935336649,-0.0053450670093297
1772902406861836800,6.5108369140625,0.0256035327911376,-0.0381841659545898,0.0562224984169006,-0.0090102553367614,0.009621120058,-0.0016798780998215
1772902406880823800,6.52982373046875,-0.0005722045898437,0.0095863342285156,0.0108806136995553,-0.0163406319916248,0.0193949565291404,0.0038179049734026
1772902406899810800,6.548810791015625,-0.0091760158538818,0.0745353698730468,-0.1278712153434753,0.0007635809597559,0.0059559317305684,0.0050396346487104
1772902406918797800,6.5677978515625,0.0305593013763427,0.0757503509521484,-0.1003972142934799,0.0190895237028598,-0.009315688163042,0.0135917412117123
1772902406937784600,6.58678466796875,0.0021753311157226,-0.0117034912109375,0.0819419175386428,0.0099265528842806,-0.0099265528842806,0.0184786599129438
1772902406956771600,6.605771484375,-0.0043778419494628,-0.0234136581420898,0.1261588931083679,-0.0071776611730456,0.002901607658714,0.0148134706541895
1772902406975758600,6.624758544921875,-0.0380802154541015,-0.0490684509277343,0.0434131994843483,-0.0145080387592315,0.027336198836565,0.0184786599129438
1772902406994745600,6.64374560546875,-0.0343868732452392,-0.008554458618164,-0.0576241239905357,-0.0090102553367614,0.0255036037415266,0.0142026059329509
1772902407013732600,6.662732666015625,-0.0129110813140869,0.0143966674804687,-0.1104824766516685,0.0025961752980947,0.0120645789429545,0.0074830935336649
1772902407032719400,6.68171923828125,0.0261249542236328,0.0273122787475585,-0.0677899792790412,0.0032070400193333,-0.0044287694618105,0.0087048234418034
1772902407051706400,6.700706298828125,0.0507655143737793,0.0395116806030273,0.0244259070605039,0.0013744457392022,-0.0062613640911877,0.0160352010279893
1772902407070693400,6.719693359375,0.0341105461120605,-0.0164299011230468,0.0421873405575752,0.0044287694618105,0.0138971740379929,0.0227547138929367
1772902407089680400,6.738680419921875,-0.0216221809387207,-0.1082344055175781,0.0530645810067653,0.0019853105768561,0.0279470644891262,0.0203112531453371
1772902407108667400,6.75766748046875,-0.0567681789398193,-0.1330957412719726,0.0532308407127857,0.0007635809597559,0.0450512766838073,0.0044287694618105
1772902407127654100,6.776654052734375,-0.0089466571807861,-0.0308465957641601,-0.0241420920938253,0.0019853105768561,0.0218384154140949,-0.0053450670093297
1772902407146641200,6.79564111328125,0.0294582843780517,0.0266408920288085,-0.0596696771681308,0.0099265528842806,-0.0074830935336649,-0.0108428495004773
1772902407165628200,6.814628173828125,0.0506994724273681,0.0004167556762695,0.0119192916899919,0.0129808764904737,-0.0172569304704666,-0.0059559317305684
1772902407184615200,6.833615234375,0.0483341217041015,-0.0134811401367187,0.111990250647068,0.0087048234418034,-0.0050396346487104,-0.0016798780998215
1772902407203602200,6.852602294921875,-0.018958568572998,0.0030975341796875,0.1032018586993217,0.0025961752980947,0.0181732270866632,-0.0010690133785828
1772902407222589200,6.871589111328125,-0.0547418594360351,-0.0062246322631835,0.0312794558703899,-0.0041233371011912,0.0261144693940877,-0.0090102553367614
1772902407241576000,6.890575927734375,-0.0560023784637451,-0.0588817596435546,-0.0238986536860466,-0.0071776611730456,0.006566796451807,-0.0218384154140949
1772902407260563000,6.90956298828125,-0.0243725776672363,-0.0647726058959961,-0.1165581345558166,-0.0022907429374754,-0.0160352010279893,-0.0310013871639966
1772902407279550000,6.928550048828125,0.0364754199981689,-0.0402402877807617,-0.058767020702362,0.0062613640911877,-0.0288633611053228,-0.0279470644891262
1772902407298537000,6.947536865234375,0.0456397533416748,0.015456199645996,0.0016959495842456,0.0062613640911877,-0.0221438482403755,-0.0163406319916248
1772902407317524000,6.96652392578125,0.0094437599182128,0.059981346130371,0.0639523118734359,-0.0004581485991366,-0.0025961752980947,-0.0102319847792387
1772902407336510700,6.9855107421875,-0.0626585483551025,0.05419921875,0.0324749983847141,-0.006566796451807,0.0108428495004773,-0.0132863093167543
1772902407355497700,7.004497802734375,-0.0451350212097168,0.0251178741455078,-0.0700877383351326,-0.0004581485991366,0.0132863093167543,-0.0181732270866632
1772902407374484700,7.023484619140625,-0.034672737121582,0.0041961669921875,-0.0815847367048263,0.0019853105768561,0.0035124723799526,-0.0151189034804701
1772902407393471700,7.0424716796875,-0.0239264965057373,-0.0027618408203125,-0.0840595886111259,0.0007635809597559,-0.0080939587205648,-0.009621120058
1772902407412458800,7.061458740234375,-0.0857045650482177,0.0093812942504882,-0.0543290972709655,0.0019853105768561,-0.0062613640911877,-0.0114537142217159
1772902407431445500,7.080445556640625,-0.0737643241882324,0.0114393234252929,-0.0063125789165496,0.0019853105768561,0.0022907429374754,-0.0138971740379929
1772902407450432500,7.0994326171875,0.0104837417602539,0.0421781539916992,0.0086787864565849,-0.0041233371011912,0.0071776611730456,-0.0102319847792387
1772902407469419500,7.11841943359375,0.0142104625701904,0.0197401046752929,-0.0777956470847129,0.0007635809597559,0.0022907429374754,0.0007635809597559
1772902407488406500,7.137406494140625,0.0259408950805664,0.0118541717529296,-0.0652456730604171,0.0105374176055192,-0.0013744457392022,0.0038179049734026
1772902407507393500,7.1563935546875,-0.0109724998474121,-0.012176513671875,0.0311566609889268,0.0087048234418034,0.0041233371011912,0.0074830935336649
1772902407526380300,7.17538037109375,-0.0541725158691406,0.0136480331420898,0.0850994437932968,-0.0035124723799526,0.0261144693940877,0.0044287694618105
1772902407545367300,7.1943671875,-0.0733728408813476,0.0413599014282226,0.0065752919763326,-0.0138971740379929,0.0291687939316034,-0.0022907429374754
1772902407564354300,7.213354248046875,-0.0460717678070068,0.0379772186279296,-0.1406126022338867,-0.0016798780998215,0.0200058221817016,-0.0035124723799526
1772902407583341300,7.23234130859375,0.0109963417053222,0.0063257217407226,-0.1405282020568847,0.0203112531453371,0.0010690133785828,-0.0016798780998215
1772902407602328300,7.251328369140625,0.0439343452453613,-0.0593824386596679,0.0112089840695261,0.0251981727778911,-0.009315688163042,0.0080939587205648
1772902407621315300,7.2703154296875,-0.0047888755798339,-0.0344963073730468,0.1319614052772522,0.0062613640911877,-0.0074830935336649,0.0099265528842806
1772902407640302000,7.289302001953125,-0.0718743801116943,0.0087528228759765,0.1362134218215942,-0.0114537142217159,0.0090102553367614,-0.0041233371011912
1772902407659289000,7.3082890625,-0.0791678428649902,0.0231122970581054,0.006513126194477,-0.0108428495004773,0.0181732270866632,-0.0206166859716177
1772902407678276000,7.327276123046875,-0.0085670948028564,0.0259218215942382,-0.1019129231572151,0.0019853105768561,0.0120645789429545,-0.0267253331840038
1772902407697263000,7.34626318359375,0.0788209438323974,0.0218524932861328,-0.078927107155323,0.0105374176055192,-0.0044287694618105,-0.0206166859716177
1772902407716250000,7.36525,0.09519624710083,0.0075283050537109,-0.0046127680689096,0.0117591470479965,-0.0215329825878143,-0.006566796451807
1772902407735236900,7.38423681640625,0.0883891582489013,0.023055076599121,0.0659796223044395,0.0062613640911877,-0.0080939587205648,0.009315688163042
1772902407754223900,7.403223876953125,-0.0053868293762207,-0.0413684844970703,0.1297832131385803,-0.0053450670093297,0.0181732270866632,0.0129808764904737
1772902407773211000,7.4222109375,-0.0741729736328125,-0.0049552917480468,0.0207696985453367,-0.0090102553367614,0.0285579282790422,0.0007635809597559
1772902407792198000,7.441197998046875,-0.0284483432769775,0.0169801712036132,-0.0929214805364608,0.0019853105768561,0.0157297682017087,-0.0102319847792387
1772902407811184600,7.4601845703125,0.0151007175445556,0.0029458999633789,-0.1057516261935234,0.0148134706541895,-0.0050396346487104,-0.0083993906155228
1772902407830171600,7.479171630859375,0.0934953689575195,0.026534080505371,-0.0012129545211791,0.0178677942603826,-0.0172569304704666,0.0038179049734026
1772902407849158700,7.49815869140625,0.0857996940612793,0.001378059387207,0.1124069914221763,0.0080939587205648,-0.0117591470479965,0.0178677942603826
1772902407868145700,7.517145751953125,-0.0117328166961669,0.0025825500488281,0.0990789681673049,-0.0010690133785828,0.0108428495004773,0.0160352010279893
1772902407887132400,7.53613232421875,-0.0636985301971435,-0.0231781005859375,0.0263655669987201,0.0007635809597559,0.0187840927392244,0.0019853105768561
1772902407906119400,7.555119384765625,0.0054759979248046,-0.0434427261352539,-0.0093065947294235,0.0032070400193333,0.0090102553367614,-0.0053450670093297
1772902407925106400,7.5741064453125,0.0396549701690673,-0.0349073410034179,-0.0310035776346921,0.0050396346487104,-0.0062613640911877,-0.0035124723799526
1772902407944093400,7.593093505859375,0.0399866104125976,-0.0058813095092773,-0.0240984223783016,0.0032070400193333,-0.0215329825878143,-0.0010690133785828
1772902407963080200,7.612080078125,-0.0062596797943115,0.0275344848632812,0.0029612034559249,0.0056504993699491,-0.019700389355421,-0.0053450670093297
1772902407982067200,7.631067138671875,-0.0001983642578125,-0.0061159133911132,0.0123591050505638,0.0074830935336649,-0.0117591470479965,-0.0071776611730456
1772902408001054200,7.65005419921875,0.0389771461486816,0.0008964538574218,0.0151601023972034,0.0062613640911877,-0.0056504993699491,-0.0016798780998215
1772902408020041200,7.669041259765625,0.0139369964599609,-0.0363349914550781,-0.0101052727550268,0.0038179049734026,-0.0148134706541895,-0.0004581485991366
1772902408039028200,7.6880283203125,-0.0174903869628906,-0.0136346817016601,-0.0515941642224788,0.0068722288124263,-0.0251981727778911,-0.0077885258942842
1772902408058015000,7.707014892578125,-0.0163867473602294,-0.0032997131347656,-0.0081022083759307,0.0074830935336649,-0.0233655776828527,-0.0126754445955157
1772902408077002000,7.726001953125,-0.0113744735717773,-0.0095396041870117,0.0113445222377777,0.0050396346487104,-0.0123700117692351,-0.0157297682017087
1772902408095989000,7.744989013671875,0.00492525100708,0.0077924728393554,-0.0159302148967981,0.0050396346487104,-0.009315688163042,-0.0157297682017087
1772902408114976000,7.76397607421875,-0.0025179386138916,0.0010108947753906,0.0005710683763027,0.0038179049734026,-0.0001527161948615,-0.0126754445955157
1772902408133963000,7.782962890625,0.0325226783752441,0.0039386749267578,-0.0322584882378578,-0.0010690133785828,-0.0050396346487104,-0.0108428495004773
1772902408152950000,7.801949951171875,0.0086677074432373,0.0230340957641601,-0.1073527336120605,0.0087048234418034,-0.0117591470479965,-0.0102319847792387
1772902408171936800,7.820936767578125,0.0068676471710205,0.0016889572143554,-0.0556681156158447,0.0203112531453371,-0.009315688163042,-0.0108428495004773
1772902408190923800,7.839923828125,0.0515434741973876,-0.0170459747314453,0.0150929056107997,0.0172569304704666,-0.0068722288124263,-0.0071776611730456
1772902408209910800,7.858910888671875,0.0211098194122314,-0.020883560180664,0.1072453409433364,-0.0016798780998215,0.0083993906155228,-0.0041233371011912
1772902408228897500,7.8778974609375,-0.0538125038146972,-0.0076837539672851,0.0079270005226135,-0.0108428495004773,0.0145080387592315,-0.0132863093167543
1772902408247884500,7.896884521484375,-0.0271954536437988,0.0752477645874023,-0.165154218673706,0.0087048234418034,0.0016798780998215,-0.0187840927392244
1772902408266871600,7.91587158203125,0.0983457565307617,0.0635805130004882,-0.1320751905441284,0.0294742248952388,-0.0245873071253299,-0.0035124723799526
1772902408285858600,7.934858642578125,0.0758461952209472,-0.0228223800659179,0.0546316467225551,0.0233655776828527,-0.0410806573927402,0.0160352010279893
1772902408304845300,7.95384521484375,-0.0430731773376464,-0.0507135391235351,0.1640146374702453,0.0019853105768561,-0.0325285494327545,0.0154243353754282
1772902408323832300,7.972832275390625,-0.1464796066284179,-0.0211038589477539,0.136097252368927,-0.0114537142217159,0.0022907429374754,-0.0059559317305684
1772902408342819300,7.9918193359375,-0.0607190132141113,-0.001021385192871,0.0154997333884239,-0.0138971740379929,0.016951497644186,-0.0224492810666561
1772902408361806300,8.010806396484375,0.1013796329498291,0.029876708984375,-0.0947322994470596,-0.006566796451807,0.0059559317305684,-0.0126754445955157
1772902408380793300,8.02979345703125,0.1399109363555908,0.0313529968261718,-0.1156232208013534,0.0062613640911877,-0.0117591470479965,0.0056504993699491
1772902408399780000,8.048780029296875,0.0983815193176269,0.0202341079711914,-0.0353220924735069,0.0111482823267579,-0.0227547138929367,0.0203112531453371
1772902408418767000,8.06776708984375,-0.0053799152374267,0.025003433227539,0.0618781149387359,0.0068722288124263,-0.0001527161948615,0.0270307660102844
1772902408437754000,8.086754150390625,-0.076564073562622,-0.0113935470581054,0.1212681382894516,-0.0047342018224298,0.0224492810666561,0.0129808764904737
1772902408456741000,8.1057412109375,-0.0446934700012207,-0.0159997940063476,0.0436004623770713,-0.009621120058,0.0407752245664596,0.0038179049734026
1772902408475728100,8.12472802734375,0.0229403972625732,0.0215282440185546,-0.0397209264338016,-0.0022907429374754,0.0200058221817016,0.0025961752980947
1772902408494715000,8.14371484375,0.0842671394348144,0.0066499710083007,-0.0911027938127517,0.0099265528842806,-0.0062613640911877,0.0099265528842806
1772902408513702000,8.162701904296876,0.0846080780029296,-0.0154457092285156,0.0539689660072326,0.0129808764904737,-0.0129808764904737,0.0215329825878143
1772902408532689000,8.18168896484375,0.039332628250122,-0.0250978469848632,0.1248696148395538,0.0062613640911877,-0.0007635809597559,0.0233655776828527
1772902408551676000,8.200676025390624,-0.0430631637573242,-0.0692338943481445,0.1140560507774353,-0.0035124723799526,0.0151189034804701,0.0142026059329509
1772902408570662700,8.21966259765625,-0.0484542846679687,-0.0553646087646484,0.0374433547258377,-0.0077885258942842,0.0114537142217159,-0.0041233371011912
1772902408589649700,8.238649658203125,-0.0139784812927246,0.0082035064697265,-0.0438865981996059,-0.0059559317305684,-0.0080939587205648,-0.0157297682017087
1772902408608636700,8.25763671875,0.0517807006835937,0.0343341827392578,-0.0289383493363857,-0.0004581485991366,-0.0190895237028598,-0.0132863093167543
1772902408627623400,8.27662353515625,0.0775892734527587,0.0190973281860351,-0.0012255236506462,0.0038179049734026,-0.0233655776828527,-0.0004581485991366
1772902408646610400,8.2956103515625,0.0859777927398681,-0.0237655639648437,0.0447121784090995,-0.0004581485991366,-0.0142026059329509,0.0123700117692351
1772902408665597400,8.314597412109375,-0.0104918479919433,-0.0628156661987304,0.0643817782402038,-0.009621120058,-0.0062613640911877,0.0099265528842806
1772902408684584400,8.33358447265625,-0.1041986942291259,-0.0600690841674804,-0.0059043318033218,-0.0120645789429545,-0.0019853105768561,-0.0102319847792387
1772902408703571500,8.352571533203125,-0.0437278747558593,0.0198898315429687,-0.0349048152565956,-0.0077885258942842,-0.0111482823267579,-0.0242818742990493
1772902408722558200,8.37155810546875,0.0216774940490722,0.0483350753784179,-0.0333892032504081,-0.0071776611730456,-0.0227547138929367,-0.0206166859716177
1772902408741545200,8.390545166015626,0.0397825241088867,0.0379800796508789,-0.0750809535384178,-0.0016798780998215,-0.0245873071253299,-0.0102319847792387
