time,seconds_elapsed,acc_z,acc_y,acc_x,gyro_z,gyro_y,gyro_x
1772902376208328000,0.051327880859375,0.0089762210845947,0.0108757019042968,0.0356398224830627,-0.0163406319916248,0.0206166859716177,0.0001527161948615
1772902376227315000,0.07031494140625,0.0449120998382568,-0.0106945037841796,-0.0907544195652008,-0.0071776611730456,0.0132863093167543,0.0025961752980947
1772902376246302000,0.089302001953125,0.0788812637329101,-0.0661849975585937,-0.0505173504352569,0.0013744457392022,0.0022907429374754,0.0123700117692351
1772902376265289000,0.1082890625,0.0318586826324462,-0.1260137557983398,0.0437444150447845,-0.002901607658714,-0.0074830935336649,0.0190895237028598
1772902376284276000,0.12727587890625,-0.065115213394165,-0.1420125961303711,0.0253355801105499,-0.0108428495004773,0.0090102553367614,0.0142026059329509
1772902376303263000,0.146262939453125,-0.1307194232940673,-0.0944747924804687,-0.0034769475460052,-0.0132863093167543,0.0212275516241788,-0.009621120058
1772902376322250000,0.16525,-0.0543708801269531,0.016632080078125,-0.0831125974655151,-0.0041233371011912,0.0200058221817016,-0.0218384154140949
1772902376341237000,0.184237060546875,0.0578715801239013,0.037755012512207,-0.1019590497016906,0.0068722288124263,0.0077885258942842,-0.0138971740379929
1772902376360224300,0.203224365234375,0.0622801780700683,0.0033378601074218,0.021864116191864,0.0013744457392022,-0.0074830935336649,-0.0022907429374754
1772902376379211300,0.222211181640625,-0.0534324645996093,-0.0294694900512695,0.1006068885326385,-0.0102319847792387,0.0053450670093297,0.0007635809597559
1772902376398198000,0.241197998046875,-0.0812752246856689,-0.0155410766601562,0.0524083077907562,-0.0181732270866632,0.0187840927392244,-0.0059559317305684
1772902376417185300,0.260185302734375,-0.004969835281372,-0.0108795166015625,-0.0226403772830963,-0.0138971740379929,0.0200058221817016,-0.009621120058
1772902376436172300,0.27917236328125,0.0951192378997802,0.021148681640625,-0.0837284326553344,-0.0059559317305684,0.0138971740379929,0.0019853105768561
1772902376455159300,0.2981591796875,0.0903346538543701,0.0072546005249023,-0.0818794071674346,-0.0016798780998215,0.0053450670093297,0.0148134706541895
1772902376474146300,0.317146240234375,-0.001713752746582,0.0224361419677734,-0.075532853603363,0.0050396346487104,-0.0032070400193333,0.0135917412117123
1772902376493133300,0.33613330078125,-0.0526895523071289,-0.01171875,-0.0154355466365814,0.0056504993699491,0.0004581485991366,0.0074830935336649
1772902376512120300,0.355120361328125,-0.0633802413940429,-0.0087442398071289,0.0889967381954193,-0.0053450670093297,0.0138971740379929,-0.002901607658714
1772902376531107600,0.374107666015625,-0.016770601272583,-0.0235748291015625,0.0523845851421356,-0.0138971740379929,0.0328339822590351,-0.0035124723799526
1772902376550094600,0.393094482421875,0.0192270278930664,-0.01116943359375,-0.0066128373146057,-0.0071776611730456,0.0432186834514141,0.0019853105768561
1772902376569081600,0.41208154296875,0.0264325141906738,-0.0197429656982421,-0.0288942456245422,-0.0016798780998215,0.0328339822590351,0.0050396346487104
1772902376588068600,0.431068603515625,0.066838264465332,0.0105772018432617,0.020451933145523,-0.0053450670093297,0.0291687939316034,0.0154243353754282
1772902376607055600,0.4500556640625,0.066408634185791,0.0662517547607421,0.0836144387722015,-0.0163406319916248,0.0371100343763828,0.0282524954527616
1772902376626042600,0.469042724609375,-0.0005457401275634,0.032057762145996,0.0654072165489196,-0.0224492810666561,0.0456621423363685,0.0313068181276321
1772902376645029600,0.488029541015625,-0.0370540618896484,-0.037322998046875,0.0252233147621154,-0.0242818742990493,0.0426078177988529,0.0239764433354139
1772902376664016600,0.5070166015625,-0.0627126693725586,-0.0620450973510742,-0.014794111251831,-0.0187840927392244,0.0261144693940877,0.0154243353754282
1772902376683003600,0.526003662109375,-0.0287463665008544,-0.0809507369995117,-0.07710000872612,-0.0016798780998215,0.0212275516241788,0.0038179049734026
1772902376701991000,0.544990966796875,-0.0515477657318115,-0.0756044387817382,0.0426538288593292,-0.0090102553367614,0.0004581485991366,-0.0077885258942842
1772902376720978000,0.56397802734375,-0.0398313999176025,-0.0681428909301757,0.0267850160598754,-0.0022907429374754,0.0224492810666561,-0.0126754445955157
1772902376739965000,0.58296484375,0.0506949424743652,-0.0046100616455078,0.0979741513729095,-0.009621120058,0.0187840927392244,-0.0090102553367614
1772902376758952000,0.601951904296875,0.0577633380889892,0.0330581665039062,0.0504299402236938,-0.0114537142217159,0.0083993906155228,-0.0022907429374754
1772902376777939000,0.62093896484375,0.0723004341125488,0.0088090896606445,-0.0155367255210876,-0.002901607658714,-0.0062613640911877,0.0013744457392022
1772902376796926000,0.639926025390625,0.0075829029083251,0.012786865234375,0.0341890454292297,-0.0016798780998215,-0.0099265528842806,0.0038179049734026
1772902376815913000,0.658912841796875,-0.0600626468658447,-0.0247697830200195,0.0639750361442565,-0.0035124723799526,-0.0050396346487104,0.0001527161948615
1772902376834900000,0.67789990234375,-0.0262794494628906,-0.0494003295898437,0.0465719997882843,-0.0053450670093297,0.002901607658714,-0.006566796451807
1772902376853887000,0.696886962890625,-0.0149581432342529,-0.0146703720092773,0.027924507856369,-0.0090102553367614,0.0071776611730456,-0.0083993906155228
1772902376872874000,0.7158740234375,0.028749942779541,0.0444240570068359,-0.0654234886169433,-0.0016798780998215,0.0022907429374754,-0.0059559317305684
1772902376891861200,0.734861328125,0.0560801029205322,0.0124006271362304,-0.0831729471683502,0.0105374176055192,-0.0074830935336649,0.0013744457392022
1772902376910848300,0.75384814453125,0.0763695240020752,0.0086746215820312,0.0126322209835052,0.0099265528842806,-0.0105374176055192,0.0129808764904737
1772902376929835300,0.772835205078125,-0.0263302326202392,-0.0511035919189453,0.066960871219635,0.0007635809597559,-0.0001527161948615,0.0135917412117123
1772902376948822300,0.791822265625,-0.0902352333068847,-0.0306968688964843,0.0354061424732208,-0.0041233371011912,0.0151189034804701,-0.0022907429374754
1772902376967809300,0.810809326171875,-0.0280389785766601,0.0131645202636718,-0.06778085231781,0.0025961752980947,0.0071776611730456,-0.0090102553367614
1772902376986796300,0.82979638671875,0.0743086338043212,0.0360736846923828,-0.1437388956546783,0.0215329825878143,-0.0245873071253299,-0.0010690133785828
1772902377005783300,0.848783203125,0.0544900894165039,-0.0172080993652343,-0.031235784292221,0.0251981727778911,-0.0447458438575267,0.0135917412117123
1772902377024770300,0.867770263671875,-0.0689330101013183,-0.0337944030761718,0.1709427237510681,0.0080939587205648,-0.0325285494327545,0.0129808764904737
1772902377043757300,0.88675732421875,-0.1131038665771484,0.0095710754394531,0.2053651511669159,-0.0126754445955157,-0.0080939587205648,-0.0041233371011912
1772902377062744600,0.90574462890625,-0.022554874420166,0.0193548202514648,0.069303423166275,-0.0163406319916248,0.0175623632967472,-0.0120645789429545
1772902377081731600,0.924731689453125,0.1102478504180908,0.011733055114746,-0.0767605900764465,-0.009621120058,0.0193949565291404,-0.0016798780998215
1772902377100718600,0.943718505859375,0.1097674369812011,-0.0241804122924804,-0.1271532773971557,0.0001527161948615,0.0010690133785828,0.009315688163042
1772902377119705600,0.96270556640625,0.0190117359161376,-0.0285234451293945,-0.1200727522373199,0.0080939587205648,-0.0184786599129438,0.0074830935336649
1772902377138692600,0.981692626953125,-0.0580964088439941,-0.0088882446289062,-0.0065600574016571,0.0111482823267579,-0.0135917412117123,-0.0010690133785828
1772902377157679600,1.0006796875,-0.0352275371551513,-0.0345277786254882,0.0628039836883544,0.0025961752980947,0.0083993906155228,-0.0010690133785828
1772902377176666600,1.01966650390625,-0.0155649185180664,-0.0543956756591796,0.0220676958560943,-0.0010690133785828,0.0291687939316034,-0.0010690133785828
1772902377195653600,1.038653564453125,0.0151903629302978,0.0060443878173828,-0.076070636510849,0.0056504993699491,0.0224492810666561,-0.002901607658714
1772902377214640600,1.057640625,0.0252943038940429,-0.0055484771728515,-0.1113932728767395,0.0203112531453371,-0.0032070400193333,-0.0090102553367614
1772902377233628000,1.0766279296875,0.048354148864746,0.0065517425537109,0.0420781970024108,0.019700389355421,-0.0184786599129438,-0.009621120058
1772902377252615000,1.095614990234375,0.0596036911010742,0.0298366546630859,0.1312148869037628,0.0044287694618105,-0.0123700117692351,-0.0041233371011912
1772902377271602000,1.114601806640625,0.0087032318115234,-0.0204324722290039,0.0923198163509368,-0.0035124723799526,0.002901607658714,0.0007635809597559
1772902377290589000,1.1335888671875,-0.0175502300262451,-0.031172752380371,0.0249396860599517,-0.0022907429374754,0.0157297682017087,-0.0010690133785828
1772902377309576000,1.152575927734375,-0.0175278186798095,-0.025217056274414,-0.0122129321098327,-0.002901607658714,0.0083993906155228,-0.0047342018224298
1772902377328563000,1.17156298828125,-0.0206022262573242,-0.0121088027954101,-0.0513264536857605,-0.0041233371011912,-0.0087048234418034,-0.0071776611730456
1772902377347550000,1.190550048828125,-0.00327730178833,0.021681785583496,-0.0672563016414642,0.0025961752980947,-0.0233655776828527,-0.0126754445955157
1772902377366537000,1.209536865234375,0.0410876274108886,0.00555419921875,-0.0439883470535278,0.0068722288124263,-0.0203112531453371,-0.0114537142217159
1772902377385524000,1.22852392578125,0.0597395896911621,0.0308828353881835,0.0536588728427886,0.0038179049734026,-0.0062613640911877,-0.0022907429374754
1772902377404511000,1.247510986328125,0.0371191501617431,0.045912742614746,0.040281057357788,-0.0016798780998215,0.0059559317305684,0.0044287694618105
1772902377423498200,1.266498291015625,-0.007340669631958,-0.0071277618408203,0.0356548130512237,-0.0047342018224298,0.009621120058,0.0056504993699491
1772902377442485000,1.285485107421875,-0.0302097797393798,-0.0188159942626953,-0.0108433663845062,-0.0041233371011912,0.0138971740379929,0.0007635809597559
1772902377461472300,1.30447216796875,-0.0530064105987548,-0.0484952926635742,-0.0094908773899078,-0.0016798780998215,0.016951497644186,-0.0047342018224298
1772902377480459300,1.323459228515625,-0.0460383892059326,-0.0349197387695312,-0.0181615948677063,0.0019853105768561,0.0071776611730456,-0.0120645789429545
1772902377499446300,1.3424462890625,0.0237388610839843,0.0226650238037109,-0.0111868977546691,0.0032070400193333,-0.0105374176055192,-0.0090102553367614
1772902377518433300,1.361433349609375,0.027228832244873,0.0196123123168945,0.0281878411769866,0.0050396346487104,-0.0019853105768561,0.0001527161948615
1772902377537420300,1.380420166015625,0.0195105075836181,0.0351190567016601,0.0476604402065277,0.0013744457392022,-0.0050396346487104,0.0032070400193333
1772902377556407300,1.3994072265625,-8.10623168945e-05,0.0154495239257812,-0.0058909058570861,0.0038179049734026,-0.0038179049734026,-0.0010690133785828
1772902377575394300,1.418394287109375,0.0231094360351562,0.0104608535766601,0.0428371429443359,0.0032070400193333,-0.0013744457392022,0.0001527161948615
1772902377594381300,1.43738134765625,0.0443558692932128,-0.027165412902832,0.0770702958106994,-0.0059559317305684,0.0004581485991366,0.0056504993699491
1772902377613368300,1.456368408203125,-0.0352270603179931,-0.0589618682861328,0.0091845393180847,-0.0114537142217159,0.0132863093167543,0.0044287694618105
1772902377632355300,1.475355224609375,-0.0576038360595703,-0.0380334854125976,-0.0796726942062377,-0.006566796451807,0.0145080387592315,-0.0071776611730456
1772902377651342600,1.494342529296875,-0.0339875221252441,0.0450124740600585,-0.1695606708526611,0.0142026059329509,-0.0080939587205648,-0.009621120058
1772902377670329600,1.51332958984375,0.085695743560791,0.0335187911987304,-0.1189857423305511,0.0300850905478,-0.0368046015501022,0.0032070400193333
1772902377689316600,1.532316650390625,0.0803885459899902,-0.0406532287597656,0.088904321193695,0.0166460648179054,-0.0423023849725723,0.0172569304704666
1772902377708303600,1.5513037109375,-0.0597124099731445,-0.0075674057006835,0.1967603862285614,-0.0071776611730456,-0.0178677942603826,0.0166460648179054
1772902377727290600,1.57029052734375,-0.1010177135467529,0.0227870941162109,0.0901705920696258,-0.0151189034804701,0.0187840927392244,-0.0010690133785828
1772902377746277600,1.589277587890625,0.0085997581481933,0.0040750503540039,-0.0683378875255584,-0.006566796451807,0.0297796577215194,-0.0108428495004773
1772902377765264600,1.6082646484375,0.105687141418457,0.013040542602539,-0.1229970455169677,0.0019853105768561,0.0175623632967472,0.0013744457392022
1772902377784251600,1.627251708984375,0.0569546222686767,-0.0345363616943359,-0.0990767180919647,0.009315688163042,-0.0123700117692351,0.0105374176055192
1772902377803238700,1.64623876953125,-0.0583956241607666,-0.0456266403198242,-0.0527517795562744,0.0154243353754282,-0.0306959543377161,0.0044287694618105
1772902377822225700,1.6652255859375,-0.0988004207611084,-0.0348730087280273,0.0788142383098602,0.0123700117692351,-0.0099265528842806,-0.0059559317305684
1772902377841213000,1.684212890625,-0.0436863899230957,-0.0098161697387695,0.1321733891963958,-0.0016798780998215,0.0132863093167543,-0.0138971740379929
1772902377860199700,1.70319970703125,0.0329837799072265,0.0096759796142578,0.0528469979763031,-0.0083993906155228,0.0224492810666561,-0.0090102553367614
1772902377879187000,1.72218701171875,0.0661022663116455,-0.0327577590942382,-0.071658968925476,0.0019853105768561,0.0077885258942842,-0.0041233371011912
1772902377898174000,1.741174072265625,0.0414350032806396,-0.0172376632690429,-0.0931485891342163,0.0166460648179054,-0.0251981727778911,-0.0090102553367614
1772902377917161000,1.760160888671875,0.0333595275878906,0.025726318359375,-0.0039883255958557,0.0172569304704666,-0.0398589260876178,-0.0114537142217159
1772902377936148000,1.77914794921875,-0.0143506526947021,0.0137414932250976,0.1398814916610717,0.0001527161948615,-0.0313068181276321,-0.0126754445955157
1772902377955135000,1.798135009765625,-0.0447096824645996,-0.0159969329833984,0.1005460619926452,-0.0083993906155228,-0.0032070400193333,-0.0175623632967472
1772902377974122000,1.8171220703125,0.0147938728332519,-0.0472364425659179,0.0197964012622833,-0.006566796451807,0.0059559317305684,-0.0132863093167543
1772902377993109000,1.83610888671875,0.1002724170684814,-0.0034904479980468,-0.0619452893733978,-0.0016798780998215,0.0004581485991366,0.0019853105768561
1772902378012096000,1.855095947265625,0.0189499855041503,0.0335597991943359,-0.0769294500350952,0.0032070400193333,-0.0184786599129438,0.009315688163042
1772902378031083000,1.8740830078125,-0.0705153942108154,0.0461502075195312,-0.0564112961292266,0.0087048234418034,-0.0380263328552246,-0.0035124723799526
1772902378050070000,1.893070068359375,-0.0608024597167968,0.0122976303100585,0.0240814089775085,0.0056504993699491,-0.0313068181276321,-0.009621120058
1772902378069057300,1.912057373046875,-0.022803783416748,-0.0018844604492187,0.0949810147285461,-0.0047342018224298,-0.0099265528842806,-0.0047342018224298
1772902378088044300,1.931044189453125,-0.0052471160888671,-0.0396203994750976,0.0939282774925232,-0.0114537142217159,0.0132863093167543,0.0050396346487104
1772902378107031300,1.95003125,-0.0598580837249755,-0.0336132049560546,0.0383109748363494,-0.0145080387592315,0.0242818742990493,0.0068722288124263
1772902378126018300,1.969018310546875,-0.079087495803833,-0.0066862106323242,-0.0444672107696533,-0.0083993906155228,0.0108428495004773,-0.0053450670093297
1772902378145005300,1.98800537109375,-0.0526084899902343,0.0220289230346679,-0.0915431976318359,-0.0016798780998215,-0.0129808764904737,-0.0108428495004773
1772902378163992300,2.006992431640625,0.0503656864166259,0.0824527740478515,-0.054489254951477,-0.002901607658714,-0.0337502807378768,-0.0053450670093297
1772902378182979300,2.025979248046875,0.0609786510467529,0.076761245727539,-0.0545141696929931,0.0013744457392022,-0.0294742248952388,0.009315688163042
1772902378201966300,2.04496630859375,0.0010514259338378,0.0407361984252929,0.0137606263160705,0.0050396346487104,-0.0074830935336649,0.0190895237028598
1772902378220953300,2.063953369140625,-0.0748867988586425,-0.0575227737426757,0.0455409288406372,0.0013744457392022,0.0102319847792387,0.0178677942603826
1772902378239940400,2.0829404296875,-0.1198747158050537,-0.0743942260742187,0.0296490490436553,-0.0059559317305684,0.0242818742990493,0.0044287694618105
1772902378258927600,2.101927734375,-0.0491490364074707,-0.0086650848388671,-0.0371376574039459,-0.0077885258942842,0.0071776611730456,-0.0083993906155228
1772902378277914400,2.120914306640625,0.0400898456573486,0.0243644714355468,-0.0798231959342956,0.0007635809597559,-0.0025961752980947,-0.0047342018224298
1772902378296901600,2.139901611328125,0.083414077758789,0.0115880966186523,-0.0324771404266357,0.0099265528842806,-0.0062613640911877,0.0044287694618105
1772902378315888600,2.158888671875,0.0263476371765136,-0.0123443603515625,0.0629661381244659,0.0050396346487104,0.0083993906155228,0.0111482823267579
1772902378334875600,2.177875732421875,-0.0591139793395996,-0.0310554504394531,0.0649129450321197,-0.0047342018224298,0.0371100343763828,0.0056504993699491
1772902378353862700,2.196862548828125,-0.056685447692871,0.042454719543457,-0.0134908556938171,-0.0047342018224298,0.0371100343763828,-0.002901607658714
1772902378372849700,2.215849609375,-0.0111835002899169,0.0062170028686523,-0.1155834197998046,0.0105374176055192,0.0193949565291404,-0.0035124723799526
1772902378391836700,2.234836669921875,0.0237293243408203,-0.0476722717285156,-0.0536207854747772,0.0160352010279893,-0.0105374176055192,-0.0010690133785828
1772902378410823700,2.25382373046875,0.0762202739715576,-0.0458879470825195,0.0044092833995819,0.0117591470479965,-0.0459675751626491,0.0013744457392022
1772902378429810700,2.272810791015625,0.0435786247253418,-0.00506591796875,0.0990156829357147,0.0038179049734026,-0.0392480604350566,0.0044287694618105
1772902378448797700,2.291797607421875,-0.0324523448944091,0.0488452911376953,0.1440914273262024,-0.0035124723799526,-0.0105374176055192,-0.002901607658714
1772902378467784700,2.31078466796875,0.0054452419281005,0.0468940734863281,0.0827949047088623,-0.0090102553367614,0.0193949565291404,-0.0016798780998215
1772902378486772000,2.32977197265625,0.0598156452178955,0.0544319152832031,-0.0170603990554809,-0.009621120058,0.0364991687238216,0.0068722288124263
1772902378505759000,2.348759033203125,0.0099570751190185,0.0082950592041015,-0.1127319633960723,-0.0022907429374754,0.0114537142217159,0.0056504993699491
1772902378524746000,2.36774609375,-0.0273928642272949,-0.0737943649291992,-0.1288018524646759,0.0099265528842806,-0.0105374176055192,-0.0010690133785828
1772902378543733000,2.38673291015625,-0.0484018325805664,-0.0854043960571289,-0.0321297943592071,0.0129808764904737,-0.0166460648179054,-0.0059559317305684
1772902378562720000,2.405719970703125,-0.0486233234405517,-0.0378265380859375,0.031094491481781,0.0135917412117123,-0.0074830935336649,-0.0114537142217159
1772902378581707000,2.42470703125,0.0117619037628173,0.0390167236328125,0.0273908972740173,0.0111482823267579,-0.0074830935336649,-0.0077885258942842
1772902378600694000,2.443694091796875,0.0155444145202636,0.0515651702880859,0.0622035562992095,0.0056504993699491,-0.0117591470479965,0.0001527161948615
1772902378619681000,2.462680908203125,0.0268764495849609,0.054412841796875,0.0472830235958099,0.0007635809597559,-0.0129808764904737,0.0025961752980947
1772902378638668000,2.48166796875,-0.0112900733947753,-0.0100641250610351,0.0452115535736084,-0.002901607658714,-0.0062613640911877,-0.0010690133785828
1772902378657655000,2.500655029296875,-0.0469202995300293,-0.0674924850463867,0.0401622354984283,-0.0053450670093297,0.009621120058,-0.009621120058
1772902378676642000,2.51964208984375,-0.0196626186370849,-0.0250272750854492,0.0084258317947387,-0.0108428495004773,0.0126754445955157,-0.0102319847792387
1772902378695629000,2.538629150390625,0.0402686595916748,0.0091972351074218,-0.0669054388999939,-0.0083993906155228,0.0035124723799526,-0.0053450670093297
1772902378714616000,2.557615966796875,0.0203273296356201,0.0320148468017578,-0.1111050546169281,0.0013744457392022,-0.0062613640911877,0.0019853105768561
1772902378733603300,2.576603271484375,-0.021446943283081,0.0585231781005859,-0.0663380324840545,0.0056504993699491,-0.0062613640911877,0.0050396346487104
1772902378752590000,2.595590087890625,-0.0181241035461425,0.0264167785644531,-0.0426017045974731,0.0074830935336649,-0.0074830935336649,0.0013744457392022
1772902378771577300,2.614577392578125,-0.0238912105560302,0.0209569931030273,0.0111959278583526,0.0056504993699491,-0.0062613640911877,0.0019853105768561
1772902378790564400,2.633564453125,0.0007543563842773,-0.0217170715332031,0.0147218108177185,0.0013744457392022,-0.0050396346487104,0.0038179049734026
1772902378809551400,2.65255126953125,0.0057926177978515,-0.0236577987670898,0.0049325227737426,0.0013744457392022,0.0071776611730456,0.0032070400193333
1772902378828538400,2.671538330078125,-0.00994873046875,-0.0371665954589843,0.0078046321868896,0.0001527161948615,0.0157297682017087,0.0019853105768561
1772902378847525400,2.690525390625,-0.0214478969573974,0.0015649795532226,-0.0175130665302276,-0.0010690133785828,0.006566796451807,-0.0035124723799526
1772902378866512400,2.709512451171875,-0.0026559829711914,0.0199928283691406,-0.0402790009975433,0.0019853105768561,-0.0019853105768561,-0.0016798780998215
1772902378885499400,2.72849951171875,-0.0007562637329101,-0.0063199996948242,-0.0064044594764709,0.0007635809597559,-0.0068722288124263,-0.0004581485991366
1772902378904486400,2.747486328125,0.0229182243347167,-0.0015802383422851,-0.004791647195816,0.0013744457392022,-0.0044287694618105,0.0044287694618105
1772902378923473400,2.766473388671875,-0.0143220424652099,-0.0227546691894531,0.0027155876159667,-0.0004581485991366,0.0108428495004773,0.0013744457392022
1772902378942460400,2.78546044921875,-0.0264990329742431,-0.0027055740356445,-0.0204362571239471,0.0001527161948615,-0.0007635809597559,-0.0083993906155228
1772902378961447700,2.80444775390625,0.0123383998870849,0.0280952453613281,-0.0508032143115997,0.0080939587205648,-0.0050396346487104,-0.0090102553367614
1772902378980434700,2.8234345703125,0.0452883243560791,-0.0075006484985351,0.0309384763240814,0.009315688163042,-0.0080939587205648,-0.006566796451807
1772902378999421700,2.842421630859375,0.0388791561126709,-0.0493221282958984,0.1068293452262878,-0.0035124723799526,0.006566796451807,-0.0004581485991366
1772902379018408700,2.86140869140625,-0.0378544330596923,-0.0332012176513671,0.0379757583141326,-0.0120645789429545,0.0157297682017087,-0.0071776611730456
1772902379037395700,2.880395751953125,-0.0012989044189453,0.0131549835205078,-0.059383600950241,-0.0041233371011912,0.0163406319916248,-0.0151189034804701
1772902379056382700,2.8993828125,0.0622148513793945,0.0833663940429687,-0.127596229314804,0.0099265528842806,0.0047342018224298,-0.0108428495004773
1772902379075369700,2.91836962890625,0.0663988590240478,0.0151500701904296,-0.0418716967105865,0.0117591470479965,-0.0099265528842806,-0.0010690133785828
1772902379094356700,2.937356689453125,0.0181348323822021,-0.0536613464355468,0.0748994052410125,0.0007635809597559,-0.0074830935336649,0.0056504993699491
1772902379113343700,2.95634375,-0.0779714584350586,-0.0189418792724609,0.04974827170372,-0.0071776611730456,0.0035124723799526,-0.002901607658714
1772902379132330800,2.975330810546875,-0.072824478149414,-0.0126142501831054,-0.0018863677978515,-0.0004581485991366,0.0090102553367614,-0.016951497644186
1772902379151317800,2.99431787109375,0.0551888942718505,0.0301942825317382,-0.0201325118541717,0.0025961752980947,0.0083993906155228,-0.0108428495004773
1772902379170304800,3.0133046875,0.1001007556915283,0.0430164337158203,0.0151249766349792,0.0013744457392022,0.0041233371011912,0.0032070400193333
1772902379189291800,3.032291748046875,0.0627944469451904,0.0157022476196289,0.0123438239097595,-0.0010690133785828,-0.0080939587205648,0.0080939587205648
1772902379208279000,3.051279052734375,-0.0194830894470214,0.0031709671020507,-0.0067208707332611,0.0001527161948615,-0.0044287694618105,0.0068722288124263
1772902379227266000,3.07026611328125,-0.0535049438476562,-0.041701316833496,0.0434567034244537,-0.0041233371011912,0.0083993906155228,0.0001527161948615
1772902379246252800,3.089252685546875,-0.021888256072998,-0.0611782073974609,0.0726011991500854,-0.0114537142217159,0.0230601448565721,-0.0035124723799526
1772902379265240000,3.108239990234375,0.0131435394287109,-0.0266494750976562,-0.0317767560482025,-0.0071776611730456,0.0242818742990493,-0.0035124723799526
1772902379284227000,3.12722705078125,0.0287795066833496,0.0111513137817382,-0.0957905650138855,0.0068722288124263,0.0071776611730456,0.0001527161948615
1772902379303214000,3.146214111328125,0.0277175903320312,0.0127239227294921,-0.0478091239929199,0.0111482823267579,-0.0123700117692351,0.0013744457392022
1772902379322201000,3.165201171875,0.0178046226501464,0.0142621994018554,0.0497002303600311,0.0068722288124263,-0.0135917412117123,0.0025961752980947
1772902379341188000,3.18418798828125,-0.0407438278198242,0.0042934417724609,0.1158710718154907,-0.0016798780998215,0.0102319847792387,0.0007635809597559
1772902379360175000,3.203175048828125,-0.0117468833923339,-0.0404634475708007,0.0648695826530456,-0.006566796451807,0.0248927399516105,-0.0047342018224298
1772902379379162000,3.222162109375,0.0206606388092041,-0.0533857345581054,-0.0162670016288757,-0.006566796451807,0.0206166859716177,-0.0041233371011912
1772902379398149400,3.2411494140625,0.0309433937072753,-0.0094022750854492,-0.0759642720222473,0.0001527161948615,-0.0050396346487104,-0.0035124723799526
1772902379417136000,3.26013623046875,0.0057766437530517,0.0116834640502929,-0.0378542840480804,0.0062613640911877,-0.0203112531453371,-0.0022907429374754
1772902379436123100,3.279123046875,0.0383908748626709,0.0484352111816406,0.038706362247467,0.0062613640911877,-0.009315688163042,0.0013744457392022
1772902379455110400,3.2981103515625,0.02193284034729,0.0256710052490234,0.0745736956596374,-0.002901607658714,0.0022907429374754,0.0074830935336649
1772902379474097400,3.317097412109375,0.0088613033294677,0.0009498596191406,0.0220315158367156,-0.0059559317305684,0.0035124723799526,0.009315688163042
1772902379493084400,3.33608447265625,-0.0020563602447509,-0.0229501724243164,-0.0152682960033416,-0.0041233371011912,-0.0105374176055192,0.0056504993699491
1772902379512071400,3.355071533203125,-0.0322036743164062,-0.0620298385620117,-0.0099446475505828,-0.0016798780998215,-0.0074830935336649,-0.0010690133785828
1772902379531058400,3.374058349609375,-0.0300343036651611,-0.0222406387329101,0.0350642204284668,-0.0022907429374754,0.0022907429374754,-0.0090102553367614
1772902379550045400,3.39304541015625,0.0230281352996826,0.0096025466918945,0.0045544803142547,-0.0053450670093297,0.0041233371011912,-0.0077885258942842
1772902379569032400,3.412032470703125,0.0283930301666259,0.0301923751831054,-0.0672943294048309,-0.0016798780998215,-0.0007635809597559,-0.0010690133785828
1772902379588019500,3.43101953125,0.0372943878173828,0.0362148284912109,-0.0448948144912719,0.0038179049734026,-0.0087048234418034,0.0056504993699491
1772902379607006500,3.45000634765625,-0.0162622928619384,-0.0331888198852539,-0.0068728327751159,0.0074830935336649,0.006566796451807,0.0074830935336649
1772902379625993500,3.468993408203125,-0.0029287338256835,-0.0232534408569335,0.0712894797325134,-0.0022907429374754,0.0175623632967472,0.0044287694618105
1772902379644980700,3.487980712890625,-0.0378510951995849,-0.0217475891113281,0.0032365024089813,-0.009621120058,0.009621120058,-0.0071776611730456
1772902379663967500,3.506967529296875,-0.0483949184417724,0.0007734298706054,-0.0208609998226165,-0.0059559317305684,0.0041233371011912,-0.0175623632967472
1772902379682954800,3.525954833984375,0.0339593887329101,0.0043745040893554,0.0260332226753234,-0.0059559317305684,0.0163406319916248,-0.0163406319916248
1772902379701941800,3.544941650390625,0.0710783004760742,0.0395679473876953,0.0524640381336212,-0.0132863093167543,0.0456621423363685,-0.0047342018224298
1772902379720928800,3.5639287109375,0.0014448165893554,0.0013952255249023,-0.0034911036491394,-0.0206166859716177,0.0664315447211265,-0.0010690133785828
1772902379739915800,3.582915771484375,-0.0127949714660644,0.0160531997680664,-0.196691632270813,-0.0071776611730456,0.0499381944537162,-0.0059559317305684
1772902379758902800,3.60190283203125,-0.0135061740875244,-0.0030126571655273,-0.2252647876739502,0.0172569304704666,0.0145080387592315,-0.0059559317305684
1772902379777889800,3.620889892578125,-0.037830114364624,-0.0329761505126953,-0.0869795382022857,0.0251981727778911,-0.0099265528842806,-0.0077885258942842
1772902379796876800,3.639876708984375,-0.0291383266448974,-0.050027847290039,0.1247220933437347,0.0105374176055192,-0.0142026059329509,-0.0108428495004773
1772902379815863800,3.65886376953125,-0.0465064048767089,0.0228710174560546,0.1723650693893432,-0.0102319847792387,0.0090102553367614,-0.0126754445955157
1772902379834850800,3.677850830078125,-0.0117757320404052,0.0366525650024414,0.0673255026340484,-0.0138971740379929,0.0303905233740806,-0.0108428495004773
1772902379853837800,3.696837890625,0.0646054744720459,0.0916366577148437,0.0108344256877899,-0.0102319847792387,0.0279470644891262,-0.0059559317305684
1772902379872824800,3.715824951171875,0.0625615119934082,0.0772819519042968,0.0274280309677124,-0.009621120058,0.016951497644186,0.0019853105768561
1772902379891812000,3.73481201171875,0.055490493774414,0.0345773696899414,0.0296821296215057,-0.0145080387592315,0.009621120058,0.0135917412117123
1772902379910798800,3.753798828125,-0.0172803401947021,-0.0377197265625,0.0035914480686187,-0.0138971740379929,0.0132863093167543,0.0227547138929367
1772902379929786000,3.7727861328125,-0.1085033416748046,-0.0450477600097656,-0.0337545275688171,-0.0090102553367614,0.016951497644186,0.019700389355421
1772902379948773000,3.791773193359375,-0.1260609626770019,-0.0184059143066406,0.0399401783943176,-0.0090102553367614,0.0261144693940877,0.0074830935336649
1772902379967760100,3.810760009765625,-0.086254596710205,-0.0017862319946289,0.0252104997634887,-0.0108428495004773,0.0242818742990493,0.0001527161948615
1772902379986747100,3.8297470703125,0.0218269824981689,0.0031709671020507,-0.0753543376922607,0.0056504993699491,0.0077885258942842,-0.0004581485991366
1772902380005734100,3.848734130859375,0.140906810760498,-0.0071334838867187,-0.0714825391769409,0.0221438482403755,-0.0190895237028598,0.0099265528842806
1772902380024721200,3.86772119140625,0.0831637382507324,-0.0221853256225585,0.0567131638526916,0.0203112531453371,-0.0178677942603826,0.0203112531453371
1772902380043708200,3.886708251953125,-0.030815839767456,-0.0244693756103515,0.1739715337753296,0.0019853105768561,-0.0038179049734026,0.0135917412117123
1772902380062695200,3.905695068359375,-0.1088051795959472,-0.012221336364746,0.0777891874313354,-0.0035124723799526,0.0071776611730456,-0.0016798780998215
1772902380081682200,3.92468212890625,-0.034055471420288,0.0049915313720703,-0.0694449543952941,0.0056504993699491,-0.0007635809597559,-0.0071776611730456
1772902380100669200,3.943669189453125,0.0364043712615966,-0.0067205429077148,-0.082122653722763,0.0166460648179054,-0.0203112531453371,-0.0016798780998215
1772902380119656200,3.96265625,0.0801808834075927,0.0421104431152343,-0.0093502104282379,0.0117591470479965,-0.0453567095100879,0.009315688163042
1772902380138643500,3.9816435546875,0.002507209777832,0.007354736328125,0.0245092809200286,0.0087048234418034,-0.0398589260876178,0.0148134706541895
1772902380157630200,4.000630126953125,-0.0053009986877441,0.0251283645629882,0.0179983377456665,0.0068722288124263,-0.0355828739702701,0.0087048234418034
1772902380176617500,4.019617431640625,-0.0162606239318847,-0.0182170867919921,-0.0135107934474945,0.0074830935336649,-0.0300850905478,0.0050396346487104
1772902380195604500,4.0386044921875,-0.0132200717926025,-0.0413551330566406,-0.0155527591705322,0.0062613640911877,-0.0245873071253299,0.0038179049734026
1772902380214591500,4.057591552734375,-0.00089693069458,-0.0426225662231445,-0.0244004428386688,0.0038179049734026,-0.0276416316628456,0.0019853105768561
1772902380233578500,4.07657861328125,0.0224595069885253,-0.0226507186889648,-0.018433004617691,0.0062613640911877,-0.0215329825878143,0.0025961752980947
1772902380252565500,4.0955654296875,-0.0218496322631835,-0.0178070068359375,-0.0148332715034484,0.0056504993699491,-0.0080939587205648,0.0038179049734026
1772902380271552500,4.114552490234375,-0.0256998538970947,-0.0033121109008789,-0.0268091857433319,0.0050396346487104,0.0010690133785828,-0.0004581485991366
1772902380290539500,4.13353955078125,0.002751350402832,0.0085964202880859,-0.0500606298446655,0.0044287694618105,0.0004581485991366,-0.0041233371011912
1772902380309526500,4.152526611328125,0.04716157913208,0.0061750411987304,-0.0613052248954772,0.0032070400193333,-0.0105374176055192,-0.0004581485991366
1772902380328513500,4.171513427734375,0.0463602542877197,-0.0062255859375,-0.0583070516586303,0.0068722288124263,-0.0111482823267579,0.0080939587205648
1772902380347500500,4.19050048828125,-0.0002412796020507,-0.0459280014038085,-0.0166179835796356,0.0117591470479965,-0.0025961752980947,0.009315688163042
1772902380366487600,4.209487548828125,-0.0671973228454589,-0.0655508041381836,0.0506802201271057,0.0056504993699491,0.0108428495004773,-0.0010690133785828
1772902380385474600,4.228474609375,-0.0433902740478515,0.0167484283447265,-0.0025097727775573,-0.0016798780998215,-0.0025961752980947,-0.0145080387592315
1772902380404461600,4.247461669921875,0.0090632438659667,0.0448579788208007,-0.0871447920799255,0.0056504993699491,-0.0154243353754282,-0.0157297682017087
1772902380423448800,4.26644873046875,0.0459563732147216,0.0132684707641601,-0.0239382684230804,0.0074830935336649,-0.0306959543377161,-0.0108428495004773
1772902380442435800,4.285435791015625,0.0079584121704101,-0.0035066604614257,0.0308310091495513,0.0007635809597559,-0.0294742248952388,-0.0059559317305684
1772902380461422800,4.3044228515625,-0.0430047512054443,-0.0422086715698242,0.0607118010520935,-0.009621120058,-0.0044287694618105,-0.0102319847792387
1772902380480409900,4.323409912109375,0.0032181739807128,-0.0005321502685546,-0.013781189918518,-0.0083993906155228,0.0206166859716177,-0.0108428495004773
1772902380499396900,4.34239697265625,0.0396530628204345,0.0436782836914062,-0.117437869310379,0.0068722288124263,0.0200058221817016,-0.0022907429374754
1772902380518383900,4.3613837890625,0.0199623107910156,0.002171516418457,-0.0736725628376007,0.0178677942603826,0.002901607658714,0.0019853105768561
1772902380537371000,4.380370849609375,-0.0461134910583496,-0.0675220489501953,0.0851978063583374,0.0068722288124263,-0.0099265528842806,0.0001527161948615
1772902380556358000,4.39935791015625,-0.0946903228759765,-0.0321664810180664,0.1669814884662628,-0.0077885258942842,0.0071776611730456,-0.0083993906155228
1772902380575345000,4.418344970703125,-0.0775039196014404,0.0188570022583007,0.097199261188507,-0.0145080387592315,0.0297796577215194,-0.0157297682017087
1772902380594332000,4.437331787109375,0.0605194568634033,0.0661392211914062,-0.0383115410804748,-0.0053450670093297,0.0242818742990493,-0.0120645789429545
1772902380613319000,4.45631884765625,0.1282122135162353,0.0500383377075195,-0.0641524195671081,0.0007635809597559,0.0041233371011912,0.0044287694618105
1772902380632306000,4.475305908203125,0.0534305572509765,0.0128002166748046,0.0030349493026733,-0.0010690133785828,-0.0111482823267579,0.0123700117692351
1772902380651293000,4.49429296875,-0.0402140617370605,-0.0071258544921875,0.0327419340610504,0.0025961752980947,-0.009315688163042,0.0080939587205648
1772902380670280200,4.5132802734375,-0.0730085372924804,-0.0069656372070312,0.0526086688041687,0.0019853105768561,0.0059559317305684,0.0001527161948615
1772902380689267200,4.53226708984375,-0.0287988185882568,-0.0229568481445312,0.0849677622318267,-0.0083993906155228,0.0132863093167543,-0.0016798780998215
1772902380708254200,4.551254150390625,0.0047500133514404,0.0058917999267578,0.0006394386291503,-0.0120645789429545,0.0053450670093297,0.0007635809597559
1772902380727241200,4.5702412109375,-0.0337369441986084,-0.0060300827026367,-0.0737856030464172,0.0025961752980947,-0.0135917412117123,-0.0090102553367614
1772902380746228200,4.589228271484375,-0.0197470188140869,-0.0003108978271484,-0.0301493406295776,0.0142026059329509,-0.0325285494327545,-0.0206166859716177
1772902380765215200,4.60821533203125,0.0660324096679687,0.0119552612304687,0.102309912443161,0.0080939587205648,-0.0423023849725723,-0.0157297682017087
1772902380784202200,4.6272021484375,0.0268878936767578,0.025979995727539,0.0757730305194854,-0.0022907429374754,-0.0343611426651477,-0.006566796451807
1772902380803189200,4.646189208984375,-0.0459058284759521,0.0143013000488281,0.0327152013778686,-0.002901607658714,-0.0190895237028598,-0.0108428495004773
1772902380822176300,4.66517626953125,-0.0463004112243652,-0.015812873840332,0.0361039638519287,-0.0035124723799526,-0.0062613640911877,-0.0120645789429545
1772902380841163300,4.684163330078125,0.0216639041900634,-0.0450410842895507,0.0004904568195343,-0.0053450670093297,-0.0062613640911877,-0.0059559317305684
1772902380860150300,4.703150390625,0.0009980201721191,-0.0011510848999023,-0.0889499485492706,0.0013744457392022,-0.0215329825878143,-0.0035124723799526
1772902380879137300,4.72213720703125,-0.0006122589111328,0.0391120910644531,-0.0748205780982971,0.0117591470479965,-0.0239764433354139,-0.0077885258942842
1772902380898124300,4.741124267578125,0.0009326934814453,0.0171899795532226,0.0568241775035858,0.0044287694618105,-0.0019853105768561,-0.0047342018224298
1772902380917111600,4.760111572265625,0.0388319492340087,0.0186328887939453,0.0885617434978485,-0.0041233371011912,0.0255036037415266,0.0044287694618105
1772902380936098600,4.7790986328125,0.0211036205291748,-0.022348403930664,-0.0309106707572937,-0.002901607658714,0.0358883067965507,0.0142026059329509
1772902380955085600,4.79808544921875,-0.0119976997375488,-0.0317869186401367,-0.0893188416957855,0.0032070400193333,0.0242818742990493,0.0099265528842806
1772902380974072600,4.817072509765625,-0.0477123260498046,-0.0100317001342773,-0.0873606503009796,0.0105374176055192,0.006566796451807,0.0038179049734026
1772902380993059600,4.8360595703125,-0.0250532627105712,0.0111722946166992,-0.0400960147380828,0.0148134706541895,-0.0056504993699491,0.0001527161948615
1772902381012046600,4.855046630859375,0.0296521186828613,-0.0290746688842773,0.0403546094894409,0.0099265528842806,-0.0038179049734026,0.0032070400193333
1772902381031033600,4.87403369140625,0.0316970348358154,0.0036430358886718,0.0658028125762939,0.0032070400193333,0.0022907429374754,0.0074830935336649
1772902381050020600,4.8930205078125,0.0037682056427001,0.009688377380371,0.000692069530487,0.0013744457392022,0.009621120058,0.0087048234418034
1772902381069007600,4.912007568359375,-0.0281062126159667,-0.0052118301391601,-0.0108828842639923,0.0032070400193333,0.006566796451807,0.0050396346487104
1772902381087994600,4.93099462890625,-0.0316612720489501,-0.0305509567260742,-0.03691366314888,0.0056504993699491,-0.0038179049734026,-0.0010690133785828
1772902381106981600,4.949981689453125,-0.0083279609680175,0.003645896911621,-0.0213939845561981,0.0050396346487104,-0.0227547138929367,-0.0053450670093297
1772902381125968600,4.96896875,0.0540435314178466,0.0148630142211914,-0.0207148492336273,0.0087048234418034,-0.0209221187978982,-0.0004581485991366
1772902381144955600,4.98795556640625,0.0429558753967285,0.0301685333251953,0.0811833143234252,0.0038179049734026,-0.0087048234418034,0.0044287694618105
1772902381163942700,5.006942626953125,-0.0415751934051513,-0.0432014465332031,0.0704782307147979,-0.0071776611730456,0.0187840927392244,0.0025961752980947
1772902381182929700,5.0259296875,-0.0547418594360351,-0.0410871505737304,0.0036529004573822,-0.0090102553367614,0.0371100343763828,-0.0077885258942842
1772902381201916700,5.044916748046875,0.0371427536010742,0.0004816055297851,-0.0939024686813354,-0.002901607658714,0.0334448479115963,-0.006566796451807
1772902381220904000,5.063904052734375,0.0569536685943603,0.070103645324707,-0.2127255797386169,0.0129808764904737,-0.0019853105768561,0.0032070400193333
1772902381239891000,5.082890869140625,-0.0168378353118896,0.0042142868041992,-0.1081072092056274,0.0264199022203683,-0.0319176837801933,0.0032070400193333
1772902381258878000,5.1018779296875,-0.0731396675109863,-0.0330018997192382,0.1164681315422058,0.0160352010279893,-0.0368046015501022,-0.0059559317305684
1772902381277865000,5.120864990234375,-0.0679051876068115,-0.0128545761108398,0.1765445470809936,-0.0010690133785828,-0.0007635809597559,-0.0126754445955157
1772902381296852000,5.13985205078125,-0.000234842300415,-6.48498535156e-05,0.0957288742065429,-0.0083993906155228,0.0297796577215194,-0.0145080387592315
1772902381315839000,5.1588388671875,0.0702943801879882,0.0684175491333007,-0.0262704789638519,-0.0059559317305684,0.0279470644891262,-0.009621120058
1772902381334826000,5.177825927734375,0.116323709487915,0.0571832656860351,-0.0430479645729064,-0.0035124723799526,0.0022907429374754,-0.0004581485991366
1772902381353813000,5.19681298828125,0.0853800773620605,0.0413284301757812,-0.0591125190258026,0.0001527161948615,-0.0288633611053228,0.0087048234418034
1772902381372800000,5.215800048828125,0.0079717636108398,0.0154895782470703,-0.0267478823661804,0.0050396346487104,-0.0276416316628456,0.0166460648179054
1772902381391787000,5.234787109375,-0.0829904079437255,-0.0603389739990234,0.0826931893825531,0.0007635809597559,-0.0038179049734026,0.0117591470479965
1772902381410774000,5.25377392578125,-0.0868160724639892,-0.0515251159667968,0.092674434185028,-0.0077885258942842,0.0102319847792387,0.0013744457392022
1772902381429761000,5.272760986328125,-0.0354440212249755,-0.0380010604858398,-0.0041738748550415,-0.009621120058,0.0059559317305684,-0.0035124723799526
1772902381448748000,5.291748046875,0.001744270324707,0.0150861740112304,-0.1027750372886657,0.0032070400193333,-0.0172569304704666,-0.0077885258942842
1772902381467735300,5.3107353515625,0.0259644985198974,0.031163215637207,-0.029945969581604,0.0099265528842806,-0.0319176837801933,-0.0053450670093297
1772902381486722300,5.329722412109375,0.0645422935485839,0.0274581909179687,0.1038781702518463,0.0032070400193333,-0.0215329825878143,0.0019853105768561
1772902381505709300,5.348709228515625,0.0751984119415283,-0.0066356658935546,0.1354820877313614,-0.0071776611730456,0.0047342018224298,0.0099265528842806
1772902381524696300,5.3676962890625,0.0447638034820556,-0.0465869903564453,0.0635749995708465,-0.0108428495004773,0.0193949565291404,0.0129808764904737
1772902381543683300,5.386683349609375,-0.0061361789703369,-0.0149221420288085,-0.0365263521671295,-0.0090102553367614,0.0053450670093297,0.0068722288124263
1772902381562670300,5.40567041015625,-0.0406978130340576,-0.0120697021484375,-0.0674541890621185,-0.0010690133785828,-0.0087048234418034,-0.0004581485991366
1772902381581657300,5.4246572265625,-0.0209786891937255,0.0094242095947265,-0.0196269154548645,0.0038179049734026,-0.0087048234418034,-0.0022907429374754
1772902381600644400,5.443644287109375,0.0030934810638427,-0.0099458694458007,0.0338881611824035,0.0001527161948615,-0.0019853105768561,0.0025961752980947
1772902381619631400,5.46263134765625,-0.0056023597717285,0.0248394012451171,0.0255398154258728,0.0001527161948615,0.0035124723799526,0.0038179049734026
1772902381638618400,5.481618408203125,-0.0376510620117187,0.0220937728881835,-0.010464072227478,-0.0016798780998215,-0.0062613640911877,0.0001527161948615
1772902381657605400,5.50060546875,-0.0044066905975341,0.0001754760742187,-0.0363869071006774,-0.0004581485991366,-0.0190895237028598,-0.0010690133785828
1772902381676592400,5.51959228515625,0.0494000911712646,0.0023183822631835,-0.0250822007656097,0.0007635809597559,-0.0313068181276321,0.0032070400193333
1772902381695579400,5.538579345703125,0.0530493259429931,-0.0494279861450195,-0.0309263467788696,0.0044287694618105,-0.0300850905478,0.0087048234418034
1772902381714566700,5.557566650390625,0.0244553089141845,-0.0320310592651367,0.0193263292312622,0.0032070400193333,-0.0276416316628456,0.009315688163042
1772902381733553700,5.5765537109375,-0.0709602832794189,-0.0103645324707031,0.029189795255661,-0.002901607658714,-0.0129808764904737,0.0019853105768561
1772902381752540400,5.59554052734375,-0.0479712486267089,-0.0238809585571289,-0.0254822671413421,-0.0004581485991366,-0.0038179049734026,-0.0071776611730456
1772902381771527700,5.614527587890625,0.0039565563201904,0.0123853683471679,-0.0497379601001739,-0.002901607658714,-0.0007635809597559,-0.0053450670093297
1772902381790514700,5.6335146484375,0.0101692676544189,0.0192623138427734,-0.0238303542137146,-0.0047342018224298,0.0047342018224298,-0.0041233371011912
1772902381809501400,5.65250146484375,0.0164868831634521,0.039743423461914,-0.1003544628620147,0.0013744457392022,-0.0062613640911877,-0.0010690133785828
1772902381828488700,5.67148876953125,0.0043921470642089,0.0079641342163085,-0.0967861115932464,0.0123700117692351,-0.0099265528842806,0.0032070400193333
1772902381847475700,5.690475830078125,-0.0139937400817871,-0.0510377883911132,-0.0009578466415405,0.0105374176055192,-0.0142026059329509,0.0050396346487104
1772902381866462700,5.709462646484375,-0.0550541877746582,-0.0660972595214843,0.0869482457637786,-0.0010690133785828,0.0022907429374754,0.0007635809597559
1772902381885449700,5.72844970703125,-0.0584778785705566,0.0231037139892578,0.0325763523578643,-0.0108428495004773,0.0157297682017087,-0.0090102553367614
1772902381904436700,5.747436767578125,0.0360002517700195,0.0643625259399414,-0.0782451927661895,-0.0053450670093297,0.0236710105091333,-0.002901607658714
1772902381923423700,5.766423828125,0.0620386600494384,0.0404396057128906,-0.0988106727600097,0.0087048234418034,0.0200058221817016,0.0111482823267579
1772902381942410800,5.78541064453125,0.0016467571258544,-0.029372215270996,-0.0222412943840026,0.009315688163042,0.0016798780998215,0.0142026059329509
1772902381961397800,5.804397705078125,-0.0902416706085205,-0.0544652938842773,0.0402332544326782,0.0025961752980947,-0.0080939587205648,0.0044287694618105
1772902381980384800,5.823384765625,-0.1135039329528808,-0.0197963714599609,0.0600196719169616,-0.0041233371011912,-0.0068722288124263,-0.0083993906155228
1772902381999371800,5.842371826171875,-0.0322399139404296,-0.0163984298706054,0.0542521774768829,-0.0035124723799526,0.0053450670093297,-0.0114537142217159
1772902382018359000,5.861359130859375,0.068289041519165,0.0404939651489257,0.020950436592102,-0.002901607658714,0.0175623632967472,-0.0016798780998215
1772902382037346000,5.880345947265625,0.0979089736938476,0.0427513122558593,0.0326341986656188,-0.0090102553367614,0.0279470644891262,0.0142026059329509
1772902382056332800,5.899332763671875,0.0586383342742919,0.0892477035522461,-0.0362139642238616,-0.0083993906155228,0.016951497644186,0.0203112531453371
1772902382075320000,5.918320068359375,-0.0380606651306152,-0.0195446014404296,-0.0499702095985412,0.0007635809597559,0.0151189034804701,0.0154243353754282
1772902382094307000,5.93730712890625,-0.0799610614776611,-0.09136962890625,0.0198942720890045,0.0001527161948615,0.0151189034804701,0.0007635809597559
1772902382113294000,5.956294189453125,-0.0220470428466796,-0.0805187225341796,0.0765198469161987,-0.0053450670093297,0.0138971740379929,-0.0047342018224298
1772902382132281000,5.975281005859375,-0.0073635578155517,-0.0100641250610351,0.0252427756786346,-0.0077885258942842,0.0126754445955157,0.0019853105768561
1772902382151268000,5.99426806640625,0.0213189125061035,0.055093765258789,-0.0402306318283081,-0.0016798780998215,-0.0001527161948615,0.0038179049734026
1772902382170255000,6.013255126953125,0.0054438114166259,0.0525941848754882,0.0255598425865173,0.0038179049734026,-0.0013744457392022,0.0050396346487104
1772902382189242000,6.0322421875,0.0110092163085937,0.0130910873413085,0.0739143788814544,-0.0035124723799526,-0.0044287694618105,0.0068722288124263
1772902382208229000,6.05122900390625,0.0143971443176269,-0.0390987396240234,0.0308682322502136,-0.0102319847792387,-0.0013744457392022,0.0080939587205648
1772902382227216100,6.070216064453125,-0.0204923152923584,-0.0377426147460937,0.0058960616588592,-0.006566796451807,0.0053450670093297,0.0032070400193333
1772902382246203100,6.089203125,-0.0315988063812255,-0.0553522109985351,0.0238232016563415,-0.0083993906155228,0.0102319847792387,-0.002901607658714
1772902382265190100,6.108190185546875,-0.0198822021484375,0.0192232131958007,0.0067316889762878,-0.0120645789429545,0.0120645789429545,-0.0047342018224298
1772902382284177400,6.127177490234375,-0.0104603767395019,0.021148681640625,-0.0399856865406036,-0.0090102553367614,0.009621120058,-0.0047342018224298
1772902382303164200,6.1461640625,-0.0013566017150878,0.0231590270996093,-0.0369140803813934,-0.0041233371011912,0.0077885258942842,-0.002901607658714
1772902382322151400,6.1651513671875,0.0197546482086181,0.0320568084716796,-0.0091712474822998,-0.0022907429374754,0.0041233371011912,0.0019853105768561
1772902382341138400,6.184138427734375,-0.0126044750213623,0.0166482925415039,-0.0249600708484649,-0.0035124723799526,0.0004581485991366,0.0062613640911877
1772902382360125200,6.203125244140625,-0.0723881721496582,-0.0238828659057617,-0.0188516378402709,-0.0059559317305684,-0.0038179049734026,0.0044287694618105
1772902382379112400,6.222112548828125,-0.0728769302368164,-0.0276384353637695,-0.0100069940090179,-0.0077885258942842,-0.0001527161948615,-0.0041233371011912
1772902382398099500,6.241099365234375,-0.0411531925201416,-0.0195159912109375,-0.0081440806388854,-0.0102319847792387,0.0035124723799526,-0.0077885258942842
1772902382417086500,6.26008642578125,-0.0340654850006103,-0.0192422866821289,-0.002857357263565,-0.0132863093167543,0.0145080387592315,-0.0041233371011912
1772902382436073500,6.279073486328125,-0.0523431301116943,-0.0509443283081054,-0.0225383937358856,-0.0132863093167543,0.0303905233740806,-0.0047342018224298
1772902382455060500,6.298060546875,-0.0620975494384765,-0.0083990097045898,-0.0797473788261413,-0.0120645789429545,0.0047342018224298,-0.0157297682017087
1772902382474047500,6.317047607421875,-0.0035235881805419,0.0652647018432617,-0.1758394241333007,0.0068722288124263,-0.019700389355421,-0.0236710105091333
1772902382493034500,6.336034423828125,0.0678939819335937,0.0875387191772461,-0.0214617252349853,0.0074830935336649,-0.0410806573927402,-0.0126754445955157
1772902382512021500,6.355021484375,0.0788886547088623,0.0586204528808593,0.1085002720355987,-0.0053450670093297,-0.0203112531453371,0.0032070400193333
1772902382531008500,6.374008544921875,0.0033736228942871,-0.0345411300659179,0.0529680252075195,-0.0114537142217159,0.0102319847792387,0.0111482823267579
1772902382549995500,6.39299560546875,-0.0540592670440673,-0.0429029464721679,-0.1082445681095123,0.0007635809597559,0.0236710105091333,0.0007635809597559
1772902382568982500,6.411982421875,-0.0228593349456787,-0.0091590881347656,-0.1426045298576355,0.0123700117692351,0.0132863093167543,-0.0053450670093297
1772902382587969500,6.430969482421875,0.0091972351074218,0.0051794052124023,-0.0751426219940185,0.0154243353754282,-0.0105374176055192,-0.0053450670093297
1772902382606956500,6.44995654296875,-0.0484647750854492,-0.0413389205932617,0.0673675835132598,0.0050396346487104,-0.0099265528842806,-0.006566796451807
1772902382625943600,6.468943603515625,-0.0464837551116943,-0.0254077911376953,0.0793032348155975,-0.002901607658714,0.0077885258942842,-0.0108428495004773
1772902382644930800,6.487930908203125,-0.0113232135772705,0.0159578323364257,0.04338139295578,-0.0047342018224298,0.0248927399516105,-0.009621120058
1772902382663917800,6.506917724609375,0.0444610118865966,0.0413293838500976,-0.0476474165916442,-0.0022907429374754,0.0230601448565721,-0.0016798780998215
1772902382682904800,6.52590478515625,0.0736622810363769,0.039804458618164,-0.0383224785327911,-0.0004581485991366,0.0083993906155228,0.0013744457392022
1772902382701891800,6.544891845703125,0.0507326126098632,0.0289812088012695,-0.0369678437709808,0.0032070400193333,-0.0038179049734026,0.0001527161948615
1772902382720878800,6.56387890625,0.0472939014434814,0.0043849945068359,-0.0165038406848907,0.0105374176055192,-0.0019853105768561,0.0056504993699491
1772902382739865900,6.582865966796875,0.0281190872192382,-0.0425291061401367,0.0740333497524261,0.0068722288124263,0.0083993906155228,0.0056504993699491
1772902382758852900,6.601852783203125,-0.0168330669403076,-0.043405532836914,0.0794236958026886,-0.0053450670093297,0.0090102553367614,-0.0004581485991366
1772902382777839900,6.62083984375,-0.0120038986206054,-0.0256738662719726,0.0179542303085327,-0.006566796451807,0.0175623632967472,-0.0047342018224298
1772902382796827000,6.639826904296875,0.0087695121765136,-0.0063638687133789,-0.0469965636730194,0.0032070400193333,0.0108428495004773,-0.0041233371011912
1772902382815814000,6.65881396484375,0.0024399757385253,-0.0153751373291015,-0.0327890515327453,0.0105374176055192,0.0010690133785828,-0.0083993906155228
1772902382834801000,6.67780078125,0.04069185256958,0.0088815689086914,0.0884575545787811,0.0025961752980947,-0.0013744457392022,-0.0077885258942842
1772902382853788000,6.696787841796875,0.0526373386383056,0.0084218978881835,0.1073276698589325,-0.0071776611730456,0.0071776611730456,-0.0016798780998215
1772902382872775000,6.71577490234375,0.0396389961242675,-0.0085659027099609,0.0237155854701995,-0.0035124723799526,0.0193949565291404,0.0038179049734026
1772902382891762000,6.734761962890625,-0.0195636749267578,-0.0553445816040039,-0.0270144343376159,0.0001527161948615,0.0145080387592315,0.0013744457392022
1772902382910749200,6.753749267578125,-0.0500855445861816,-0.0205707550048828,-0.0850600600242614,0.0050396346487104,-0.0056504993699491,-0.0090102553367614
1772902382929736000,6.77273583984375,0.0008771419525146,0.0295314788818359,-0.0363146960735321,0.0056504993699491,-0.0496327616274356,-0.0090102553367614
1772902382948723000,6.791722900390625,-0.0107848644256591,0.0429182052612304,0.0202532708644866,0.0074830935336649,-0.0123700117692351,-0.0218384154140949
1772902382967710200,6.810710205078125,0.053945779800415,-0.0063304901123046,0.0648348033428192,0.0001527161948615,-0.0117591470479965,-0.0132863093167543
1772902382986697000,6.829697021484375,0.0624520778656005,0.0013132095336914,0.0489496290683746,0.0007635809597559,0.002901607658714,-0.0047342018224298
1772902383005684200,6.848684326171875,0.0506799221038818,-0.0124692916870117,0.0526115894317626,-0.0016798780998215,0.0059559317305684,-0.0010690133785828
1772902383024671200,6.867671142578125,0.016092300415039,-0.009866714477539,0.0117133557796478,-0.002901607658714,-0.0001527161948615,-0.0041233371011912
1772902383043658200,6.886658203125,0.0102062225341796,0.0092535018920898,-0.0047158896923065,-0.0047342018224298,-0.0135917412117123,-0.0041233371011912
1772902383062645200,6.905645263671875,0.0099172592163085,0.0159997940063476,-0.045055478811264,-0.0016798780998215,-0.0209221187978982,0.0013744457392022
1772902383081632300,6.92463232421875,-0.0200517177581787,-0.0127344131469726,-0.0276022255420684,-0.0010690133785828,-0.0068722288124263,0.0044287694618105
1772902383100619300,6.943619384765625,-0.0377697944641113,-0.0003461837768554,0.0161677300930023,-0.0083993906155228,-0.0007635809597559,0.0007635809597559
1772902383119606300,6.962606201171875,-0.0323414802551269,0.0442638397216796,-0.0772627294063568,-0.0010690133785828,-0.0111482823267579,-0.0041233371011912
1772902383138593300,6.98159326171875,-0.0113956928253173,0.0151185989379882,-0.0831198096275329,0.0074830935336649,-0.0215329825878143,-0.0071776611730456
1772902383157580300,7.000580322265625,0.056286334991455,-0.0016613006591796,0.0397278666496276,0.0025961752980947,-0.0087048234418034,0.0007635809597559
1772902383176567300,7.0195673828125,0.0181114673614501,-0.0040550231933593,0.0589785873889923,-0.0114537142217159,0.016951497644186,0.0074830935336649
1772902383195554300,7.03855419921875,0.0047287940979003,0.010110855102539,-0.0591669976711273,-0.0090102553367614,0.0261144693940877,0.0044287694618105
1772902383214541300,7.057541259765625,0.033839464187622,0.0582313537597656,-0.1662648916244506,0.009315688163042,0.0157297682017087,0.0068722288124263
1772902383233528300,7.0765283203125,0.0343153476715087,-0.0095853805541992,-0.1172165274620056,0.0184786599129438,-0.0154243353754282,0.0099265528842806
1772902383252515300,7.095515380859375,-0.0262742042541503,-0.0610284805297851,0.055486112833023,0.0117591470479965,-0.0288633611053228,0.0068722288124263
1772902383271502300,7.11450244140625,-0.0852603912353515,-0.019357681274414,0.1719579845666885,-0.0059559317305684,-0.0087048234418034,0.0025961752980947
1772902383290489600,7.133489501953125,-0.0521535873413085,-0.0067110061645507,0.0848317146301269,-0.0145080387592315,0.0157297682017087,-0.0041233371011912
1772902383309476400,7.152476318359375,0.0404348373413085,0.0077018737792968,-0.0401723384857177,-0.0083993906155228,0.0322231166064739,-0.002901607658714
1772902383328463600,7.171463623046875,0.1171574592590332,0.0469741821289062,-0.1020919978618621,-0.0004581485991366,0.0145080387592315,0.0087048234418034
1772902383347450600,7.19045068359375,0.0734760761260986,0.0076704025268554,-0.030487447977066,-0.0010690133785828,0.0035124723799526,0.0148134706541895
1772902383366437400,7.209437255859375,0.0010316371917724,0.0156431198120117,-0.0253485143184661,0.0025961752980947,-0.0001527161948615,0.0135917412117123
1772902383385424600,7.228424560546875,-0.039346694946289,-0.0363349914550781,0.0124678611755371,0.0080939587205648,0.0200058221817016,0.0074830935336649
1772902383404411600,7.24741162109375,-0.032747745513916,-0.0606946945190429,0.0780888497829437,0.0019853105768561,0.0255036037415266,0.0007635809597559
1772902383423398700,7.266398681640625,-0.0270736217498779,-0.0260334014892578,0.0321470499038696,-0.0010690133785828,0.0236710105091333,-0.0035124723799526
1772902383442385700,7.2853857421875,0.0273592472076416,0.0376358032226562,-0.0315269231796264,0.0044287694618105,0.0102319847792387,-0.0016798780998215
1772902383461372700,7.30437255859375,0.0807175636291503,0.0194816589355468,-0.0273762643337249,0.0135917412117123,0.0022907429374754,0.0050396346487104
1772902383480359700,7.323359619140625,0.0403752326965332,-0.0077419281005859,0.0903725326061248,0.009315688163042,-0.0019853105768561,0.0117591470479965
1772902383499346700,7.3423466796875,-0.058171272277832,-0.0241193771362304,0.1009347438812255,-0.0010690133785828,-0.0087048234418034,0.0032070400193333
1772902383518333700,7.361333740234375,-0.0692172050476074,-0.0694942474365234,0.0841988325119018,-0.0059559317305684,-0.0050396346487104,-0.0102319847792387
1772902383537320700,7.38032080078125,-0.0133187770843505,-0.0337839126586914,-0.0137906074523925,-0.0047342018224298,-0.0044287694618105,-0.0145080387592315
1772902383556307700,7.3993076171875,0.0246627330780029,-0.0089073181152343,-0.0485223829746246,0.0013744457392022,-0.0019853105768561,-0.009621120058
1772902383575294700,7.418294677734375,0.0443320274353027,0.0428886413574218,-0.0219030678272247,0.0007635809597559,-0.0123700117692351,-0.0004581485991366
1772902383594281700,7.43728173828125,0.0175333023071289,0.076573371887207,-0.0313396453857421,0.0007635809597559,-0.0148134706541895,0.0019853105768561
1772902383613268700,7.456268798828125,-0.0104179382324218,0.0246992111206054,-0.0171223878860473,0.0007635809597559,-0.0080939587205648,0.0044287694618105
1772902383632255700,7.475255859375,-0.0538415908813476,0.0240306854248046,-0.0289238691329956,0.0007635809597559,-0.0044287694618105,0.0025961752980947
1772902383651242800,7.49424267578125,-0.0238211154937744,-0.0308465957641601,-0.0640206634998321,0.0025961752980947,-0.0105374176055192,0.0025961752980947
1772902383670230000,7.51322998046875,-0.0202233791351318,-0.0323114395141601,-0.047116607427597,0.0025961752980947,-0.0178677942603826,0.0032070400193333
1772902383689216800,7.532216796875,-0.0525741577148437,-0.0242252349853515,-0.0096482336521148,0.0019853105768561,-0.0203112531453371,-0.0035124723799526
1772902383708203800,7.551203857421875,-0.0237035751342773,0.0025177001953125,-0.0032721757888793,0.0019853105768561,-0.0074830935336649,-0.0059559317305684
1772902383727191000,7.57019091796875,-0.0095725059509277,-0.0068397521972656,-0.0076561272144317,0.0019853105768561,0.0114537142217159,-0.0035124723799526
1772902383746177800,7.589177734375,0.0373041629791259,0.0284128189086914,-0.0321497619152069,-0.0010690133785828,0.0108428495004773,-0.0004581485991366
1772902383765165000,7.6081650390625,0.0297644138336181,0.0344829559326171,-0.1110861599445343,0.0074830935336649,0.0114537142217159,0.0062613640911877
1772902383784152000,7.627152099609375,0.040032148361206,0.0071706771850585,-0.055629163980484,0.0123700117692351,-0.0001527161948615,0.0117591470479965
1772902383803139000,7.64613916015625,-0.0060975551605224,-0.0148706436157226,0.0119765400886535,0.009315688163042,-0.0001527161948615,0.0105374176055192
1772902383822126000,7.6651259765625,-0.0628440380096435,-0.0498046875,0.0604554712772369,-0.0022907429374754,0.0071776611730456,0.0056504993699491
1772902383841113000,7.684113037109375,-0.0849905014038086,-0.0291376113891601,-0.0167648792266845,-0.0059559317305684,0.0181732270866632,-0.009621120058
1772902383860100000,7.70310009765625,0.0114665031433105,0.0821723937988281,-0.1141881346702575,0.0074830935336649,0.006566796451807,-0.0102319847792387
1772902383879087000,7.722087158203125,0.038886547088623,0.0449485778808593,-0.0996265411376953,0.0227547138929367,0.0004581485991366,0.0019853105768561
1772902383898074000,7.74107421875,0.0095822811126708,-0.0125236511230468,0.0583630204200744,0.0166460648179054,-0.0258090365678071,0.0013744457392022
1772902383917061000,7.76006103515625,-0.0161502361297607,-0.0427350997924804,0.1617785394191742,-0.0016798780998215,-0.0221438482403755,0.0038179049734026
1772902383936048000,7.779048095703125,-0.0407314300537109,-0.0132579803466796,0.1351734697818756,-0.0126754445955157,0.0132863093167543,0.0001527161948615
1772902383955035100,7.79803515625,0.0045406818389892,-0.010101318359375,-0.0248616635799407,-0.006566796451807,0.037720900028944,-0.0041233371011912
1772902383974022100,7.817022216796875,0.0765464305877685,-0.0144758224487304,-0.0801662802696228,0.0001527161948615,0.037720900028944,0.0007635809597559
1772902383993009200,7.836009033203125,0.1101047992706298,0.0181083679199218,-0.0841697454452514,0.0032070400193333,0.0077885258942842,0.0068722288124263
1772902384011996200,7.85499609375,0.0100541114807128,0.0287933349609375,-0.0525406897068023,0.009315688163042,-0.0062613640911877,0.0056504993699491
1772902384030983200,7.873983154296875,-0.017451524734497,0.0062751770019531,0.0358421504497528,0.0129808764904737,-0.0032070400193333,0.0025961752980947
1772902384049970200,7.89297021484375,-0.0324978828430175,-0.0291767120361328,0.1159640848636627,0.0013744457392022,0.016951497644186,0.0013744457392022
1772902384068957200,7.911957275390625,-0.0239303112030029,-0.0048856735229492,0.0625587701797485,-0.0090102553367614,0.0224492810666561,0.0019853105768561
1772902384087944200,7.930944091796875,0.014838695526123,0.0275545120239257,-0.0714845061302185,0.0007635809597559,0.0059559317305684,0.0050396346487104
1772902384106931200,7.94993115234375,-0.008451223373413,-0.0110130310058593,-0.0926105380058288,0.0172569304704666,-0.019700389355421,0.0032070400193333
1772902384125918200,7.968918212890625,-0.0016014575958251,-0.0477867126464843,0.0290431976318359,0.0203112531453371,-0.0313068181276321,-0.0035124723799526
1772902384144905200,7.9879052734375,-0.0208790302276611,-0.0346431732177734,0.1535975635051727,0.0068722288124263,-0.0123700117692351,-0.0022907429374754
1772902384163892500,8.006892578125,0.0383989810943603,0.0409364700317382,0.1160425245761871,-0.0041233371011912,0.0053450670093297,0.0013744457392022
1772902384182879500,8.02587939453125,0.0144472122192382,0.0536909103393554,0.0201294720172882,-0.0041233371011912,0.0126754445955157,0.0019853105768561
1772902384201866200,8.0448662109375,0.0076627731323242,0.0095767974853515,-0.0475706458091735,-0.0016798780998215,0.002901607658714,0.0050396346487104
1772902384220853500,8.063853515625,-0.0131559371948242,0.0043716430664062,-0.086568534374237,0.0044287694618105,-0.0178677942603826,0.0044287694618105
1772902384239840500,8.082840576171876,-0.0127656459808349,0.00201416015625,-0.0631334483623504,0.0129808764904737,-0.0258090365678071,0.0001527161948615
1772902384258827500,8.10182763671875,0.0155994892120361,0.0036287307739257,0.0356259942054748,0.0142026059329509,-0.0203112531453371,0.0007635809597559
1772902384277814500,8.120814453125,0.0326564311981201,0.0174407958984375,0.0814732015132904,0.0044287694618105,-0.009315688163042,0.0068722288124263
1772902384296801500,8.139801513671875,0.0048356056213378,0.007394790649414,0.0532930195331573,-0.0041233371011912,-0.0087048234418034,0.0056504993699491
1772902384315788500,8.15878857421875,0.0099623203277587,-0.0209970474243164,0.0001538395881652,0.0001527161948615,-0.0105374176055192,0.0050396346487104
1772902384334775600,8.177775634765625,0.0152301788330078,-0.0300712585449218,-0.0223464369773864,0.0080939587205648,-0.009315688163042,0.0056504993699491
1772902384353762600,8.196762451171875,-0.0104975700378417,-0.0035057067871093,-0.0210418105125427,0.0074830935336649,-0.009315688163042,0.0019853105768561
1772902384372749600,8.21574951171875,-0.0123810768127441,-0.0106220245361328,0.007968246936798,0.0038179049734026,-0.0154243353754282,0.0025961752980947
1772902384391736600,8.234736572265625,-0.0324044227600097,-0.0650062561035156,0.0365942418575286,-0.0022907429374754,-0.0300850905478,0.0044287694618105
1772902384410723600,8.2537236328125,-0.0253982543945312,0.0266714096069335,-0.0147077441215515,0.0019853105768561,-0.0142026059329509,-0.0138971740379929
1772902384429710600,8.272710693359375,0.0481412410736084,0.0197029113769531,-0.0651629269123077,0.0080939587205648,-0.0184786599129438,-0.0041233371011912
1772902384448697600,8.291697509765624,0.0800404548645019,-0.0139417648315429,-0.0316075682640075,0.0111482823267579,-0.0429132506251335,0.0068722288124263
1772902384467684600,8.3106845703125,-0.0151276588439941,0.0120954513549804,0.0388982594013214,0.0068722288124263,-0.0154243353754282,0.0001527161948615
1772902384486671600,8.329671630859375,-0.0572097301483154,-0.0345706939697265,0.0841712355613708,-0.0053450670093297,-0.0001527161948615,-0.002901607658714
1772902384505658600,8.34865869140625,-0.0502445697784423,-0.0026073455810546,-0.0603584945201873,0.0019853105768561,0.002901607658714,-0.0145080387592315
1772902384524645600,8.367645751953125,0.0562100410461425,0.0281314849853515,-0.150348424911499,0.019700389355421,-0.0306959543377161,-0.0102319847792387
1772902384543632600,8.386632568359374,0.0553233623504638,0.0127515792846679,-0.0179491341114044,0.0215329825878143,-0.0294742248952388,-0.002901607658714
1772902384562619600,8.40561962890625,0.0184080600738525,-0.0438795089721679,0.1356158852577209,0.0050396346487104,-0.0221438482403755,0.0038179049734026
1772902384581606700,8.424606689453125,-0.0959155559539794,-0.0263309478759765,0.108417272567749,-0.0102319847792387,0.0047342018224298,0.0007635809597559
1772902384600593700,8.44359375,-0.1099920272827148,-0.003849983215332,-0.0097208321094512,-0.0114537142217159,0.0016798780998215,-0.0120645789429545
1772902384619580700,8.46258056640625,0.0192470550537109,0.0787734985351562,-0.1112419366836547,-0.0010690133785828,-0.0001527161948615,-0.0181732270866632
1772902384638567700,8.481567626953124,0.1391589641571045,0.0433988571166992,-0.0923780500888824,0.0038179049734026,-0.0209221187978982,0.0050396346487104
1772902384657554700,8.5005546875,-0.0061571598052978,0.0320873260498046,-0.0594217181205749,0.0074830935336649,-0.0294742248952388,0.0123700117692351
1772902384676541700,8.519541748046874,-0.0490121841430664,0.0260562896728515,-0.0157020092010498,0.0111482823267579,-0.0160352010279893,0.0044287694618105
1772902384695528700,8.53852880859375,-0.0724725723266601,-0.0242271423339843,0.093601644039154,0.0050396346487104,0.0157297682017087,0.0013744457392022
1772902384714515700,8.557515625,-0.0068492889404296,-0.0582952499389648,0.0500843524932861,-0.0041233371011912,0.0236710105091333,-0.0016798780998215
1772902384733502700,8.576502685546876,0.0002520084381103,0.0114765167236328,-0.0600865185260772,0.0001527161948615,0.0175623632967472,0.0013744457392022
1772902384752489700,8.59548974609375,0.0074374675750732,0.0103044509887695,-0.1129943132400512,0.0117591470479965,-0.0007635809597559,0.0019853105768561
1772902384771477000,8.61447705078125,0.0124084949493408,0.0188636779785156,0.0419812798500061,0.0142026059329509,-0.0099265528842806,0.0038179049734026
1772902384790463700,8.633463623046875,-0.0319311618804931,0.0185413360595703,0.110697716474533,0.0080939587205648,-0.0050396346487104,0.0025961752980947
1772902384809450800,8.65245068359375,0.0260708332061767,-0.003631591796875,0.0931680500507354,0.0001527161948615,0.0114537142217159,0.0038179049734026
1772902384828438000,8.67143798828125,0.0322005748748779,-0.0436811447143554,0.0516521036624908,-0.0047342018224298,0.0187840927392244,0.0135917412117123
1772902384847424800,8.6904248046875,-0.0017995834350585,0.0036802291870117,-0.0569232106208801,0.0007635809597559,-0.0025961752980947,0.0087048234418034
1772902384866412000,8.709412109375,-0.0341930389404296,-0.0244169235229492,-0.0569024980068206,0.0074830935336649,-0.0221438482403755,-0.0016798780998215
1772902384885399000,8.72839892578125,-0.0038893222808837,-0.0068750381469726,0.0118501782417297,0.009315688163042,-0.0270307660102844,-0.006566796451807
1772902384904386000,8.747385986328124,0.0441446304321289,0.0031032562255859,0.0438311994075775,0.0056504993699491,-0.0190895237028598,-0.0041233371011912
1772902384923372800,8.766372802734375,0.0386793613433837,-0.0021600723266601,0.0837805867195129,-0.0004581485991366,-0.0062613640911877,0.0068722288124263
1772902384942360000,8.785360107421875,0.0019104480743408,0.0137567520141601,0.0447561740875244,-0.006566796451807,-0.0007635809597559,0.0111482823267579
1772902384961347000,8.80434716796875,-0.0505523681640625,-0.0218505859375,-0.0590596199035644,-0.0022907429374754,-0.0154243353754282,0.0056504993699491
1772902384980334000,8.823333984375,-0.0702559947967529,-0.0233526229858398,-0.0493103265762329,0.0038179049734026,-0.0258090365678071,-0.0041233371011912
1772902384999321000,8.842321044921874,-0.0180017948150634,-0.0177516937255859,0.0158189237117767,0.0038179049734026,-0.0215329825878143,-0.0071776611730456
1772902385018308000,8.86130810546875,0.0188784599304199,-0.0122022628784179,0.0211298763751983,0.0013744457392022,-0.0056504993699491,-0.0035124723799526
1772902385037295000,8.880295166015625,0.00396728515625,-0.0119047164916992,0.0208766162395477,-0.0016798780998215,0.0053450670093297,-0.0016798780998215
1772902385056282000,8.8992822265625,-0.0060610771179199,0.0188808441162109,0.0120879113674163,-0.006566796451807,0.002901607658714,-0.0047342018224298
1772902385075269000,8.91826904296875,0.0309827327728271,0.0298442840576171,-0.0913425087928772,0.0025961752980947,-0.0056504993699491,-0.002901607658714
1772902385094256000,8.937256103515624,0.0252871513366699,-0.0276613235473632,-0.0858980417251586,0.0117591470479965,-0.0160352010279893,-0.0010690133785828
1772902385113243100,8.9562431640625,-0.0184333324432373,-0.0449790954589843,0.0357194542884826,0.0038179049734026,-0.0245873071253299,-0.002901607658714
1772902385132230100,8.975230224609374,-0.0844871997833252,-0.012587547302246,0.1074947565793991,-0.0083993906155228,-0.0038179049734026,-0.0090102553367614
1772902385151217200,8.994217041015625,-0.0934283733367919,-0.0016336441040039,0.0393790900707244,-0.0114537142217159,0.0297796577215194,-0.0187840927392244
1772902385170204200,9.0132041015625,0.0302896499633789,0.0626430511474609,-0.0804000794887542,-0.0035124723799526,0.0322231166064739,-0.0163406319916248
1772902385189191200,9.032191162109376,0.0816013813018798,0.060948371887207,-0.1125534772872924,0.0068722288124263,0.0047342018224298,-0.002901607658714
1772902385208178200,9.05117822265625,0.0114881992340087,-0.008986473083496,-0.0190226733684539,0.0038179049734026,-0.0239764433354139,0.0050396346487104
1772902385227165200,9.070165283203124,-0.1081612110137939,-0.0386028289794921,0.0604521632194519,-0.0053450670093297,-0.0129808764904737,-0.0035124723799526
1772902385246152200,9.089152099609375,-0.1256537437438964,-0.0342864990234375,0.0244974493980407,-0.0071776611730456,0.0077885258942842,-0.0181732270866632
1772902385265139200,9.10813916015625,-0.0270869731903076,0.0239152908325195,-0.0098167955875396,-0.0004581485991366,0.0236710105091333,-0.0218384154140949
1772902385284126200,9.127126220703126,0.0976397991180419,0.0565080642700195,-0.015238881111145,-0.0016798780998215,0.0132863093167543,-0.009621120058
1772902385303113200,9.14611328125,0.129972219467163,0.1263380050659179,0.0006566047668457,-0.0053450670093297,0.0016798780998215,0.0105374176055192
1772902385322100200,9.165100341796874,0.0567476749420166,0.0342836380004882,-0.0242260992527008,-0.0016798780998215,0.0083993906155228,0.0227547138929367
1772902385341087200,9.184087158203123,-0.048513650894165,-0.0451135635375976,0.0386055409908294,-0.0016798780998215,0.0279470644891262,0.0190895237028598
1772902385360074200,9.20307421875,-0.0960943698883056,-0.1021575927734375,0.0496594011783599,-0.0053450670093297,0.0511599257588386,0.0050396346487104
1772902385379061200,9.222061279296875,-0.0324749946594238,-0.0395946502685546,-0.0347274541854858,-0.0016798780998215,0.0523816533386707,-0.0071776611730456
1772902385398048300,9.24104833984375,0.0352687835693359,-0.0029621124267578,-0.1301601827144622,0.0117591470479965,0.0010690133785828,-0.0010690133785828
1772902385417035300,9.26003515625,0.0172247886657714,0.0106468200683593,-0.0322021543979644,0.0233655776828527,-0.0276416316628456,-0.0035124723799526
1772902385436022300,9.279022216796877,0.0159430503845214,0.0496444702148437,0.1298835277557373,0.0123700117692351,-0.0313068181276321,0.0001527161948615
1772902385455009300,9.29800927734375,0.0278823375701904,0.0357732772827148,0.1668352782726287,-0.0016798780998215,0.0126754445955157,0.0074830935336649
1772902385473996300,9.316996337890624,0.0410225391387939,-0.0312166213989257,0.0957821011543273,-0.0102319847792387,0.0145080387592315,0.0135917412117123
1772902385492983300,9.3359833984375,-0.0244429111480712,-0.0255594253540039,-0.0379149615764617,-0.009621120058,0.0071776611730456,0.0025961752980947
1772902385511970300,9.35497021484375,-0.0206356048583984,-0.0429315567016601,-0.0637243390083313,-0.0053450670093297,-0.0105374176055192,-0.0090102553367614
1772902385530957300,9.373957275390625,-0.003249168395996,-0.0222606658935546,-0.0601642727851867,0.0013744457392022,-0.0258090365678071,-0.0114537142217159
1772902385549944300,9.3929443359375,0.0038897991180419,-0.0048084259033203,-0.0343263745307922,0.0056504993699491,-0.0221438482403755,-0.009621120058
1772902385568931300,9.411931396484375,0.0396780967712402,0.0540895462036132,0.054240345954895,0.0001527161948615,-0.0190895237028598,-0.006566796451807
1772902385587918300,9.43091845703125,0.0642273426055908,0.0525360107421875,0.053063690662384,-0.009621120058,-0.0178677942603826,0.0044287694618105
1772902385606905300,9.4499052734375,0.0215590000152587,0.0548315048217773,0.0203064680099487,-0.0126754445955157,-0.0019853105768561,0.009315688163042
1772902385625892400,9.468892333984376,0.0322864055633544,-0.0368871688842773,-0.042935699224472,-0.0041233371011912,-0.0184786599129438,0.0154243353754282
1772902385644879400,9.48787939453125,-0.0366675853729248,-0.0552787780761718,-0.0611310899257659,0.0056504993699491,-0.0135917412117123,0.0105374176055192
1772902385663866400,9.506866455078123,-0.0485997200012207,-0.0352020263671875,0.0138321816921234,0.0038179049734026,-0.0251981727778911,0.0050396346487104
1772902385682853400,9.525853271484374,-0.0842115879058837,-0.0272340774536132,0.0804574489593505,-0.0016798780998215,-0.0099265528842806,0.0001527161948615
1772902385701840400,9.54484033203125,-0.0305750370025634,-0.0165481567382812,0.0530273616313934,-0.0041233371011912,-0.0001527161948615,-0.0059559317305684
1772902385720827400,9.563827392578125,0.0563774108886718,0.0120391845703125,-0.072082370519638,0.0025961752980947,0.0120645789429545,-0.0016798780998215
1772902385739814400,9.582814453125,0.0879046916961669,0.0112323760986328,-0.0583546757698059,0.0080939587205648,0.0022907429374754,0.0044287694618105
1772902385758801400,9.601801513671877,0.0391919612884521,0.0037841796875,-0.0039142370223999,0.0087048234418034,0.0047342018224298,0.0038179049734026
1772902385777788400,9.620788330078126,-0.0172400474548339,-0.0293617248535156,0.0570962131023407,-0.0010690133785828,0.006566796451807,0.0062613640911877
1772902385796775400,9.639775390625,-0.0728175640106201,-0.0091743469238281,0.0025806427001953,-0.002901607658714,0.0218384154140949,-0.0059559317305684
1772902385815762400,9.658762451171874,0.0008742809295654,0.0454902648925781,-0.0602980852127075,0.0068722288124263,0.0187840927392244,-0.0077885258942842
1772902385834749400,9.67774951171875,0.0587501525878906,0.0158758163452148,-0.0809189677238464,0.0166460648179054,0.0053450670093297,0.0025961752980947
1772902385853736400,9.696736328125,0.0063328742980957,-0.0341033935546875,0.0423837900161743,0.0105374176055192,-0.0135917412117123,0.0087048234418034
1772902385872723500,9.715723388671876,-0.0585734844207763,-0.0306348800659179,0.1081014573574066,-0.0053450670093297,-0.0038179049734026,0.0013744457392022
1772902385891710500,9.73471044921875,-0.0854721069335937,-0.0033454895019531,0.0692975223064422,-0.0138971740379929,0.0145080387592315,-0.0083993906155228
1772902385910697500,9.753697509765624,-0.0053081512451171,0.0070304870605468,-0.0493612885475158,-0.0102319847792387,0.0187840927392244,-0.0138971740379929
1772902385929684500,9.7726845703125,0.0752592086791992,0.0561037063598632,-0.0974825918674469,-0.0010690133785828,0.0132863093167543,-0.002901607658714
1772902385948671500,9.79167138671875,0.1138226985931396,0.0559463500976562,-0.0475080609321594,0.0013744457392022,0.0022907429374754,0.0117591470479965
1772902385967658500,9.810658447265626,0.0365543365478515,0.0365848541259765,-0.0257105231285095,0.0050396346487104,-0.0013744457392022,0.0227547138929367
1772902385986645500,9.8296455078125,-0.0661802291870117,-0.0147476196289062,0.0143499076366424,0.0062613640911877,0.006566796451807,0.0166460648179054
1772902386005632500,9.848632568359376,-0.0885815620422363,-0.0798196792602539,0.0726766884326934,0.0001527161948615,0.0175623632967472,-0.0016798780998215
1772902386024619500,9.86761962890625,-0.0234706401824951,-0.0369939804077148,0.0365774631500244,-0.0041233371011912,0.0242818742990493,-0.0071776611730456
1772902386043606500,9.8866064453125,0.0378336906433105,0.0271987915039062,-0.0122852027416229,0.0013744457392022,0.0193949565291404,0.0001527161948615
1772902386062593500,9.905593505859375,0.0701878070831298,0.0163421630859375,-0.0358264446258544,0.0087048234418034,0.006566796451807,0.0080939587205648
1772902386081580500,9.92458056640625,-0.0006589889526367,-0.0010490417480468,0.0453903973102569,0.0056504993699491,-0.0056504993699491,0.0087048234418034
1772902386100567600,9.943567626953126,-0.0230538845062255,-0.0061750411987304,0.0782871544361114,-0.0004581485991366,-0.0032070400193333,0.0044287694618105
1772902386119554600,9.962554443359377,-0.0406734943389892,-0.0388174057006835,0.0648808181285858,-0.0041233371011912,0.009621120058,0.0007635809597559
1772902386138541600,9.98154150390625,-0.0164849758148193,-0.0233001708984375,0.0057304799556732,-0.0047342018224298,0.0108428495004773,-0.0053450670093297
1772902386157528600,10.000528564453123,0.0251212120056152,-0.0033254623413085,-0.0083025097846984,-0.0016798780998215,-0.0001527161948615,-0.0041233371011912
1772902386176515600,10.019515625,0.0424516201019287,0.0039730072021484,-0.0057550072669982,-0.0010690133785828,-0.0099265528842806,0.0001527161948615
1772902386195502600,10.038502685546876,0.0272703170776367,0.0432014465332031,0.0035098493099212,0.0001527161948615,-0.0105374176055192,0.0038179049734026
1772902386214489600,10.057489501953125,0.0067269802093505,0.0366945266723632,0.0106820166110992,-0.0041233371011912,-0.009315688163042,0.0074830935336649
1772902386233476600,10.0764765625,-0.001133918762207,0.0302543640136718,-0.0147279202938079,-0.0041233371011912,-0.0044287694618105,0.0117591470479965
1772902386252463600,10.095463623046877,-0.0149562358856201,-0.0106658935546875,-0.0093210637569427,0.0007635809597559,-0.0038179049734026,0.0129808764904737
1772902386271450600,10.11445068359375,-0.0643372535705566,-0.0552272796630859,-0.0229632556438446,-0.0004581485991366,-0.0032070400193333,0.0074830935336649
1772902386290437600,10.133437744140624,-0.0597889423370361,0.0048656463623046,-0.0013332068920135,-0.0022907429374754,-0.0062613640911877,-0.0022907429374754
1772902386309424600,10.152424560546876,-0.0210838317871093,0.0117616653442382,-0.0199865400791168,0.0001527161948615,0.0004581485991366,-0.0035124723799526
1772902386328411600,10.17141162109375,0.0147042274475097,0.006814956665039,-0.0054757893085479,0.0038179049734026,0.0120645789429545,0.0007635809597559
1772902386347398700,10.190398681640623,0.0268247127532959,-0.0056781768798828,0.0017952919006347,0.0050396346487104,0.0163406319916248,0.0074830935336649
1772902386366385700,10.2093857421875,-0.0051825046539306,0.0174064636230468,0.0304856300354003,-0.0004581485991366,0.0163406319916248,0.0080939587205648
1772902386385372700,10.22837255859375,-0.0184082984924316,0.0236749649047851,-0.0361811816692352,0.0001527161948615,-0.0074830935336649,0.0019853105768561
1772902386404359700,10.247359619140624,-0.0251691341400146,0.0157842636108398,-0.0791673958301544,0.0105374176055192,-0.0227547138929367,-0.0010690133785828
1772902386423346700,10.2663466796875,0.0246341228485107,-0.0201654434204101,0.0460056960582733,0.0117591470479965,-0.0276416316628456,0.0038179049734026
1772902386442333700,10.285333740234377,-0.035987377166748,-0.071319580078125,0.1366811394691467,-0.0010690133785828,-0.0038179049734026,0.0062613640911877
1772902386461320700,10.30432080078125,-0.0937824249267578,-0.054295539855957,0.0880914628505706,-0.0138971740379929,0.0181732270866632,-0.0102319847792387
1772902386480307700,10.3233076171875,-0.0049004554748535,0.0329103469848632,-0.0821031630039215,-0.0083993906155228,0.0132863093167543,-0.016951497644186
1772902386499294700,10.342294677734374,0.1056797504425048,0.0805606842041015,-0.1971484422683715,0.0135917412117123,-0.0087048234418034,-0.0022907429374754
1772902386518281700,10.36128173828125,0.0514116287231445,0.0051889419555664,-0.0596524477005004,0.0215329825878143,-0.0270307660102844,0.0087048234418034
1772902386537268700,10.380268798828125,-0.0591490268707275,-0.0555982589721679,0.1543974131345749,-0.0004581485991366,-0.0227547138929367,0.0068722288124263
1772902386556255700,10.399255859375,-0.0917658805847168,-0.0254268646240234,0.1326644718647003,-0.0218384154140949,-0.0007635809597559,-0.0010690133785828
1772902386575242800,10.41824267578125,-0.0780489444732666,-0.0056209564208984,-0.038084864616394,-0.0163406319916248,0.016951497644186,-0.0077885258942842
1772902386594229800,10.437229736328124,0.0444390773773193,-0.0051984786987304,-0.1425874531269073,0.0007635809597559,0.0090102553367614,-0.0059559317305684
1772902386613216800,10.456216796875,0.0776340961456298,0.0347185134887695,-0.140959233045578,0.0056504993699491,-0.0068722288124263,-0.002901607658714
1772902386632203800,10.475203857421874,0.0889098644256591,0.0660610198974609,-0.0777670741081237,0.0062613640911877,-0.0099265528842806,0.0019853105768561
1772902386651190800,10.494190673828124,0.0480985641479492,0.0350513458251953,0.0077123641967773,0.0074830935336649,0.0163406319916248,0.0117591470479965
1772902386670177800,10.513177734375,-0.0256323814392089,-0.0575294494628906,0.0192351043224334,0.0056504993699491,0.037720900028944,0.0142026059329509
1772902386689164800,10.532164794921876,-0.0964024066925048,-0.078923225402832,0.0859899818897247,-0.0016798780998215,0.0462730079889297,-0.0016798780998215
1772902386708151800,10.55115185546875,-0.0385942459106445,-0.0243358612060546,0.020448625087738,-0.006566796451807,0.0297796577215194,-0.0114537142217159
1772902386727138800,10.570138916015624,0.0260014533996582,0.0096292495727539,-0.0849000513553619,0.0068722288124263,0.0090102553367614,-0.0108428495004773
1772902386746125800,10.589125732421875,0.0612356662750244,0.0070915222167968,-0.0068840682506561,0.0129808764904737,-0.0019853105768561,-0.0035124723799526
1772902386765112800,10.60811279296875,0.0240130424499511,0.048954963684082,0.1041631400585174,0.0007635809597559,-0.0044287694618105,0.0007635809597559
1772902386784099800,10.627099853515626,-0.0089588165283203,0.0078792572021484,0.0690132975578308,-0.0083993906155228,0.0004581485991366,0.0007635809597559
1772902386803086800,10.6460869140625,-0.0418338775634765,-0.0011587142944335,0.009745568037033,-0.0035124723799526,0.0047342018224298,-0.006566796451807
1772902386822073900,10.665073974609374,0.0232553482055664,-0.030853271484375,0.0004289746284484,-0.0010690133785828,-0.0025961752980947,-0.0083993906155228
1772902386841060900,10.684060791015623,0.0259962081909179,-0.0062885284423828,0.033308982849121,-0.0041233371011912,-0.0025961752980947,-0.002901607658714
1772902386860048000,10.7030478515625,-0.0224840641021728,-0.0006484985351562,0.0190511047840118,-0.002901607658714,-0.0007635809597559,-0.0053450670093297
1772902386879035000,10.722034912109375,-0.0255708694458007,0.023543357849121,-0.0019059777259826,-0.0016798780998215,-0.0001527161948615,-0.009621120058
1772902386898022000,10.74102197265625,0.0136802196502685,0.0603961944580078,0.0007284581661224,-0.0010690133785828,0.0047342018224298,-0.006566796451807
1772902386917009000,10.7600087890625,0.0273134708404541,0.0183134078979492,-0.005793422460556,-0.0010690133785828,0.0083993906155228,0.0013744457392022
1772902386935996000,10.778995849609377,0.0203981399536132,-0.0014276504516601,-0.0332260131835937,-0.002901607658714,-0.0013744457392022,0.0062613640911877
1772902386954983000,10.79798291015625,-0.0333855152130126,-0.0152645111083984,-0.0466030240058898,0.0013744457392022,-0.0087048234418034,0.0025961752980947
1772902386973970000,10.816969970703123,-0.0443699359893798,-0.0354824066162109,-0.0397972762584686,0.0050396346487104,-0.0087048234418034,-0.0053450670093297
1772902386992957000,10.83595703125,-0.0097432136535644,-0.0131025314331054,0.0045215487480163,0.0044287694618105,-0.0044287694618105,-0.0090102553367614
1772902387011944000,10.85494384765625,0.048030138015747,0.0230493545532226,0.0204438269138336,0.0013744457392022,-0.0001527161948615,-0.0059559317305684
1772902387030931000,10.873930908203125,0.1027958393096923,0.0013542175292968,-0.0084350407123565,-0.0022907429374754,-0.0087048234418034,0.0056504993699491
1772902387049918000,10.89291796875,0.036384105682373,0.0143899917602539,-0.0127567648887634,-0.0022907429374754,-0.009315688163042,0.0166460648179054
1772902387068905000,10.911905029296875,-0.0747110843658447,-0.0241851806640625,-0.0053107440471649,-0.0010690133785828,-0.0032070400193333,0.009315688163042
1772902387087892000,10.93089208984375,-0.0889105796813964,-0.0118417739868164,0.0166975855827331,-0.0071776611730456,-0.0032070400193333,-0.0071776611730456
1772902387106879000,10.94987890625,0.00364351272583,-0.0021209716796875,-0.0626806616783142,-0.0016798780998215,-0.0044287694618105,-0.0077885258942842
1772902387125865700,10.96886572265625,0.0896878242492675,-0.0206918716430664,-0.0096038877964019,0.0019853105768561,-0.0013744457392022,0.0025961752980947
1772902387144853000,10.98785302734375,0.0624339580535888,-0.0137767791748046,0.0427027642726898,-0.0059559317305684,0.0071776611730456,0.0129808764904737
1772902387163840000,11.006840087890623,-0.0804753303527832,-0.0300502777099609,0.0236212611198425,-0.016951497644186,0.0200058221817016,0.0044287694618105
1772902387182826800,11.02582666015625,-0.0934085845947265,-0.0144929885864257,-0.1119358241558075,-0.0108428495004773,0.016951497644186,-0.0151189034804701
1772902387201813800,11.044813720703123,-0.0166106224060058,0.047276496887207,-0.193164050579071,0.0123700117692351,0.0035124723799526,-0.0187840927392244
1772902387220801000,11.063801025390624,0.0489130020141601,0.0178785324096679,-0.1190279424190521,0.0251981727778911,-0.0282524954527616,-0.0114537142217159
1772902387239788000,11.0827880859375,0.0369520187377929,-0.0128993988037109,0.0753890872001648,0.0148134706541895,-0.0392480604350566,-0.0004581485991366
1772902387258774800,11.10177490234375,-0.0811929702758789,-0.0169754028320312,0.1925324499607086,-0.0022907429374754,-0.0123700117692351,-0.0047342018224298
1772902387277761800,11.12076171875,-0.0960257053375244,0.0194263458251953,0.1233152747154235,-0.0108428495004773,0.0303905233740806,-0.0120645789429545
1772902387296749000,11.1397490234375,0.0283608436584472,-0.0013647079467773,-0.0010518133640289,-0.006566796451807,0.0413860902190208,-0.0138971740379929
1772902387315736000,11.158736083984374,0.1175332069396972,0.026951789855957,-0.09199059009552,-0.0016798780998215,0.0151189034804701,-0.002901607658714
1772902387334722800,11.177722900390624,0.071519136428833,0.0281200408935546,-0.1012484431266784,0.0038179049734026,-0.0148134706541895,0.0050396346487104
1772902387353709800,11.196709716796876,0.0201601982116699,0.0876646041870117,-0.0975657701492309,0.0166460648179054,-0.0392480604350566,0.0025961752980947
1772902387372696800,11.21569677734375,0.0941252708435058,0.0585565567016601,-0.0259974598884582,0.0313068181276321,-0.0117591470479965,0.019700389355421
1772902387391683800,11.234683837890625,0.0338077545166015,-0.0653638839721679,0.1723907589912414,0.0099265528842806,0.0499381944537162,0.0569631420075893
1772902387410670800,11.2536708984375,0.0669758319854736,-0.0216541290283203,0.0952915251255035,-0.0138971740379929,-0.0038179049734026,0.0502436272799968
1772902387429657900,11.272657958984375,-0.165445327758789,-0.0140037536621093,-0.1026399135589599,0.0038179049734026,0.0132863093167543,0.0398589260876178
1772902387448644900,11.291644775390624,-0.1453104019165039,-0.0026836395263671,-0.0648792684078216,0.0142026059329509,-0.0190895237028598,0.0087048234418034
1772902387467631900,11.3106318359375,-0.1031160354614257,-0.0037240982055664,0.0152745842933654,0.0129808764904737,-0.0343611426651477,-0.0181732270866632
1772902387486619000,11.329618896484376,-0.0231573581695556,-0.0120925903320312,0.1164200007915496,-0.0004581485991366,-0.0459675751626491,-0.0297796577215194
1772902387505606000,11.34860595703125,0.0096275806427001,-0.1315202713012695,0.1596650779247284,-0.0138971740379929,-0.0123700117692351,-0.0285579282790422
