time,seconds_elapsed,acc_z,acc_y,acc_x,gyro_z,gyro_y,gyro_x
1772904297473349000,5.44334912109375,-0.0012092590332031,0.0125648081302642,0.009398266673088,0.0007635809597559,0.0004581485991366,0.0
1772904297492334300,5.462334228515625,0.0034961700439453,0.016686588525772,-0.0049982070922851,0.0007635809597559,-0.0001527161948615,0.0006108647794462
1772904297511319600,5.481319580078125,0.0082035064697265,2.29179859161e-05,-0.0191200524568557,0.0007635809597559,0.0004581485991366,0.0
1772904297530304800,5.5003046875,0.0128355026245117,-0.0022292733192443,-0.0211114883422851,0.0007635809597559,0.0004581485991366,-0.0006108647794462
1772904297549290200,5.519290283203125,-0.0037908554077148,0.0003917813301086,-0.0042656362056732,0.0007635809597559,-0.0001527161948615,0.0
1772904297568275500,5.538275390625,-0.003509521484375,0.0190687775611877,0.0076289921998977,0.0007635809597559,0.0004581485991366,0.0
1772904297587260700,5.5572607421875,0.0084133148193359,-0.0094611942768096,-0.0136838108301162,0.0013744457392022,0.0016798780998215,-0.0006108647794462
1772904297606246000,5.576245849609375,0.0133047103881835,-0.0113047659397125,-0.0159399211406707,0.0007635809597559,-0.0019853105768561,0.0
1772904297625231000,5.595231201171875,-0.0103969573974609,0.0341963768005371,0.0025584697723388,0.0007635809597559,-0.0013744457392022,0.0
1772904297644216300,5.61421630859375,0.0041465759277343,-0.0065816342830657,0.0004221051931381,0.0007635809597559,0.0016798780998215,0.0
1772904297663201500,5.633201416015625,-0.0127811431884765,-0.0179663300514221,-0.0114154070615768,0.0007635809597559,-0.0013744457392022,0.0
1772904297682186800,5.652186767578125,-0.0007896423339843,0.0037900805473327,-0.0017762035131454,0.0007635809597559,0.0004581485991366,-0.0006108647794462
1772904297701172000,5.671171875,0.0066099166870117,0.0130254924297332,0.0119964331388473,0.0007635809597559,0.0010690133785828,0.0006108647794462
1772904297720157200,5.6901572265625,0.0113334655761718,-0.024635836482048,-0.0094770640134811,0.0001527161948615,-0.0001527161948615,-0.0006108647794462
1772904297739142400,5.709142333984375,-0.0006952285766601,0.0137124061584472,-0.0024171322584152,0.0013744457392022,-0.0013744457392022,0.0
1772904297758127600,5.728127685546875,0.0087814331054687,-0.0102677345275878,0.0071712732315063,0.0007635809597559,0.0010690133785828,-0.0006108647794462
1772904297777112800,5.74711279296875,-0.0057058334350585,-0.0239227712154388,0.0047856271266937,0.0007635809597559,-0.0007635809597559,0.0
1772904297796098000,5.76609814453125,-0.0101079940795898,-0.0071427524089813,-0.0071213990449905,0.0007635809597559,-0.0007635809597559,0.0006108647794462
1772904297815083300,5.785083251953125,0.0063810348510742,0.0212011933326721,0.0024240612983703,0.0001527161948615,-0.0007635809597559,0.0
1772904297834068500,5.804068359375,0.0061712265014648,-0.0145363509654998,-0.0047945380210876,0.0007635809597559,0.0010690133785828,0.0
1772904297853053700,5.8230537109375,-0.0032520294189453,0.0120696425437927,-0.0143441259860992,-0.0004581485991366,-0.0007635809597559,0.0
1772904297872039000,5.842038818359375,-0.0056943893432617,0.0045163035392761,0.0143745690584182,0.0007635809597559,-0.0001527161948615,0.0
1772904297891024100,5.861024169921875,-0.0033521652221679,0.0135253369808197,-0.0166811048984527,0.0007635809597559,-0.0001527161948615,0.0
1772904297910009300,5.88000927734375,0.0040178298950195,-0.01283460855484,-0.0140269696712493,0.0007635809597559,-0.0001527161948615,0.0012217295588925
1772904297928994800,5.898994873046875,-0.0032167434692382,0.0157117843627929,-0.0089621394872665,0.0007635809597559,-0.0007635809597559,0.0
1772904297947980000,5.91797998046875,0.0085773468017578,-0.0057636499404907,0.0078117102384567,-0.0004581485991366,0.0004581485991366,0.0
1772904297966965200,5.93696533203125,-0.0149641036987304,0.0111168026924133,-0.0113387107849121,0.0001527161948615,-0.0007635809597559,0.0
1772904297985950500,5.955950439453125,-0.0027503967285156,0.0016691386699676,0.0051847100257873,0.0007635809597559,-0.0007635809597559,-0.0012217295588925
1772904298004935700,5.974935791015625,-0.0121545791625976,0.003989040851593,0.0096159726381301,0.0007635809597559,-0.0007635809597559,0.0
1772904298023921000,5.9939208984375,-0.0238265991210937,-0.0127367973327636,-0.0071065872907638,0.0007635809597559,0.0004581485991366,0.0006108647794462
1772904298042906000,6.012906005859375,0.0120182037353515,-0.0100572109222412,0.0021359920501708,0.0001527161948615,-0.0001527161948615,0.0
1772904298061891300,6.031891357421875,0.0187578201293945,0.0181631445884704,0.0090776830911636,0.0007635809597559,-0.0001527161948615,0.0
1772904298080876500,6.05087646484375,-0.0006084442138671,0.0037809610366821,-0.0075495988130569,0.0007635809597559,-0.0001527161948615,0.0
1772904298099861800,6.06986181640625,-0.0027837753295898,-0.0082600116729736,0.0115109831094741,0.0007635809597559,0.0004581485991366,0.0
1772904298118847000,6.088846923828125,0.0019760131835937,0.0034695863723754,0.0137846320867538,0.0007635809597559,0.0004581485991366,0.0
1772904298137832200,6.107832275390625,0.0065364837646484,-0.0038715302944183,0.0159330815076828,0.0001527161948615,-0.0007635809597559,0.0006108647794462
1772904298156817400,6.1268173828125,0.0111427307128906,0.0195169448852539,-0.0006245821714401,0.0007635809597559,-0.0007635809597559,0.0
1772904298175802600,6.145802734375,-0.005812644958496,0.0022890865802764,-0.0215978175401687,0.0007635809597559,-0.0001527161948615,0.0
1772904298194787800,6.164787841796875,0.0037088394165039,-0.0188563466072082,0.0092542767524719,0.0007635809597559,-0.0007635809597559,0.0
1772904298213773000,6.18377294921875,0.0084915161132812,-0.0022046267986297,0.0115813016891479,0.0007635809597559,0.0004581485991366,0.0006108647794462
1772904298232758300,6.20275830078125,0.0128746032714843,-0.0090889036655426,0.013859286904335,0.0007635809597559,-0.0001527161948615,0.0
1772904298251743500,6.221743408203125,0.0057430267333984,0.0124339461326599,-0.0051197260618209,0.0001527161948615,0.0004581485991366,0.0
1772904298270728700,6.240728759765625,-0.005899429321289,-0.0065194368362426,-0.019230842590332,0.0007635809597559,-0.0001527161948615,0.0
1772904298289714000,6.2597138671875,0.0035905838012695,0.0028968751430511,0.0069421976804733,-0.0004581485991366,0.0010690133785828,0.0
1772904298308699400,6.278699462890625,-0.0175886154174804,0.0098263323307037,0.0163505524396896,0.0007635809597559,-0.0013744457392022,0.0
1772904298327684600,6.2976845703125,0.0036945343017578,-0.0044339895248413,-0.0027215778827667,0.0001527161948615,-0.0007635809597559,-0.0006108647794462
1772904298346669800,6.316669921875,-0.005955696105957,0.0052105784416198,-0.0096442103385925,-0.0004581485991366,0.0004581485991366,0.0
1772904298365655000,6.335655029296875,-0.0127372741699218,0.009475290775299,0.0049138665199279,0.0007635809597559,0.0004581485991366,0.0
1772904298384640300,6.35464013671875,-0.0007085800170898,0.0118919909000396,-0.0020681172609329,0.0007635809597559,0.0004581485991366,-0.0012217295588925
1772904298403625500,6.37362548828125,0.0087652206420898,0.0047201514244079,0.0214202553033828,0.0007635809597559,-0.0007635809597559,0.0
1772904298422610700,6.392610595703125,0.022592544555664,0.0093148052692413,-0.0002982169389724,0.0007635809597559,-0.0001527161948615,0.0
1772904298441596000,6.411595947265625,0.001133918762207,-0.0044828951358795,-0.0096857398748397,0.0007635809597559,-0.0007635809597559,-0.0006108647794462
1772904298460581000,6.4305810546875,0.019841194152832,0.0028484165668487,0.0023705661296844,0.0007635809597559,-0.0001527161948615,0.0
1772904298479566300,6.44956640625,0.0124006271362304,0.0003676712512969,8.4489583969e-06,0.0007635809597559,-0.0013744457392022,0.0
1772904298498551600,6.468551513671875,-0.0042896270751953,-0.0092456340789794,-0.0074434876441955,0.0001527161948615,-0.0007635809597559,0.0
1772904298517536800,6.487536865234375,0.0003585815429687,8.40723514556e-05,-0.0096551328897476,0.0007635809597559,-0.0007635809597559,0.0
1772904298536522000,6.50652197265625,0.0168962478637695,0.0025762319564819,0.0049455314874649,0.0001527161948615,0.0004581485991366,0.0
1772904298555507200,6.525507080078125,0.0003747940063476,-0.0115426182746887,0.00055493414402,0.0019853105768561,-0.0007635809597559,0.0
1772904298574492400,6.544492431640625,-0.0137548446655273,-0.0042132139205932,0.0053088814020156,0.0007635809597559,-0.0001527161948615,0.0
1772904298593477600,6.5634775390625,0.0006952285766601,-0.0180560648441314,0.0029238015413284,0.0007635809597559,-0.0001527161948615,-0.0012217295588925
1772904298612462800,6.582462890625,0.0029869079589843,0.0081127882003784,-0.0110324323177337,0.0007635809597559,-0.0001527161948615,0.0
1772904298631448000,6.601447998046875,-0.0017032623291015,-0.0014428198337554,-0.0039843022823333,0.0007635809597559,-0.0001527161948615,0.0
1772904298650433300,6.620433349609375,0.0103158950805664,0.0035134851932525,-0.0014157593250274,0.0007635809597559,0.0004581485991366,0.0
1772904298669418500,6.63941845703125,0.0053052902221679,-0.0128922164440155,-0.0062158107757568,0.0001527161948615,-0.0007635809597559,-0.0006108647794462
1772904298688403700,6.65840380859375,-0.0133047103881835,0.0107955634593963,-0.0108798891305923,0.0001527161948615,-0.0007635809597559,0.0
1772904298707389200,6.67738916015625,-0.0152931213378906,0.0175258517265319,0.0082122832536697,0.0007635809597559,0.0004581485991366,0.0
1772904298726374400,6.69637451171875,-0.0007915496826171,0.0030634105205535,0.0196121335029602,0.0007635809597559,-0.0001527161948615,-0.0006108647794462
1772904298745359600,6.715359619140625,0.0060977935791015,0.0124579668045043,-0.0112230479717254,0.0007635809597559,-0.0001527161948615,0.0
1772904298764344800,6.7343447265625,0.0200529098510742,0.005228191614151,0.0150787234306335,0.0007635809597559,-0.0001527161948615,0.0
1772904298783330000,6.753330078125,0.0220165252685546,0.0076884031295776,-0.0109957158565521,0.0007635809597559,-0.0001527161948615,0.0
1772904298802315300,6.772315185546875,0.0005779266357421,0.0217505991458892,-0.0131081491708755,0.0001527161948615,-0.0007635809597559,-0.0006108647794462
1772904298821300500,6.791300537109375,-0.008890151977539,0.0141950547695159,0.0152709633111953,0.0007635809597559,-0.0001527161948615,0.0006108647794462
1772904298840285700,6.81028564453125,-0.0015735626220703,0.0068747997283935,0.0031282752752304,0.0007635809597559,-0.0001527161948615,0.0
1772904298859271000,6.82927099609375,0.0007505416870117,0.0090246498584747,0.0123296380043029,0.0007635809597559,-0.0001527161948615,-0.0006108647794462
1772904298878256000,6.848256103515625,-0.0039424896240234,0.0089053213596344,0.0027547776699066,0.0007635809597559,-0.0001527161948615,0.0
1772904298897241300,6.867241455078125,-0.00616455078125,-0.0010119676589965,0.0121820420026779,0.0007635809597559,0.0004581485991366,-0.0006108647794462
1772904298916226600,6.8862265625,0.0010204315185546,-0.0200101435184478,0.0187848955392837,0.0007635809597559,0.0004581485991366,0.0
1772904298935211800,6.905211669921875,-0.0083847045898437,-0.0029912889003753,-0.0053578168153762,0.0007635809597559,-0.0001527161948615,0.0
1772904298954197000,6.924197021484375,-0.0130138397216796,0.011422723531723,-0.012370690703392,0.0007635809597559,-0.0001527161948615,-0.0012217295588925
1772904298973182200,6.94318212890625,0.0156469345092773,-0.009638637304306,-0.0003631711006164,0.0007635809597559,-0.0013744457392022,0.0
1772904298992167400,6.96216748046875,-0.0104007720947265,-0.0021823942661285,-0.0073833465576171,0.0007635809597559,0.0004581485991366,-0.0006108647794462
1772904299011152600,6.981152587890625,0.0133171081542968,0.00739187002182,-0.0048148483037948,0.0007635809597559,-0.0001527161948615,0.0006108647794462
1772904299030137900,7.000137939453125,-0.0011234283447265,0.0235463678836822,0.004453033208847,0.0007635809597559,-0.0001527161948615,0.0
1772904299049123000,7.019123046875,0.02020263671875,0.0042586326599121,0.0018278956413269,0.0007635809597559,-0.0001527161948615,-0.0006108647794462
1772904299068108300,7.0381083984375,0.0083580017089843,-0.0167630910873413,-0.014795571565628,0.0007635809597559,0.0004581485991366,0.0
1772904299087093500,7.057093505859375,0.0105113983154296,-0.0048916339874267,-0.0095899552106857,0.0007635809597559,-0.0001527161948615,0.0
1772904299106079000,7.076078857421875,-0.0036449432373046,-0.0115344822406768,-0.0068143755197525,0.0001527161948615,-0.0001527161948615,-0.0012217295588925
1772904299125064200,7.095064208984375,0.0034542083740234,0.0031239390373229,-0.0184252262115478,-0.0004581485991366,0.0004581485991366,-0.0006108647794462
1772904299144049400,7.11404931640625,0.0010242462158203,0.0006898641586303,-0.0062156915664672,0.0007635809597559,-0.0001527161948615,0.0
1772904299163034600,7.13303466796875,-0.0226573944091796,0.0053001046180725,0.0102167427539825,0.0007635809597559,-0.0007635809597559,0.0
1772904299182019800,7.152019775390625,-0.0032014846801757,-0.0178272128105163,0.0075919479131698,0.0007635809597559,0.0004581485991366,0.0
1772904299201005000,7.171005126953125,-0.0009374618530273,0.0200225710868835,-0.0043979883193969,0.0007635809597559,-0.0001527161948615,0.0
1772904299219990300,7.189990234375,-0.0079660415649414,-0.006085842847824,-0.0041839629411697,0.0013744457392022,-0.0007635809597559,0.0
1772904299238975500,7.2089755859375,-0.005589485168457,-0.0106284022331237,-0.0016844868659973,0.0007635809597559,-0.0007635809597559,-0.0012217295588925
1772904299257960700,7.227960693359375,0.006199836730957,-0.0031178891658782,-0.0064063221216201,0.0007635809597559,-0.0007635809597559,-0.0006108647794462
1772904299276946000,7.24694580078125,0.0013275146484375,0.0109503865242004,0.0005582422018051,0.0013744457392022,-0.0001527161948615,0.0
1772904299295931100,7.26593115234375,-0.010481834411621,0.008414477109909,0.0076243579387664,0.0007635809597559,-0.0001527161948615,0.0
1772904299314916400,7.284916259765625,-0.0099773406982421,0.0198281705379486,-0.0087020993232727,0.0007635809597559,0.0004581485991366,0.0
1772904299333901600,7.303901611328125,0.0020341873168945,0.0053909420967102,0.0124234706163406,0.0007635809597559,-0.0007635809597559,0.0
1772904299352886800,7.32288671875,-0.0001869201660156,0.0125124752521514,0.0052324682474136,0.0007635809597559,0.0004581485991366,0.0
1772904299371872000,7.3418720703125,-0.0095548629760742,0.0004049241542816,-0.0209050923585891,0.0001527161948615,-0.0007635809597559,0.0
1772904299390857200,7.360857177734375,0.0072298049926757,0.0050193965435028,0.0031842142343521,0.0007635809597559,-0.0001527161948615,-0.0006108647794462
1772904299409842400,7.379842529296875,0.0093393325805664,-0.0162781924009323,-0.0181790143251419,0.0007635809597559,-0.0013744457392022,0.0
1772904299428827600,7.39882763671875,-0.0049295425415039,0.0122047066688537,0.0149938762187957,0.0007635809597559,0.0010690133785828,0.0
1772904303463188500,11.4331884765625,-0.0057506561279296,-0.0057025849819183,-0.035867616534233,-0.0004581485991366,-0.0025961752980947,0.0
1772904303482173700,11.452173583984376,-0.0079994201660156,-0.0004889070987701,-0.0070484578609466,0.0007635809597559,-0.0013744457392022,0.0
1772904303501159000,11.471158935546876,0.0107393264770507,0.0040218532085418,0.0284162312746047,0.0019853105768561,0.0004581485991366,0.0006108647794462
1772904303520144100,11.49014404296875,-0.0108318328857421,0.0388987064361572,-0.0123565196990966,0.0001527161948615,-0.0007635809597559,0.0
1772904303539129300,11.50912939453125,-0.0082807540893554,-0.0065373182296752,-0.0144420266151428,0.0007635809597559,-0.0007635809597559,0.0
1772904303558114600,11.528114501953125,0.0059518814086914,0.007570058107376,-0.0001068413257598,-0.0004581485991366,0.0004581485991366,0.0
1772904303691011300,11.66101123046875,-0.8017997741699219,0.0278677344322204,-0.4507657587528229,0.0025961752980947,-0.1424842029809951,-0.067805990576744
1772904303709996300,11.679996337890625,1.2448930740356443,-0.0226419121026992,0.0991661548614502,-0.0261144693940877,-0.7423534393310547,-0.0164933484047651
