time,seconds_elapsed,acc_z,acc_y,acc_x,gyro_z,gyro_y,gyro_x
1772650924315734300,0.070734375,0.0385065485268831,0.001602905151993,-0.0025263858056161,-0.0009667444974184,0.0004188274033367,-0.0018063101451843
1772650924325707000,0.08070703125,0.0338701208978891,0.0185168497476726,-0.0002586874688044,0.0001189755275845,-0.0005096299573779,-0.0002063500869553
1772650924335679000,0.090678955078125,0.0503343489646911,0.0091364424619823,0.0002094597659073,-0.0018528287764638,-0.0007929904386401,0.0013023307546973
1772650924345651200,0.100651123046875,0.0323813436448574,0.0070386664651334,0.0058065034548286,-0.000125621445477,-0.0008629995863884,0.0008823942625895
1772650924355624000,0.1106240234375,0.0552758970201015,0.0186860688347369,0.0036738844734616,0.001568148843944,0.0007878937758505,0.0010909197153523
1772650924365596200,0.12059619140625,0.0585714314341545,0.0148136113155633,-0.0017740148020442,-0.0007030698470771,-0.0015464609023183,0.0012629106640815
1772650924375568100,0.130568115234375,0.0495996049493551,0.0103539650255814,-0.0224176200458779,0.0010405015200376,0.0009531821124255,-0.0001056877081282
1772650924385540900,0.140540771484375,0.0466577062785625,-0.007396539992094,0.0001126117953099,-0.0012644617818295,0.0008694492280483,0.0015172965358942
1772650924395513000,0.15051318359375,0.0342354470789432,0.0097937007943168,0.0081075195393525,0.0022106971591711,0.0013022129423916,0.001650720834732
1772650924405486000,0.160486083984375,0.0318996976077556,-0.0149780080970376,-7.11564069148e-05,0.0001152977347373,0.0012089875526726,0.0001505805412307
1772650924415458000,0.1704580078125,0.0382855992525815,-0.0109362949581816,-0.003923913711775,-0.0027265613898634,0.0006007216870784,-0.0005271939444355
1772650924425430000,0.180429931640625,0.0195277072906494,0.0055296136090531,-0.0005815444813109,-0.0006030541844666,-0.0002593239769339,0.0006104806670919
1772650924435403000,0.190403076171875,0.0192535665243864,-0.0161929368447512,0.0062710978924296,5.52795827388e-05,0.0011409660801291,0.0004309836076572
1772650924445375000,0.200375,0.0224064775973558,-0.0205800658877939,0.002970467178151,0.0003989720717072,-0.0015018142294138,0.0004280445864424
1772650924455347000,0.210346923828125,0.0270733003646135,-0.0073405720211565,-0.0016468356252647,0.0016972632147371,0.0007395022548735,0.0003809066256508
1772650924465320200,0.2203203125,0.0415881479293107,-0.0038072833284735,-0.0096037220470141,0.0002139015123248,0.000805941876024,4.44722827523e-05
1772650924475292000,0.2302919921875,0.0375596230655908,0.0104402550695464,0.0050927474285941,-0.0013714781962335,0.0006307060830295,0.0007012078422121
1772650924485265000,0.240264892578125,0.029884850654006,0.0006712868576869,0.0016741894230712,-0.0027994611300528,-0.0017164489254355,-0.0005078098620288
1772650924495237000,0.250237060546875,0.0445230323374271,-0.003159012020193,-0.0034608445109799,-0.0025733588263392,9.21036116778e-05,0.0005523945437744
1772650924505209000,0.260208984375,0.0434872595489025,-0.0064195116534829,0.0054259249057155,-0.0001122332178056,-0.0004007378593087,0.0024392735213041
1772650924515182000,0.27018212890625,0.030571079352498,0.0070381184758618,0.0128017509033437,0.0007069548591971,-0.0009243150707334,0.0010355211561545
1772650924525154000,0.280154052734375,0.0474327823042869,-0.0049062940789386,-0.007054658618709,-0.0007661352865397,-0.0003181318752467,0.001268038409762
1772650924535126000,0.2901259765625,0.0531114124625921,0.0005357143118977,-0.0100944921054877,0.0006373506039381,0.0021210573613643,-0.0011154906824231
1772650924545099000,0.30009912109375,0.0400970325887203,-0.0003887435892596,-0.0082252915669698,0.0017649563960731,-0.0026357066817581,0.0002811017911881
1772650924555071200,0.3100712890625,0.0347305371195077,-0.0072826678214594,-0.0059285680650733,-6.0456804931e-06,-0.0019190500024706,0.0025842033792287
1772650924565043000,0.32004296875,0.030091771402955,0.0017014336230233,0.0083095814500935,-0.0013850070536136,0.0012254663743078,-0.0005797003395855
1772650924575016000,0.330015869140625,0.0360708458125591,-0.001603599271737,0.0109032877377234,-0.0007133577018976,-0.0014118622057139,0.0037974710576236
1772650924584988200,0.33998828125,0.0228840319812297,-0.0145777932656928,-0.0066646911867428,0.003659239038825,0.0018477109260857,0.003001803997904
1772650924594961200,0.349961181640625,0.0417377855330705,-0.0144354256529361,-0.0071030095387715,-0.0007648044265806,0.0022639632225036,-0.0002182241878472
1772650924604933000,0.35993310546875,0.0339513694405555,0.0069814929177984,-0.0028715642477851,-1.10086984932e-05,0.0002982490696012,0.0011937452945858
1772650924614905000,0.369905029296875,0.0367979910433292,0.0165923114258795,-0.0052509336649905,-0.0034273117780685,0.0027275849133729,-0.0005293199210427
1772650924624878000,0.379878173828125,0.0321609788924455,0.0188829065810889,-0.0114367552936077,0.0012735305353999,8.86106863617e-05,0.0004419119795784
1772650924634850000,0.38985009765625,0.0396393519490957,0.0036688977710902,0.0090839176903013,-0.001192822586745,-0.0006110018584877,-0.0037602898664772
1772650924644822000,0.399822021484375,0.0451771123319864,-0.0005615794055163,-0.0057623446526937,-0.0002225865609943,0.0007975748740136,-0.001044969423674
1772650924654795300,0.409795166015625,0.0379851550012826,0.0071021966880187,-0.0226497574344743,0.0007561254315078,0.0013118316419422,0.0002996606053784
1772650924664767000,0.41976708984375,0.0391699808716774,0.0139868051026016,-0.0103718934079166,-0.0017531283665448,-7.5957737863e-05,-0.0011267088120803
1772650924674740000,0.429739990234375,0.0529185202389955,0.0040029520310461,-0.0030317506450228,-0.0013728290796279,0.0001251110807061,0.0020432518795132
1772650924684712200,0.439712158203125,0.032428689917922,0.009742847389914,0.0068625427132472,-0.0011849785223603,-0.00205510831438,-0.0009738151566125
1772650924694684000,0.449683837890625,0.0439694901078939,-0.0019875205554068,0.0051216721289791,0.0014153318479657,-0.0011906463187187,0.0029783160425722
1772650924704657200,0.4596572265625,0.0342605815201997,0.000622113953717,-0.0201132064278703,-0.0011733584105968,3.77590768039e-05,0.0010767906205728
1772650924714629000,0.469629150390625,0.0333569106787443,-0.013408859084174,0.007829414984025,0.0006674188189208,0.001054554246366,0.0001888927654363
1772650924724601000,0.47960107421875,0.0400888492822647,0.0011908172197639,-0.0009314630306791,-0.0008643823675811,0.0013016178272664,0.0005817232886329
1772650924734574000,0.489573974609375,0.0300759893119335,0.0016696137126535,0.00328517741682,0.0007196660153567,0.0004198448732495,0.0006741350516676
1772650924744546000,0.499546142578125,0.041762919974327,0.0062680474188178,-0.002240426737396,-0.0001114099286496,0.0008119731210172,-0.0015317337820306
1772650924754519000,0.50951904296875,0.0505897850304842,-0.0026187676636502,-0.0117362405636813,-0.0013617640361189,-0.0003960370086133,0.0007540573715232
1772650924764491000,0.519490966796875,0.0163245273351669,-0.009247574686259,-0.015922732468089,-0.0005218512378633,0.0007721032015979,-0.0014579778071492
1772650924774463200,0.529463134765625,0.0413040702909231,-0.0053587505541741,-0.0038788233278784,0.002329861279577,0.0027444404549896,-0.0001386478543281
1772650924784436000,0.53943603515625,0.038172786527872,0.0022604192126542,-0.0049665272330399,0.0015191468410193,-0.0025807386264204,-0.0011157755507156
1772650924794408200,0.549408203125,0.0288823956131935,-0.0017778963927179,0.004096649063332,0.0005188635550439,0.0021146805956959,0.0010131554445251
1772650924804380200,0.559380126953125,0.0332195480346679,0.0128083359077572,0.0153293240190483,0.0005852719768881,0.0007953559979796,0.0026817000471055
1772650924814353000,0.569352783203125,0.055661096945405,0.0047816082533448,0.0069042812294326,-0.0007191444747149,0.0003026709891855,-0.0020850920118391
1772650924824325000,0.5793251953125,0.0225999543428421,0.0043922070769593,-0.0124646735692396,0.0003562169149518,0.0004015653394162,0.0001018667244352
1772650924834298000,0.589298095703125,0.030080665487051,-0.0056297495152801,-0.0129610331182833,-0.0011980039998888,-0.0014394780155271,-0.0010382324689999
1772650924844270000,0.59927001953125,0.0495364765852689,-0.0015185148041695,0.0161593177029397,-0.0021813155617564,-0.0003854949027299,-0.0011477335356175
1772650924854242000,0.609241943359375,0.0323281521528959,-0.0086591438064351,-0.0187672169127035,-0.0005440041422843,-0.0009639335330575,-0.0006172317662276
1772650924864215000,0.619215087890625,0.0300876797497272,0.0021824220729991,-0.0113571324524469,0.0006450489163398,-0.0005780709907412,-0.0010563506511971
1772650924874187000,0.62918701171875,0.0282855987638235,-0.0054798196505755,-0.0007322141315322,0.0014812815934419,0.0003580302000045,0.0017338432371616
1772650924884159000,0.639158935546875,0.0368143576562404,0.0105903310647234,0.0147165806818753,0.0020848256535828,0.0006353096105158,0.000996624585241
1772650924894132200,0.64913232421875,0.0389086995869874,0.0004751432310789,0.0093988562578335,7.14757479727e-05,-5.95087185502e-05,7.03772529959e-05
1772650924904104000,0.65910400390625,0.0372638549894094,0.0118064288562163,-0.0061302372501697,0.0005490058101713,-0.0016660206019878,-0.0004446450620889
1772650924914077000,0.669076904296875,0.0483370376676321,-0.0154625036783516,-0.000488157976279,-0.0004185205325484,-0.0003149989061057,0.0003156874445267
1772650924924049200,0.679049072265625,0.0246896200984716,-0.0120829077100381,0.0116099016371183,0.0002487953752279,0.0022869720123708,-0.0019895401783287
1772650924934021000,0.689021240234375,0.0243926829785108,0.0020322730125859,0.0236789452185854,-0.0005040802061557,0.0007274253293871,3.47285531461e-05
1772650924943994000,0.698994140625,0.0296335062414407,0.0243090963482856,-0.0105015933353453,0.0025036935694515,-8.11107456684e-05,0.0022858986631035
1772650924953966000,0.708966064453125,0.0206476512312889,0.0104580464545637,-0.0055012277647852,9.51308757066e-05,0.0004784194752573,0.0018925498006865
1772650924963938000,0.71893798828125,0.0308224237650632,-0.0034275267632678,0.0091669289317913,0.0010933303274214,-0.0003337608650326,0.0009985861834138
1772650924973911000,0.7289111328125,0.0582002600342035,-0.0060243383234366,0.0125768926389049,-8.53845849633e-05,0.0005599958822131,0.0007501132204197
1772650924983883300,0.73888330078125,0.0261824890047311,-0.0152856858067214,0.0051280014050658,0.0006282469257712,0.0004373779520392,-0.002744244877249
1772650924993856000,0.74885595703125,0.0347089098095893,-0.0067774582456797,0.002222050830489,0.0006929617375135,-0.0012223043013364,-0.002859559841454
1772650925003828000,0.758827880859375,0.041733109357953,-0.0007466536488384,0.009379119510902,-0.0002359976060688,7.93673098087e-05,0.0018232795409858
1772650925013800200,0.76880029296875,0.0314075301766395,-0.0116428357923403,0.0006693962946999,0.0012894608080387,-0.0004591238684952,-0.0011988757178187
1772650925023773000,0.77877294921875,0.0348638081103563,0.0042609453801065,0.0138137226911727,-0.0011396324262022,0.0009735352359712,0.0001452889991924
1772650925033745200,0.7887451171875,0.0559691399812698,0.0068173883972689,0.0042129689193796,-0.0026760098990052,-0.0014834969770163,0.003045205026865
1772650925043717000,0.798717041015625,0.0317167422562837,0.0062161711011081,-0.0107075094372965,0.0001639365218579,0.0008290028199553,0.0016113464953377
1772650925053689900,0.80868994140625,0.0224345346480608,-0.0088430855385959,0.0036069110513199,-0.0023274505510926,-0.000188058707863,-0.0018222670769318
1772650925063662000,0.818662109375,0.0335001185417175,-0.0061896484203636,0.0035109215972479,-0.0002875183708965,0.0003874232061207,0.0006853984086774
1772650925073635000,0.828635009765625,0.0354395621716976,0.0047345907738432,-0.0093085110932588,0.0004006423987448,-0.0004994093906134,0.0001884525991044
1772650925083607000,0.83860693359375,0.0502501778125762,0.007349047588557,-0.0023519973530899,-0.001809538109228,-0.0012134716380387,-0.0022622663527727
1772650925093579000,0.8485791015625,0.0345329687207937,-0.008045322757028,0.0001868004095274,0.0004640026018023,0.0024230750277638,0.0012232788139954
1772650925103552000,0.858552001953125,0.025248423025012,0.0134342857863754,0.007810536753619,-0.0013626355212181,0.0009057791903614,0.0022480951156467
1772650925113524000,0.86852392578125,0.029435353320837,0.0018099354987964,0.0023332561200018,-0.0011980524286627,0.0001233424991369,0.0013711161445826
1772650925123496000,0.878495849609375,0.040215106010437,-0.0234276738712564,-0.0145344838469289,-0.0011219098232686,0.0004755049012601,0.0004853168502449
1772650925133469200,0.88846923828125,0.0357230552881956,-0.008092121040821,0.0023154373355209,-0.0006689061410725,-0.0002989419735968,0.0008230056846514
1772650925143441000,0.89844091796875,0.0295785611838102,-0.0066364423397928,0.0065915802847594,-0.0007549035362899,0.0011477558873593,0.0011200264561921
1772650925153414000,0.908413818359375,0.0490349568039178,-0.0035390243137255,0.0051044561326969,0.0012270212173461,-0.0004152534529566,-0.0005500419647432
1772650925163386000,0.91838623046875,0.0491898551046848,-0.0095036318065598,0.0045626774061936,-0.002327837748453,4.00487333536e-05,-0.0008121387800201
1772650925173358000,0.928358154296875,0.0291366626352071,-0.0075411726271733,0.0057081485137343,-0.0001760036684572,-0.0020633158273994,0.00103156757541
1772650925183331000,0.9383310546875,0.0355734176844358,0.0022310835203155,0.0059401215055491,-0.0005801506340503,0.0025342246517539,-0.0022076265886425
1772650925193303000,0.948302978515625,0.027794015854597,0.006822977887839,0.00416494679288,0.0006057550199329,-0.0013606483116745,0.0015170705737546
1772650925203275000,0.95827490234375,0.0402098453134298,0.0019469693493098,-0.0065823649318423,-0.0021189248654991,-0.0009244226384907,0.0027810069732367
1772650925213248000,0.968248046875,0.0309247150957584,0.0007560425316914,-0.0040642811636906,0.0014936528168618,-0.0005763473454862,0.0009343709098175
1772650925223220200,0.97822021484375,0.0395966818511486,0.0086757661476731,-0.0116921182941645,-0.0007724915631115,0.0004757358692586,0.0006099763559177
1772650925233193200,0.988193115234375,0.0253758487969636,0.0055558440288528,-0.0107994620370678,-0.001291009131819,4.98965382575e-05,0.0017769736004993
1772650925243165000,0.9981650390625,0.0415296957403421,0.0052399464800953,0.0025017810873221,0.0005660746246576,-0.0006093899719417,3.16522782668e-05
1772650925253137200,1.00813720703125,0.0291027603656053,0.0102604049906134,-0.0069066010506823,0.0006054891273379,0.001207151915878,0.0009472470264881
1772650925263110100,1.018110107421875,0.0338882410764694,0.0073310004752129,-0.0065423251823987,-0.0006974302232265,-0.0008863902185112,-0.0005077387322671
1772650925273082000,1.02808203125,0.0289548763275146,-0.0133605264304205,-0.0009549717704299,0.0027795927599072,0.0007107071578502,-0.0020518396049737
1772650925283054000,1.03805419921875,0.0427238739609718,0.003512501632981,-0.007314067606721,0.0001290002837777,0.001165556255728,0.0001770933740772
1772650925293027000,1.048027099609375,0.0392787019431591,0.0010283201344311,-0.0033836510889232,0.0013356786221265,0.0003157411701977,0.0002889460884034
1772650925302999000,1.0579990234375,0.0276052152842283,-0.0044118250928819,0.0074982833335176,0.0002531274221837,0.0001982701942324,0.0021525854244828
1772650925312972000,1.067971923828125,0.0388292046099901,-0.0098286259772256,0.0037727508712094,0.0005399496294558,0.0014201286248862,0.0003264559200033
1772650925322944300,1.0779443359375,0.0129424836814403,-0.0042952129758894,-0.0093579397255554,-8.54022800922e-05,-0.0011327078100293,0.0008910830365493
1772650925332916000,1.087916015625,0.0216238027870655,0.0073727207250893,-0.0015862280118279,-0.0009312219917774,0.0001583928242325,0.0010924179805442
1772650925342889000,1.097888916015625,0.0362882879555225,-0.002193126130104,-0.0191959271861705,0.0010681948624551,0.0010593752376735,0.0015133196720853
1772650925352861200,1.107861083984375,0.033437574699521,-0.0069333429271355,-0.0112255510951858,-0.0002900175750255,-0.0004676810931414,0.0018712483579292
1772650925362833000,1.1178330078125,0.0439051927000284,-0.0055403541987761,0.0013153021159581,-0.0012614659499377,0.0016871783882379,0.0030116590205579
1772650925372806100,1.12780615234375,0.0431540820717811,0.0040350642023608,-7.85542620811e-05,-0.0013381650205701,0.0013175318017601,-0.002711740322411
1772650925382778000,1.137778076171875,0.0250461784511804,-0.006430654102005,0.0075830481406766,-0.0024137932341545,0.0008789193816483,-0.0003803378494922
1772650925392751000,1.147751220703125,0.0377589450299739,0.009145685214363,-0.0032677970237564,0.0006741420365869,-0.0003557219170033,-0.0029489567968994
1772650925402723000,1.15772314453125,0.0365589215904474,0.0012990998998284,0.0016654215947259,0.0004299487918615,-0.0002370551228523,0.0010552515741437
1772650925412695300,1.1676953125,0.0386544325649738,-0.0001474456466734,0.0134699050890281,0.0004717605188488,0.0003240727819502,0.0014826888218522
1772650925422668000,1.17766796875,0.0314741656720638,-0.0056243792204186,-0.0028366755974944,0.001674769911915,-0.0010241793934255,0.0008687765803188
1772650925432640000,1.187639892578125,0.0242851309508085,-0.0031428646029904,0.0087558456465601,0.00168995000422,-0.0004468061961233,0.000163837801665
1772650925442612200,1.1976123046875,0.0365536608934402,-0.0041319487055763,0.0104166549982503,-0.0014225686900317,-0.0016552272718399,-6.97068171575e-05
1772650925452585000,1.2075849609375,0.0269780232965946,-0.000415193204768,-0.0081017565188463,-0.0005583730526268,0.0002947393804788,-0.0013144683325663
1772650925462557200,1.21755712890625,0.047475452402234,0.0151570544583722,-0.0084279379996005,-0.0008947206661105,0.0005871313624083,-0.0008294626022689
1772650925472530200,1.2275302734375,0.0372983417809009,0.0029014205299317,-0.0008883362750057,-0.0012814113870263,0.0024042064324021,-0.0010012364946305
1772650925482502000,1.237501953125,0.01889233199656,0.0030365546843037,-0.0009729914843104,-0.000355842988938,0.0002698986791074,-0.0002802775998134
1772650925492474000,1.24747412109375,0.0229354699075222,0.0144376176100224,-0.0234819430754519,0.0003853146918118,-0.000297088176012,-0.0004539157089311
1772650925502447000,1.257447021484375,0.0396907898753881,0.001375562669523,-0.0025913225342985,-0.0001572188921272,0.0010530375875532,0.0013031014241278
1772650925512419000,1.267419189453125,0.0329535905748605,0.0050196913255378,-0.0039009255618322,-8.26502218842e-05,-0.000493193976581,-0.0004524543765
1772650925522391000,1.27739111328125,0.0205307468533515,0.0140187711434438,-0.0254314423085656,0.0005605136975646,0.0020971898920834,-0.0006731809116899
1772650925532364000,1.287364013671875,0.0344452904373407,-0.0085179087048396,-0.0088178962984122,-0.0017231467645615,-0.0003734244965016,-0.0013144700787961
1772650925542336000,1.2973359375,0.0422346291393041,-0.0057318947155028,0.0039778267229441,-0.0008256072178483,-0.0004761689342558,0.0001917238696478
1772650925552309000,1.30730908203125,0.0404383933722972,-0.006803542535007,0.0094469697158783,-0.0009851302020251,0.0016319891437888,-0.0003262609534431
1772650925562281200,1.31728125,0.0295160173416137,-0.0125290440423414,0.0103065822198987,-0.0004697768017649,0.000555835198611,-0.0011803637025877
1772650925572253000,1.3272529296875,0.0423930345714092,-0.0104179336398839,-0.0109635848239064,0.0013283896259963,-0.0006023738533258,0.0024809499736875
1772650925582226000,1.337225830078125,0.0367032984972,-0.0001531447350978,-0.0175747100593522,0.0002797557972371,-0.0001948070712387,-0.00179888762068
1772650925592198100,1.3471982421875,0.033709961900115,-0.0047572775296866,-0.0094823424233589,0.0006174445152282,0.0004313020035624,0.0005558793200179
1772650925602170000,1.357170166015625,0.0251847101390361,0.0077697572186589,0.0181018574723042,0.000978157389909,-0.0012330475728958,0.0017782790819182
1772650925612143000,1.36714306640625,0.0287754281073808,0.0281393952261656,0.0040216019325889,0.001576037146151,0.0014777840115129,-0.0018454841338098
1772650925622115000,1.377114990234375,0.0389461089879274,0.0085928005719557,-0.014562961022742,-0.0003458745777606,0.002264036796987,0.0007450887351296
1772650925632088000,1.387088134765625,0.0395382296621799,0.0096614161841571,-0.0124014356072992,-0.0018476310651749,-0.0004704969469457,-0.0001004649093374
1772650925642060000,1.39706005859375,0.0378857862800359,0.0225565170599147,0.0181217586160171,-0.0002134167589247,-0.0006180445197969,0.0013586659915745
1772650925652032300,1.4070322265625,0.0271095407217741,0.013548888609372,-0.0251817144643515,1.93435698747e-05,-0.0025365857873111,0.0023094145581126
1772650925662005000,1.4170048828125,0.0435661700040101,0.0094344390278682,-0.0045779845731798,2.47443094849e-05,0.0009337626397609,0.0016324585303664
1772650925671977000,1.42697705078125,0.0480459457665681,0.001784180003032,-0.0080402355899568,-0.0004279930144548,0.002080519683659,0.000813270220533
1772650925681949200,1.43694921875,0.0468482604146003,0.0029124533805996,0.0024092804982792,1.14985741674e-05,-0.0017005624249577,0.0031029097735881
1772650925691922000,1.446921875,0.0294938055098056,-0.0055388198288157,-0.0166638696915935,-0.0007557580247521,-0.0015077495481818,-9.76771698333e-05
1772650925701894100,1.45689404296875,0.0227636204719543,-0.0151862805528566,-0.0088222436799667,0.0001549469307065,0.001969160977751,0.0015084501355886
1772650925711867100,1.4668671875,0.0402694665461778,0.0056499520530924,0.0218117265745997,0.0010582911781966,0.0006335857324302,6.2353501562e-05
1772650925721838800,1.4768388671875,0.0342868850052356,-0.0189146168936043,-0.0076803345026914,-8.54521058499e-05,0.0024070427753031,0.001217060838826
1772650925731811000,1.48681103515625,0.0298053556770086,-0.0180325733620673,0.0171574344953522,0.0001600910909473,-0.000278222374618,0.0014024168485775
1772650925741784000,1.4967841796875,0.0410316830903291,0.0083251626117154,0.0073922108768485,0.0012910380028188,1.51093117892e-05,8.50649666972e-05
1772650925751756000,1.506756103515625,0.0326519772797822,0.0004164718464016,-0.0037843043116852,-0.0002330890856683,0.0004598572850227,0.0009423365117982
1772650925761728000,1.51672802734375,0.0266606279104948,0.0179147191360592,-0.0001445961024612,0.0014935303479433,0.0014089634642004,7.56189110688e-05
1772650925771701000,1.526700927734375,0.0278542216092348,-0.0043763153880834,-0.0010691453351639,0.001813109498471,-0.0014155849348753,0.0009419452399015
1772650925781673000,1.5366728515625,0.0275496857047081,0.0158249072499573,-0.0060245940517634,0.0036947266198694,0.0004249811172485,0.0006266410928219
1772650925791646000,1.54664599609375,0.0339811800569295,0.0168997334072366,-0.0136621762581169,-0.0015695437323302,0.0008710604161024,-0.00128710642457
1772650925801618200,1.5566181640625,0.0387672452896833,0.0039248818261548,-0.0056360513919033,0.0014392011798918,-0.0011203549802303,-0.0003264625556766
1772650925811590000,1.56658984375,0.0392108974039554,-0.0032878990968689,-0.0093231606731191,0.0006157513707876,0.0010895361192524,-0.0022769616916775
1772650925821563000,1.57656298828125,0.0360685077250003,0.0008726546486839,-0.0077554181660525,-0.0009632315486669,0.0009998818859457,0.0001127928844653
1772650925831535000,1.58653515625,0.0211070854365825,0.006960559727624,0.0084435191612225,-0.0016484630759805,0.0012190602719783,-0.0002611149684526
1772650925841507000,1.596507080078125,0.0383189170002937,0.0017752660442143,-0.0042390988744795,-0.0007472615689039,-0.0015850926283746,-0.0004498004855122
1772650925851480000,1.60647998046875,0.0483469745397567,-0.0120059700163081,0.0024653489339165,0.0006583547219634,-0.0001994501799345,0.0015158787136897
1772650925861452000,1.6164521484375,0.0378746803641319,-0.0020385566229,-0.0027445403346326,0.0025748894549906,-0.0010873654391616,0.0021469173952937
1772650925871425000,1.626425048828125,0.0215711958169937,0.0008112433176487,0.0142080557710025,0.0016630231402814,-0.0025100260972976,-0.000145531783346
1772650925881397000,1.63639697265625,0.0308469736844301,-0.0040670667758211,0.0315611589689273,-1.98511406779e-05,-0.000322176143527,0.001945141935721
1772650925891369200,1.646369140625,0.0483487281054258,0.0048056467160582,0.0164844854035414,0.0024616820737719,0.0002325600944459,-0.0009316046489402
1772650925901342200,1.65634228515625,0.0320376447737216,-0.000260623697564,0.0072043053556233,0.0006835493259131,0.0012904941104352,0.000642980216071
1772650925911314000,1.66631396484375,0.0360778600752353,0.010142441166751,-0.0020660382848698,0.0014081955887377,0.0007759714499115,-0.0010143049294129
1772650925921286100,1.6762861328125,0.0446107106208801,0.0097409842263907,-0.0084999163904227,-0.0004857908934354,0.0001571127213537,0.0007997347274795
1772650925931259100,1.686259033203125,0.0416144514143466,0.0053790626898407,0.0058953051162883,0.0024037389084696,-0.0004162658005952,-0.0022836732678115
1772650925941231000,1.696231201171875,0.0526876340925693,0.0140305346464738,0.0048137478241231,0.0014790003187954,0.0007638642564415,0.0012703214306384
1772650925951204000,1.7062041015625,0.0351788654088974,0.0206448747523128,0.0037403647052589,0.0016473117284476,-0.0001903465017676,-0.0009805823210626
1772650925961176000,1.716176025390625,0.031587562918663,0.0111223555821925,-0.0204119793118909,0.0015937355346977,0.0018279794603586,-0.0013809150550514
1772650925971148000,1.72614794921875,0.0374263520747423,0.0078040613470599,-0.009086237511551,-0.0006198841147124,0.0023627420887351,4.12128865718e-05
1772650925981121000,1.73612109375,0.0393675492703914,0.0136105191361159,-0.0125402321566361,-0.0012704951222985,-0.000662769190967,0.001708474708721
1772650925991093200,1.74609326171875,0.038622283861041,0.003608180559799,0.0010127207065001,0.0016778903082013,0.0006216736510396,-0.0006087417714297
1772650926001065000,1.75606494140625,0.0140846394538879,-0.0051840515743941,-0.0126685073119588,-0.001291382825002,0.0023445356637239,-0.0016804799670353
1772650926011038000,1.766037841796875,0.0432651412308216,-0.013041158282943,-0.0118570721980649,0.0001099724322557,0.0011817999184131,-0.000308685703203
1772650926021010200,1.77601025390625,0.0380266560554504,-0.0068713470742106,0.0158351455161813,0.0013951286673545,-0.0009051016531884,0.0020643442403525
1772650926030983000,1.78598291015625,0.0396744232624769,0.0037300899064168,-0.0001360292035154,0.0014105746522545,-0.0008782036602497,0.0019269250333309
1772650926040955100,1.795955078125,0.0420680404007434,-0.0019299451492726,0.0034809557172469,-0.0005849273875355,4.59146685898e-05,0.0008167396881617
1772650926050927000,1.805927001953125,0.0354857394009828,0.0009136442461982,0.0081147712640464,0.0024188519455492,-0.0004648794420063,0.001682533416897
1772650926060900000,1.815900146484375,0.0491056839525699,-0.0027499197626486,0.0067775587103795,0.0006555342115461,-0.0001859860494732,-0.00090598576935
1772650926070872000,1.8258720703125,0.0333937355577945,0.007110964516364,-0.0162987353067845,-0.0002760398201644,-0.0014294160064309,0.0016706224996596
1772650926080844300,1.83584423828125,0.0257610487222671,0.0095970457110553,0.0025591007651295,-0.0003476971760392,-0.0007674230728298,0.0006011087680235
1772650926090817000,1.845817138671875,0.0359340676903724,0.0052425037633627,0.0038721835245378,-0.0012158877216279,-0.0016755610704421,-0.0010263490257784
1772650926100789000,1.8557890625,0.0411684612125158,0.0117313543260097,-0.017018756677024,-4.14559617638e-05,-0.0012178509496152,-0.0019041278865188
1772650926110762200,1.86576220703125,0.0544838698595762,0.0076106211341917,0.0097881204369012,0.001533271279186,0.0006357091479003,0.0009103008196689
1772650926120734000,1.87573388671875,0.0303904620885848,0.0226066398119553,-0.0118138084450736,-0.0011738934554159,0.0007852301932871,0.0001992514007724
1772650926130706200,1.8857060546875,0.0260527251452207,0.0227176989709958,-0.0189650045071262,-2.6351772248e-06,0.0007585985586047,-9.1565772891e-05
1772650926140679200,1.89567919921875,0.0312912103205919,0.0109474739393219,-0.0162645133767742,-0.0009126509539783,-0.0012771859765052,-0.0029595666565001
1772650926150651000,1.90565087890625,0.0419224944502115,0.008272665239498,-0.011742378043523,0.0013017673045396,0.0006461488083004,0.0004996131174266
1772650926160623000,1.915623046875,0.0330938758283853,0.0028240809774026,-0.0165025873158127,-0.0007367329671978,-0.0003611599095165,0.000870164076332
1772650926170596000,1.92559619140625,0.0354880774885416,-0.0172473412685096,-0.0084813578204251,-0.0007929257117211,-0.0007502476219087,-8.24487069621e-05
1772650926180568000,1.935568115234375,0.0308528189033269,-0.0063785220559686,0.0139329103577416,-0.0002267942763864,-0.0017362679354846,0.0004590695607475
1772650926190541800,1.945541748046875,0.0235205763190984,-0.0020013298850506,0.0087960771922487,0.0002469820901751,-9.89562831819e-05,-2.34952312894e-05
1772650926200513500,1.955513427734375,0.0407341614484786,-0.0058233358586207,0.0017730284213554,0.0017611971125006,-0.0026791030541062,0.0002037389203906
1772650926210485800,1.96548583984375,0.0393961908429861,-0.0100448260111734,0.0091704269299749,-2.81808897852e-05,0.0016288263723254,-0.0005264998180791
1772650926220458800,1.975458740234375,0.0470329693317413,-0.0031069165067747,-0.0168679134968668,-0.0013897935859858,8.8426284492e-05,-0.0017105943989008
1772650926230430700,1.9854306640625,0.0376052157729864,0.0018159268481656,0.0019164098142646,-0.0008760695345699,0.0001464830711483,-0.000366497086361
1772650926240402700,1.995402587890625,0.0374573317348957,0.0073980012968182,-0.0132675600504968,0.0016236887313425,-0.0008212411776185,-0.0003454640391282
1772650926250375700,2.005375732421875,0.0449351202696561,0.0053790992224588,-0.0005442172787617,-0.0007491880096495,0.0017452472820878,-0.0011191123630851
1772650926260347600,2.01534765625,0.0187497086554765,0.0021627675244584,-0.0097485190788749,-0.0014242110773921,-0.0005680362228304,-0.0003392463549971
1772650926270320600,2.025320556640625,0.0319148951768875,0.0080408657776191,-0.0144693918546196,0.0001840717159211,0.0012562293559312,-0.0010322008747607
1772650926280292900,2.03529296875,0.0353524684101343,0.0179934103954583,0.0012628230100497,0.0004928833805024,0.0002562464214861,0.0004007496754638
1772650926290264600,2.0452646484375,0.035500352448225,0.0051384223343804,-0.0133550100050866,0.0017221984453499,0.0011350894346833,-0.0008535991655662
1772650926300237600,2.055237548828125,0.030414427486062,0.0030135391348972,-0.0040107882776297,-0.00128551479429,0.0009681177325546,-0.002330710645765
1772650926310209800,2.065209716796875,0.0253279180020093,-0.0018786533534526,-0.0013283716600853,0.0003896136768162,0.0020040869712829,-0.0003458568244241
1772650926320181500,2.075181396484375,0.0515180057913064,-0.0028729616204276,-0.0101385687092319,-0.0007376307621598,0.0010474817827343,-0.0002062161802314
1772650926330154800,2.08515478515625,0.024731705674529,-0.0044731268260627,0.0051426601180806,0.0006765075959265,0.0011172569356858,-0.0020387372933328
1772650926340126700,2.095126708984375,0.028028993654251,-0.0183635588821023,0.0074993062468245,0.0005343887023627,0.0024702348746359,-0.0014467386063188
1772650926350099700,2.105099609375,0.0358165787905454,-0.0137111664989963,-0.0024028964232653,0.0012039076536893,-0.0007455321028828,-0.0006629702402278
1772650926360071700,2.11507177734375,0.0377682973802089,-0.0080781655807048,-0.0100317473338916,0.000625804066658,-0.0005984457675367,-0.0005571028450503
1772650926370043600,2.125043701171875,0.041361937958002,-0.0006410378498956,0.004536794046266,0.0005344576202332,-0.0017025924753397,-0.0006583029753528
1772650926380017000,2.135016845703125,0.0341845936745405,-0.0155899294503033,0.0117842078912537,0.001644633244723,-0.0006501509342342,-0.0020254871342331
1772650926389988600,2.144988525390625,0.0437637384027242,0.0166857618629932,-0.0113265729174017,-0.0001681805588304,-0.0027713587041944,-0.0005389106809161
1772650926399960800,2.1549609375,0.0235632464170455,0.0001103650392964,-0.0143738042593467,-0.0005519082769751,0.0018060533329844,0.0007478813058696
1772650926409933600,2.16493359375,0.031940029618144,0.0074537866046652,-0.0015142222215421,-0.0015734967309981,-0.0001798658631742,-0.0011727905366569
1772650926419905500,2.174905517578125,0.0501934791892766,0.006374174674414,0.0015578330344054,-0.00025638891384,0.0006161006167531,-0.0002746743848547
1772650926429878800,2.184878662109375,0.0299865574628114,-0.0006972250165417,-0.013257413115818,-0.0010148570872843,0.0011916095390915,-0.0010408658999949
1772650926439850500,2.1948505859375,0.0130775082379579,-0.0053420551477,-0.0017232801286503,0.0028701946139335,-0.0026805081870406,0.0009952629916369
1772650926449822700,2.20482275390625,0.0440542457818984,0.0148440429864451,0.0082133180013857,-0.0009844647720456,-0.0012868759222328,-0.001131537486799
1772650926459795700,2.214795654296875,0.0410609091848135,-0.0051863896619528,-0.0001444591051433,0.0003161034546792,0.0009008259512484,-0.0002858471125364
1772650926469767700,2.224767578125,0.0374731138259172,-0.0024714681474491,0.0032533118406776,0.0008005322888493,0.0007602111436426,-0.0003372461069375
1772650926479739600,2.23473974609375,0.0235579857200384,0.0057033262081444,-0.0006776800658553,0.0005267434753477,0.0020092721097171,0.0015582230407744
1772650926489712600,2.244712646484375,0.0370247855365276,0.0046400808908045,-0.0121308750376105,0.0015171733684837,-0.0003484245389699,0.0003550068940967
1772650926499684600,2.2546845703125,0.0355325011521577,-0.0149143317436799,-0.0035383484602905,-0.0004238844849169,-0.0016776600386947,-0.0007671338971704
1772650926509657600,2.26465771484375,0.0370300462335348,0.0006271189223974,0.0080273761083837,-0.0013397457078099,0.0007604639977216,0.0007335573318414
1772650926519629800,2.2746298828125,0.0380734178066253,-0.0014745660645887,-0.0085670359430369,-7.93235376477e-05,0.0009350306354463,0.0028558420017361
1772650926529601500,2.2846015625,0.0383744465798139,-0.0066056453427299,-0.0184160562543198,0.0008029816672205,0.0009065349586308,-0.0003383534203749
1772650926539574500,2.294574462890625,0.0349269364744424,-0.0091640245886519,0.0045103170312941,0.0019252561032772,0.0010899864137172,-0.0002678550663404
1772650926549546800,2.304546630859375,0.019065934997797,-0.0033643253339454,0.0170448409663513,0.0014653280377388,0.0008026310242712,-0.0009525538189336
1772650926559518500,2.3145185546875,0.0482440986871719,0.0008916881427168,-0.0129465114025864,0.0010820948518812,0.0016489634290337,-0.0006580828921869
1772650926569491700,2.32449169921875,0.0470452442914247,-0.0065408364782109,-0.0242025946333538,0.0008842218667268,0.0014465632848441,-0.0003371720085851
1772650926579463700,2.334463623046875,0.0275911867588758,0.0005364449642598,0.0016964012548793,-0.0019324817694723,0.0004456937313079,-0.0004159990639891
1772650926589436700,2.344436767578125,0.0241460147410631,0.0031816622434183,-0.007272109894827,-0.0007452447898685,-0.0014856308698654,2.04929965548e-05
1772650926599408600,2.35440869140625,0.0353676659792661,-0.00412281555105,-0.0161245477836579,0.0010259058326482,0.0003694323822855,0.0007325180922634
1772650926609380600,2.364380615234375,0.0458487279832363,0.0197140601756051,-0.003364891589526,0.0004027262330055,-0.0023613730445504,0.0002347732079215
1772650926619353900,2.374353759765625,0.0265478151857852,0.011590411485359,0.0129003524396102,0.0008665146306157,-0.0003778799436986,-0.0005398432258516
1772650926629325600,2.38432568359375,0.0587222380816936,0.0032217750580981,-0.0022357779617421,0.0008784988895058,0.0019001881591975,0.0013390168314799
1772650926639297800,2.3942978515625,0.0407663101524114,-0.0038023879576474,-0.0131059306148439,-0.0010246620513498,0.0014963448047637,-0.0030169705860316
1772650926649270800,2.404270751953125,0.0259597861647605,0.0066312181754037,-0.0100011238667648,0.0007245023734867,-2.61841341853e-05,-0.0019213461782783
1772650926659242800,2.41424267578125,0.0310480492144823,0.0176490904698148,0.0135473999051842,-0.0023663770407438,0.0009772619232535,0.0005113134975545
1772650926669215700,2.4242158203125,0.0353916313767433,-0.0102777579842135,0.0082444529251661,0.0005750842392444,0.0023173647932708,-0.0015049658250063
1772650926679187700,2.434187744140625,0.0434767381548881,-0.0105727588754147,0.0088466657351702,0.0007645185105502,0.0013970136642456,-0.000856993952766
1772650926689159700,2.44415966796875,0.0276215818971395,-0.0033021102853119,-0.0076501768264453,-0.0008504223078489,-0.0005795846227556,-7.56224617362e-05
1772650926699132700,2.454132568359375,0.0358522346258163,-0.0027264292892068,-0.0023888130989857,0.0014798385091125,-0.0001030131243169,0.0015125193167477
1772650926709105000,2.46410498046875,0.0407896910279989,0.009561572538875,0.0166063582175411,0.0018785134889185,-0.0009293921757489,-0.0020611765794456
1772650926719076600,2.47407666015625,0.0387023633599281,0.017594766466692,0.012925039356295,-0.0010168435983359,0.0012893108651041,-0.0010277316905558
1772650926729049600,2.484049560546875,0.0412485407114028,0.004652392383106,-0.0030694705732166,1.11367553472e-05,0.0008474928326904,-0.0002106739557348
1772650926739021800,2.494021728515625,0.0276309342473745,0.0081117755893617,-0.0033791210442781,0.0011459770612418,-3.13092023134e-05,0.0031559197232127
1772650926748993500,2.50399365234375,0.0361556014865636,0.003866721898131,0.0057747109439224,0.0001696622930467,0.001589756924659,-0.0005211069947108
1772650926758966800,2.513966796875,0.0306178411036729,0.0093804072856903,-0.0012187646726146,0.0022145686671137,0.0008690892718732,-0.0003686408745124
1772650926768938800,2.523938720703125,0.0400455946624279,0.0084682243442162,0.0049406438731122,-0.0001167627051472,-0.0005429189186543,-0.0007838276796974
1772650926778911500,2.533911376953125,0.0274748669028282,0.0010036606172099,0.0216230812678579,0.0010324888862669,8.26525501906e-05,0.0004975638585165
1772650926788883700,2.5438837890625,0.0318114348024129,0.0038984687432646,0.0112106640533078,0.0003102398477494,0.0013311421498656,0.0004472301807254
1772650926798855700,2.553855712890625,0.0416875166505575,0.0008646905379369,0.0102438648477662,0.0005369163118302,0.0008042296394705,-0.000718752213288
1772650926808828700,2.56382861328125,0.0349579161345958,-0.0086523487394675,0.0068968651079572,0.0002692686393857,-0.0015502709429711,0.0007004463695921
1772650926818800600,2.573800537109375,0.0415460623532533,-0.0015168708363547,-0.0126899245593231,0.0020462647080421,-0.002652134746313,-0.0017445521662011
1772650926828772900,2.58377294921875,0.0340706119060516,-0.0018608254358172,0.0010997322696726,0.0024199062027037,0.0012259604409337,-0.0023719929158687
1772650926838745600,2.59374560546875,0.0405061979115009,0.0026739684496074,-0.0023705376567784,0.0025796969421207,0.0002882131375372,-0.0003136347513645
1772650926848717600,2.603717529296875,0.0373673153638839,0.0022134017331525,-0.0174172727416269,-0.0033556902781128,0.0018392382189631,-0.0020508146844804
1772650926858690800,2.61369091796875,0.0273369197368621,0.0244460936661809,0.0029321261954493,0.000984214246273,-0.0002432907931506,0.0009839788544923
1772650926868662500,2.62366259765625,0.0235971486866474,0.0110985728478059,-0.0064776898478157,-0.0009937155991792,0.0004267608746886,0.0003520106547512
1772650926878634800,2.633634765625,0.0216530288815498,0.0040026232374832,-0.0047212929008528,0.001031027175486,-0.0003023357130587,0.0004448837717063
1772650926888607700,2.643607666015625,0.0271790988266468,0.005500095253624,0.0007363879831507,-0.0001365025527775,0.002104362938553,0.0049078091979026
1772650926898579700,2.653579833984375,0.0400455946624279,0.0084065572848543,-0.0323567480597179,0.0003846557810902,0.0009790542535483,0.0005788018461316
1772650926908551700,2.6635517578125,0.0235842892050743,0.0101750282621011,-0.0104829069011844,-0.0007639657706022,0.0004440252669155,0.0003401826834306
1772650926918524700,2.673524658203125,0.0392962375998496,-0.0059913859019055,-0.0072382532909978,0.0017066211439669,2.69683077931e-05,-0.0005135580431669
1772650926928496600,2.68349658203125,0.0268757319658994,0.0079393416319042,-0.0102172051697038,-0.0010577403008937,0.0014866469427943,0.0016281560529023
1772650926938469600,2.6934697265625,0.0295674552679061,-0.0108884006958454,0.0078304926962591,-0.0010883877985179,4.06489707529e-05,-0.0017441103700548
1772650926948441900,2.70344189453125,0.0274754514247179,-0.0112025081463158,-0.0129723856293596,-0.0021094437688589,0.0004944517277181,-0.002600050298497
1772650926958413600,2.71341357421875,0.0256850608766078,-0.0153241181209683,-0.0107317122967913,-0.0008174548856914,-0.0011183542665094,-0.0012857636902481
1772650926968386600,2.723386474609375,0.0352624520391225,-0.0060821694578975,-0.0035647341437172,-4.9243681132e-06,-0.0003934418782591,0.0004122677491977
1772650926978358800,2.73335888671875,0.0427443322271108,0.0001265489891171,0.0115760724327526,-3.02358530461e-05,-0.0003075804561376,0.0004069045535288
1772650926988330500,2.74333056640625,0.028075755405426,0.0039852702438831,-0.0034280108204577,-0.0005812440067529,0.0016572996973991,0.0012865466997027
1772650926998303700,2.7533037109375,0.0339046076893806,0.0061373337112367,-0.0074956621181685,-0.0020330725237727,0.0013238741084933,0.0007348539656959
1772650927008275700,2.763275634765625,0.043933834272623,0.0075842080513015,-0.0061956854355055,-0.0006247931160032,0.0017025754787027,-0.0007266887696459
1772650927018248700,2.773248779296875,0.0318126038461923,0.0071385101104155,-0.0135717306288424,-0.0004919292405247,0.0016722455620765,0.0002913878997787
1772650927028220700,2.783220703125,0.0277741421103477,0.0078356255291029,-0.0062380906719714,-0.0026110063772648,-0.0009086239151656,-0.0011216853745281
1772650927038192600,2.793192626953125,0.0436363126307725,0.0085896222341805,-0.0227969199533574,0.0017960024997591,-6.3054729253e-05,-0.0017050763126462
1772650927048166000,2.803165771484375,0.0397463194549083,-0.005342749267444,0.0057994343932252,-0.0003739409148693,0.0008253757841885,-3.60732665285e-05
1772650927058137600,2.8131376953125,0.0336094241350889,-0.0110405955828726,0.0128452612515073,-0.0012413766235113,0.0001732362434267,-0.0012830551713705
1772650927068109800,2.82310986328125,0.0310655848711729,-0.0061348860258236,0.0056033820981625,0.000786620657891,2.4365261197e-05,0.0006828902987763
1772650927078082800,2.833082763671875,0.0307686477512121,-0.0119365580419078,0.0069790634986944,-0.0010150256566703,0.0023400699719786,-0.000618873804342
1772650927088054800,2.8430546875,0.0277747266322374,-0.0030947511449456,0.0088784308466129,0.0008569103665649,-0.0004815494176,0.0021904949098825
1772650927098027800,2.85302783203125,0.035854572713375,-0.0093418288409709,-0.0102310966977383,-0.001219977857545,-0.0003186641260981,0.0016821457538753
1772650927107999700,2.862999755859375,0.0418389078199863,0.0155725399240851,-0.0055082694269251,0.0006556864827871,-0.0009897807613015,-0.0009866079781204
1772650927117971700,2.8729716796875,0.029122049587965,0.0171647410189732,-0.0011253416349645,-0.0010102503001689,0.0004276679828763,0.0023506050929427
1772650927127944700,2.88294482421875,0.0265752877146005,0.0064939285965636,-0.0045409952973481,-0.0008062524721026,-0.0005491795018315,-0.0020039295777678
1772650927137917000,2.8929169921875,0.0276239199846982,0.0142383687108755,0.0005375866085756,-0.0034040177706629,0.0016626510769128,-0.0013272539945319
1772650927147888600,2.902888671875,0.0237315887212753,0.0073800637813284,-0.0063828511712141,-3.83146107196e-05,0.0011888747103512,-0.0022356582339853
1772650927157861600,2.912861572265625,0.0316670578956604,0.0061834013426676,-0.0019066921378485,-0.0007458929903805,0.0009275809861719,-0.0026246311608701
1772650927167833900,2.922833740234375,0.0500718986362218,-0.0014412848494946,-0.0158637140235397,-0.0010489607229828,-0.0006040029693394,0.0021610693074762
1772650927177806600,2.932806640625,0.0354091670334339,-0.0158148242473602,8.91578544862e-05,-0.0002393056638538,0.0015785763971507,-0.0012243097880855
1772650927187778300,2.9427783203125,0.0497761305600404,-0.0153237893274053,-0.0095803320382721,0.0026006889529526,0.0021210620179772,-0.0010938148479908
1772650927197750000,2.95275,0.0366115285605192,-0.025504882004112,0.0061597099398262,-0.0012698955833911,0.0011444124393165,-0.0011651783715933
1772650927207723300,2.96272314453125,0.026589316239953,-0.0238816281838342,0.0042268330479506,-0.0011798806954175,0.0034930547699332,-0.0012013972736895
1772650927217695200,2.9726953125,0.0406534974277019,-0.0018009850073605,0.0051858416726812,0.0003988477401435,0.0022283317521214,0.0008434713236056
1772650927227667200,2.982667236328125,0.0217979903101921,0.0030995003852993,-0.003056793754734,-0.0016856084112077,0.0014397697523236,-0.0023134397342801
1772650927237640200,2.99264013671875,0.0464922865837812,0.0125229430951178,-0.0058308798442594,-0.0008721030317246,0.000473097898066,0.0008884639246389
1772650927247612200,3.002612060546875,0.0240402162790298,0.003223820884712,-0.0083718878302723,-0.0009400136768817,0.0009279656223952,-9.9302502349e-05
1772650927257585400,3.01258544921875,0.0292728562355041,0.0166050613095983,-0.0033047589001245,0.000496354419738,-0.0010485395323485,0.0023562039714306
1772650927267557000,3.02255712890625,0.0493196189641952,0.0102511987708508,0.0019968729056417,0.0002611973322927,-0.0015441537834703,0.0028502203058451
1772650927277529300,3.032529296875,0.0424304439723491,0.0141097738951444,-0.001919158893777,0.0015323786064982,0.0013349186629056,-5.25205396115e-05
1772650927287502300,3.04250244140625,0.0436216995835304,0.0046015024460852,-0.0166532021671067,0.0001462032087147,-0.0020997603423893,0.0032167758326977
1772650927297474000,3.05247412109375,0.0262643220692872,-0.0030873715560883,-0.0091042115596588,0.0005101128481328,0.0005078529939055,-0.0012742809485644
1772650927307446300,3.0624462890625,0.0461696305006742,0.0156933898247778,0.0044519653070252,-0.0007282570004463,-0.0011350507847964,0.0005180264124646
1772650927317419300,3.072419189453125,0.0303074599802494,0.0155483187982812,0.0041369536742568,-0.0007000691257417,0.0004647709429264,0.0025228220038115
1772650927327391200,3.08239111328125,0.0259662159055471,0.0111507779590785,-0.0029728417983278,0.0012786597944796,-0.0009919782169163,0.0008522211574018
1772650927337364200,3.0923642578125,0.0403314258664846,-0.0029556349352002,0.0030862938438542,0.0028859740123152,0.0023054885677993,-0.0004448755062185
1772650927347336200,3.102336181640625,0.0223737443715333,0.0007927578128874,0.0210937418978195,0.0010470608249306,-0.0009345132857561,0.0014062877744436
1772650927357308200,3.11230810546875,0.0454185198724269,-0.0026547157598659,-0.0213773263458628,-0.0005879057571291,-0.0003710682503879,-0.0020647109486162
1772650927367281200,3.12228125,0.0306079042315483,0.0021844313669949,-0.0404791729072574,0.0008246349170804,-0.0005851862952113,-0.0014860059600323
1772650927377253400,3.13225341796875,0.0341974531561136,0.0067188964588567,-0.0224208805820439,-0.0007769311778247,0.0002281893976032,-0.0006537191220559
1772650927387225000,3.14222509765625,0.0461655388474464,0.0023494492029771,-0.0150087137625552,9.41888429224e-05,-0.0026789172552525,0.0023617781698703
1772650927397198000,3.152197998046875,0.0364367565155029,0.0066192354766651,-0.0046537349568214,-0.0014395860489457,0.0008055907674133,-0.0001635171938687
1772650927407170300,3.16217041015625,0.0193780696868896,-0.0072111734878271,-0.0055411579163745,-0.0005620745941996,-0.0001427610404789,0.0018247987609356
1772650927417143000,3.17214306640625,0.0183276838511228,0.0005084975114092,-0.0004697272704448,0.0002015740610659,-0.0015655809547752,0.0020417787600308
1772650927427115300,3.182115234375,0.0422656087994575,0.0059789282791316,-0.0066990592472255,0.0001062327064573,-0.0002734153531491,0.0027869313489645
1772650927437087200,3.192087158203125,0.0409188703656196,0.0190177484745159,-0.0035310876024421,0.0003787921741604,0.0013133650645613,0.001884912722744
1772650927447060200,3.202060302734375,0.0474964951902627,-0.0038017669031396,-0.0003221628927625,0.0021146405488252,0.0011253459379076,-0.0001651886850595
1772650927457032200,3.2120322265625,0.0440577529132366,0.0108209249502047,-0.0060577565358486,-0.0019236127845942,-0.0036855491343885,0.0014299941249191
1772650927467004400,3.22200439453125,0.0283463890403509,-0.0050058454632759,-0.0025039730444084,-0.0003275801427662,0.0006516748107969,-0.000979101518169
1772650927476977200,3.23197705078125,0.028799393504858,0.0050122752040624,-0.0021157865775749,-0.0006205942481756,2.5853514671e-06,-0.0021527137141674
1772650927486949000,3.24194921875,0.0489998854905366,0.0015075184861198,0.0055082694269251,0.0018968917429447,-0.0008586808107793,-0.0001585387508384
1772650927496922400,3.25192236328125,0.0289455239772796,-0.0099257662087678,-0.0061684138360898,0.0015996578149497,0.0009365798905491,0.0001387837110087
1772650927506894000,3.26189404296875,0.0307423442661762,0.0059230699060484,-0.0040253373927902,-0.0013950667344033,0.0012039612047374,0.0003723429399542
1772650927516866300,3.2718662109375,0.0337391879945993,0.0207634961633011,0.0006403071975335,-0.0001894701272249,0.00080221099779,-0.0021543959155678
1772650927526839300,3.28183935546875,0.0374795435667037,0.0132483347602188,0.0009603237989824,-0.0002901377156376,0.0022440459579229,0.000811832898762
1772650927536811000,3.29181103515625,0.0494447066485881,0.000808211110346,0.0029457893946208,0.0007256041280925,0.0012751892209053,0.0013536014594137
1772650927546783200,3.301783203125,0.0440583374351263,0.0093406597971916,0.0070211308084428,0.0007170820608735,-0.0006838319823145,0.0013043328654021
1772650927556756200,3.311756103515625,0.0334364056557416,0.0107428547453135,-0.000204162536282,-0.0012811354827135,0.0004875767044723,-0.0010475852759554
1772650927566728200,3.321728271484375,0.0416658893406391,0.0084441858815029,0.011609463245701,-0.0022806199267506,0.0028362185694277,0.0022328966297209
1772650927576701200,3.331701171875,0.0280471138328313,-0.0138175860155373,0.0036629612206481,0.0009137950837612,-8.60323198139e-05,-0.0022614698391407
1772650927586673200,3.341673095703125,0.0292436301410198,0.0028116598872467,0.0018645608960185,0.0023633539676666,0.0012583313509821,-0.0005658351583406
1772650927596645000,3.35164501953125,0.0337327582538127,0.0050764995466917,-0.0178370233905036,-0.0001709479838609,-0.0014696998987346,0.0004770741797983
1772650927606618000,3.3616181640625,0.0301408712416887,-0.0011090937530621,-0.014098540115077,0.0005773999728262,-0.0001186779700219,-2.62632383964e-05
1772650927616590300,3.37159033203125,0.0374736983478069,-0.0001959244308993,0.0130543830906972,0.0002244599163532,0.0001159249804913,-3.82672878913e-05
1772650927626562000,3.38156201171875,0.0380757558941841,-0.0018116890644654,-0.0064048712067771,0.0005022273398935,0.0012592198327183,-0.0017980840057134
1772650927636535000,3.39153515625,0.0362824427366256,0.0078390961278229,-0.0081992529434151,0.0028017312288284,-0.0013849039096385,0.0009712301543913
1772650927646507300,3.40150732421875,0.0428682508677244,0.0085462580164894,-0.0045777379780076,-0.0006092451512813,0.0006822417490184,-0.0005867190193384
1772650927656479200,3.411479248046875,0.0452601144403219,0.0154908529900014,-0.0147847048814874,-0.0013702947180718,-0.0026846614200621,-0.0007179209496825
1772650927666452200,3.4214521484375,0.0404693730324506,0.0048960649458691,0.0102736480646766,0.0008736848831176,0.0015550912357866,0.0007833028794266
1772650927676424200,3.431424072265625,0.0305938757061958,0.0153694551000371,-0.0108058552452363,-0.0001575076021254,0.0013957233168184,-0.0016995088662952
1772650927686397200,3.441397216796875,0.0210176535874605,0.0088994919009506,-0.0151640230552759,-4.03285957872e-05,-0.0005473187193274,-0.0016784698236733
1772650927696369200,3.451369140625,0.0466086064398288,-0.0032943653702735,-0.0131784204623196,0.0024301228113472,-0.0014327806420624,0.000532672391273
1772650927706341400,3.46134130859375,0.0349339507371187,0.0090520155815407,-0.0135138264291454,0.0006532617844641,0.0009712548926472,0.0005001818062737
1772650927716314000,3.471314208984375,0.0412169765293598,0.0008666998319327,0.0039757352305576,0.0008214111439883,-0.0007744703907519,9.48878005146e-05
1772650927726286000,3.4812861328125,0.0422656087994575,-0.0101028398087248,-0.0065318129215389,-0.0025655969511717,0.0008809505961835,0.0008325834060087
1772650927736259300,3.49125927734375,0.0329834011912345,-0.0004239975657314,-0.024724764477089,0.0006277645006775,-0.0001220358535647,0.0025953617878258
1772650927746231000,3.50123095703125,0.0380710797190666,-0.0055531771477311,-0.0149722450765315,-0.0007674656808376,0.0019214078783988,-0.0021269554272294
1772650927756203300,3.511203369140625,0.0307458513975143,-0.0120733361640945,-0.003157989106886,-0.0012290398590266,-0.0006679117213934,-0.0017276753205806
1772650927766176300,3.52117626953125,0.0389811803013086,-0.0022899010354653,-0.0004795819441787,0.000277776736766,-0.0003669746220111,0.0015855634119361
1772650927776148000,3.53114794921875,0.0305997209250926,0.0145501746064051,-0.0081758538015186,0.0010783574543893,-0.0016353009268641,-0.001319718779996
1772650927786120200,3.5411201171875,0.0407756625026464,0.0121634986655786,-0.0165147800771053,-0.0033211847767233,-0.0002816161140799,-0.0003812208597082
1772650927796093200,3.55109326171875,0.0271568869948387,0.0070951458927243,-0.0131610857350286,9.03299078345e-05,0.0026873382739722,9.77999879978e-05
1772650927806065200,3.561065185546875,0.0331406375795602,-0.00787482502833,-0.0065437408213503,-6.78617507219e-05,0.0012449705973267,0.0004496035980992
1772650927816037000,3.571037109375,0.0347889893084764,-0.0005812704866752,0.0033823359146714,0.0001010131090879,-0.0015197470784187,0.0001431566197425
1772650927826010000,3.581010009765625,0.0350847573846578,0.003606792320311,0.0018310970178339,-0.0002856776118278,-0.000530649209395,0.0016262710560113
1772650927835982000,3.590982177734375,0.0355295785427093,0.0101728728376328,0.0072449752927292,-0.001384531147778,-0.000548628391698,0.0009803600842133
1772650927845955000,3.600955078125,0.023411270725727,-0.0006783376529812,0.0009390526820905,-0.0005280585028231,-0.0016338664572685,0.0001372033148072
1772650927855927300,3.61092724609375,0.0328401933282613,-0.0038118499057367,-0.0071668868215288,-0.0004979926161468,-0.0010350726079195,0.0029184035956859
1772650927865899000,3.62089892578125,0.0298462722092866,-0.0121653983617201,0.0045100704361218,0.0014152219519019,0.002135953400284,0.0015953452093526
1772650927875872300,3.630872314453125,0.0356821387559175,0.008761325539276,-0.0130599451818037,0.000504364259541,0.0008585057221353,-0.0008461810648441
1772650927885844200,3.64084423828125,0.0337327582538127,0.010466120163165,-0.0078368859044276,0.0001206030137836,-1.66092067956e-05,-0.0009644253877922
1772650927895816200,3.650816162109375,0.0341805020213127,-0.0010400105722248,0.0086063998390454,0.0008232090622186,0.002402049023658,0.0002694413415156
1772650927905789200,3.6607890625,0.0228045370042324,0.0181971528066322,-0.0121185544121544,0.0001166723668575,0.0001958864741027,0.0005924826837144
1772650927915761200,3.67076123046875,0.0085930563002824,0.0005346183333545,-0.0144205660105217,-0.0018909822683781,0.0017333319410681,-0.002291434444487
1772650927925734400,3.680734375,0.0359755687445402,0.0042796866131946,-0.0044549975143279,-0.0015415756497532,5.12795522809e-05,0.0006641418440267
1772650927935706000,3.6907060546875,0.0298404269903898,0.0133693307913839,-0.0115676607974339,-0.0002220631577074,0.0022231731563806,-0.0031160791404545
1772650927945678300,3.70067822265625,0.0247539175063371,0.0101877050805836,-0.0097930158077273,-0.0010540345683693,0.0009842705912888,-8.30050557851e-05
1772650927955651300,3.7106513671875,0.0413642760455608,0.0057917351439595,-0.0097369017063174,-0.000463327858597,0.0008615278638899,0.0006164944497868
1772650927965623000,3.720623046875,0.0223620539337396,0.0013958748051896,0.0034209874246269,0.001132970675826,-0.0002279714681208,-0.0020629118662327
1772650927975595300,3.73059521484375,0.019662731847167,0.0037516806837171,0.0094047197430394,0.0012142532505095,-0.0003465986810624,0.0003757922095246
1772650927985568300,3.740568359375,0.0431570046812295,0.0035528336433693,0.0110518110966309,0.0029796627350151,-0.0002049184404313,0.0027318908832967
1772650927995540200,3.750540283203125,0.0325303967267274,-0.0034498116603121,0.0010730543253012,-8.61454755067e-05,0.0016500409692525,0.000917361176107
1772650928005513200,3.76051318359375,0.0453992306500673,0.010283128279075,-0.0114244529344607,-0.0008355588652193,3.98936681449e-05,-0.0021620518527925
1772650928015485200,3.770485107421875,0.0479483306109905,-0.0016764087796211,0.0064463448614813,-0.0016349386423826,-0.0007391511462628,-0.0020600787829607
1772650928025457200,3.78045703125,0.0358288537502288,0.0042672289904206,-0.0065869223759509,-0.0012879287824034,-9.49325039982e-05,-0.0008448784356005
1772650928035430100,3.79043017578125,0.0492985761761665,0.0011935206335037,-0.0085723879715893,0.0006050406955182,-0.0002845535054802,0.0016604564152657
1772650928045402400,3.80040234375,0.0287935482859611,0.0044965807668864,0.0004527487361803,-0.0004530330188572,-0.0007961464580148,0.0041140266694128
1772650928055374000,3.8103740234375,0.0292424610972404,0.0012411957001313,-0.0033624347709584,0.0005201366730034,-0.0014993790537118,-0.0008719772449694
1772650928065347000,3.82034716796875,0.0422615171462297,-0.0049343145970255,0.0088510496493428,-0.0001568389125168,-0.0005576852709054,0.0007384362397715
1772650928075319300,3.8303193359375,0.0448053564101457,-0.0058102206487208,-0.0100956063503399,-0.0020218605641275,-0.0009092721156775,0.0012743158731609
1772650928085292000,3.8402919921875,0.0367249258071184,0.0033686361828818,-0.0078823324813507,-0.0014237144496291,-0.0007140622474253,0.0003254316397942
1772650928095264300,3.85026416015625,0.0461556019753217,-0.001057400098443,-0.0044026006068103,0.000417863484472,-0.0005911607295274,-0.0017266731010749
1772650928105236200,3.860236328125,0.041518589824438,-0.0038232846152037,-0.0026182836064603,-0.0025390440132468,0.0018469635397195,-0.0002273134887218
1772650928115209200,3.870209228515625,0.0310433730393648,-0.0039274756420403,0.0086480926894582,0.0027072965167462,-0.0017953009810298,-0.0012819403782486
1772650928125181200,3.88018115234375,0.0392781174212694,-0.0068934493081644,2.99567468464e-05,0.0009232447482645,0.0011671995744109,0.0007125008851289
1772650928135153400,3.8901533203125,0.0302957695424556,0.0065345894005149,-0.0106465364976786,-0.0001623150892555,-0.0016607895959168,0.0014879219233989
1772650928145126100,3.900126220703125,0.0270008196502923,-0.0068169865384697,-0.0090878906125202,1.69156119227e-05,-6.4340420067e-06,0.0017592979129403
1772650928155098000,3.91009814453125,0.026100655940175,0.0033051424926146,0.0038063700130209,0.0005935286171734,-0.0008754157461225,0.0016425161156803
1772650928165071400,3.9200712890625,0.0213116680979728,-0.0013838555738329,-0.0072306545064318,0.0004425272345542,-0.001997405430302,0.0002416935749351
1772650928175043000,3.93004296875,0.0262520471096038,-0.0036551980393007,-0.0081634783771354,0.0008211424574255,0.0015391302295029,-0.0004149846790824
1772650928185015800,3.940015869140625,0.0346329219639301,0.0004609320426359,-0.0039096020586322,0.0018171644769608,-0.0004744860343635,-0.0010040758643299
1772650928194989000,3.949989013671875,0.0323889424294233,0.0134279656434431,0.0051578394209034,0.0019319676794111,0.0013275849632918,0.0014705519424751
1772650928204960800,3.959960693359375,0.0316354937136173,0.003691694124788,-0.0119587972731795,-0.0007008332759141,-0.0014266560319811,0.0015323372790589
1772650928214933000,3.96993310546875,0.0344867914915084,0.0063590136379003,-0.0039963122277054,0.0014805984683334,-0.0024957021232694,-0.0019308133050799
1772650928224906000,3.979906005859375,0.0398749142706394,0.0076906275678426,-0.008614044289384,0.0001727198250591,-0.0008019316010177,0.0019930880516767
1772650928234878000,3.9898779296875,0.0394195717185735,0.0087931454496458,-0.0068052595680579,-2.71704047918e-05,-0.001972357975319,0.0030225773807615
1772650928244851000,3.999850830078125,0.0299888955503702,0.005363901653327,-0.0080133475830312,0.0013976204209029,-0.0012876591645181,0.0017956590745598
1772650928254823000,4.009822998046875,0.0245984346836805,0.0011530424926429,0.005913900218904,0.0007909890264272,0.0011597909033298,0.0003548478707671
1772650928264795000,4.019794921875,0.0274362884581089,-0.0011212591148912,0.0053976121266838,-0.0009872037917375,-0.0005571488291025,0.0012233047746121
1772650928274768000,4.029767822265625,0.0259416659861803,-0.0091050244104117,-0.0064324350671377,2.88519077003e-05,-0.0009480221197009,-0.0020212440285831
1772650928284740000,4.039739990234375,0.0439022700905799,-0.0071005892528221,-0.00739931647107,0.0007934453897178,-0.000558934174478,0.0024808298330754
1772650928294711800,4.0497119140625,0.0231038122117519,-0.0025893954386934,0.0016909213621634,-0.0004087286069989,-0.0006746051367372,-0.0004355137643869
1772650928304684800,4.059684814453125,0.0271451965570449,0.003826170692034,-0.006343998731859,-0.0010801116004586,0.0004103668034076,0.0023802465293556
1772650928314657000,4.069656982421875,0.0353694195449352,0.0163930990593507,0.0007701258559711,-0.0002297456376254,0.0005348967388272,-0.0010329133365303
1772650928324630000,4.079630126953125,0.0400111078709363,0.0083885101715102,-0.0026259006573352,-0.0002092393115162,0.0008467528969049,0.0005825602565892
1772650928334602000,4.08960205078125,0.0422521647959947,0.0148505457924678,0.0057112629194278,-0.0015922032762318,-0.0002676574513316,0.001044058939442
1772650928344574000,4.099573974609375,0.0501794506639242,0.0057944750903174,-0.007678991928976,0.0005569676868617,-0.0013036271557211,0.0016304869204759
1772650928354547000,4.109546875,0.0370043272703886,0.0060250689757987,-0.018560652356781,-0.0008955728262662,0.0011933697387576,0.0028109361883252
1772650928364519000,4.119518798828125,0.0295177709072828,0.0100750019537284,-0.0091301771179772,8.8368542492e-06,0.0003267773427069,0.0001837279414758
1772650928374491000,4.129490966796875,0.0368552741885185,0.0036738296745344,-0.0145699387528002,0.000468869227916,-0.002840316388756,-0.0013032995630055
1772650928384464100,4.139464111328125,0.02952303160429,-0.003365932769142,-0.0109704346898011,-0.0007623103447258,0.0008921041153371,-0.0031254342757165
1772650928394435800,4.149435791015625,0.027432196804881,0.0029186639256775,-0.0058081656889524,0.0006505488418042,0.0011541633866727,-0.0028077960014343
1772650928404408800,4.159408935546875,0.0383563264012336,-0.0110635015344247,-0.0001941708652302,0.0011733272112905,0.001277201808989,-0.0022583859972655
1772650928414381000,4.169381103515625,0.0362625689923763,0.0076118267105892,-0.0063077401083894,0.0019723693840205,0.0004386161454021,-0.0002030784380622
1772650928424352800,4.179352783203125,0.0428477926015853,-0.0026756854826584,-0.018141988553293,0.0001518321223556,-0.0015470369253307,-0.0012499671429395
1772650928434326000,4.189325927734375,0.0310270064264535,-0.0141274556823074,-0.0107465810723602,0.0006870473735034,-0.001884973142296,0.0011373499874025
1772650928444298000,4.199298095703125,0.0370136796206235,0.0059512000219896,-0.0065674870231188,-0.0012506686616688,-0.0006407443434,0.0004443955258466
1772650928454270000,4.20927001953125,0.0515273581415414,0.0142400126786902,-0.0045906157258898,0.0015756031498312,0.0016669384203851,-0.0002340293431188
1772650928464243000,4.219242919921875,0.0162128836542367,0.0026798136685043,-0.0025537487365771,-0.0008404166437685,0.0011281808838248,0.0009308373555541
1772650928474215000,4.22921484375,0.0311766440302133,-0.0030129180803894,0.005058406767575,0.0006704255938529,0.0004972382448613,-0.0014657357241958
1772650928484188000,4.23918798828125,0.046740708386898,0.0157325893240049,-0.0160228227085433,0.0011916062794625,0.0010144240222871,-9.28761437535e-05
1772650928494160000,4.249159912109375,0.0343202027529478,-0.0038395781628787,-0.0252674108532723,0.0017172703519463,-0.0011981741990894,-0.0015424590092152
1772650928504132000,4.259132080078125,0.0364192208588123,0.009117262837477,0.0081016743204556,6.77085481584e-05,-0.0013779373839497,-0.0009943804470822
1772650928514104800,4.269104736328125,0.0364180518150329,0.0174682174775749,-0.0051703975083772,0.0001079295761883,-0.002835520543158,-0.0005055347573943
1772650928524077000,4.2790771484375,0.0248953718036413,0.0018127850430086,-0.0073345624054782,0.000502876471728,-0.0012024701572954,0.0005448159063234
1772650928534049000,4.289049072265625,0.0473462730646133,-0.0192498767299577,-0.0011066460676491,0.0011846078559756,-0.0025477237068116,0.0003130367258563
1772650928544021800,4.299021728515625,0.0284936885565519,-0.0089758450727909,-0.0061982975177001,-0.0018138452433049,0.0010709795169532,0.0007023907965049
1772650928553994000,4.308993896484375,0.0195142632871866,-0.0016475114786997,-0.0061016596096567,0.00079414434731,0.0007850746624171,-0.0004293931415304
1772650928563967000,4.318967041015625,0.0477934323102235,0.0023265067188069,0.008269907026831,-0.0003267801366746,-0.0001483634114265,0.000654247123748
1772650928573939000,4.32893896484375,0.0289390942364931,0.0106299324227496,-0.0032514304108452,-0.000315808225423,-0.0003651385195553,-0.0012018148554489
1772650928583911000,4.338910888671875,0.0159206227093935,0.0106274116721004,-0.002048931886442,8.0204103142e-05,0.0020695235580205,0.0006900947773829
1772650928593884000,4.3488837890625,0.0374690221726894,0.0059328971803188,-0.0046802119717933,-0.0013668353203684,0.0006758547388017,-0.0007346452330239
1772650928603856000,4.35885595703125,0.04405132317245,0.006907879692316,0.0163329298373311,-0.0019766991026699,-0.0016741184517741,-0.0005903019336983
1772650928613827800,4.368827880859375,0.0283382057338953,0.0318170608256012,-0.0220694459290243,0.0013645850121974,0.0004810793325304,0.0001029387349262
1772650928623801000,4.378801025390625,0.0311848273366689,0.0026722879491746,-0.0136936125759966,-0.0023630415089428,-0.0018225549720227,-0.0027921837754547
1772650928633772800,4.388772705078125,0.027449147939682,-0.0034245676212012,0.0116962373468559,-0.0004817130975425,0.0012581311166286,0.0004019495681859
1772650928643745800,4.398745849609375,0.0252063374489545,0.0050368981886655,-0.0086629614650271,0.0004951343871653,-0.0001373654231429,-0.0016657286323606
1772650928653718000,4.408718017578125,0.026852351090312,0.0113129462508484,0.0201988936836365,0.0004533356986939,-3.89693304896e-05,0.0006773900822736
1772650928663689700,4.418689697265625,0.0308902283042669,-0.0037443376274779,0.0041307157297153,-0.000995956826955,0.0010854168795049,2.73124896921e-05
1772650928673663000,4.4286630859375,0.02251052249372,0.0049020562952384,0.0024089151720982,-7.64676369726e-05,0.0002571055665612,-0.0002026827423833
1772650928683635000,4.438635009765625,0.0504927543967962,0.0066503977999091,-0.0026157902552746,-0.0010690279304981,-0.0015344028361141,0.0007912089931778
1772650928693607000,4.44860693359375,0.0373310750067234,-0.0032214827971532,-0.0033792671747505,-8.41198489069e-05,0.0029985266737639,-0.0018922248855233
1772650928703580000,4.458579833984375,0.0398731607049703,-0.005137582084164,-0.01318082248196,-0.001212234608829,0.0013194037601351,0.0004185999860055
1772650928713552000,4.4685517578125,0.0343330622345209,0.0062873366411775,-0.0055358789530582,-0.0001208269968628,0.0010565407574176,-0.0002087251050397
1772650928723525000,4.478525146484375,0.0247603472471237,-0.002815568877384,-0.0028072211741469,-0.0003661043010652,-0.0006572036072611,-0.00369906402193
1772650928733496800,4.488496826171875,0.037037060496211,0.0069790452323853,-0.0117150425120256,-0.0012733300682157,-0.0004561031237244,0.0004159776144661
1772650928743469000,4.498468994140625,0.0409247155845165,0.0165133644381538,-0.00406670144964,-0.0006498838774859,-0.000118148047477,0.0010628595482558
1772650928753442000,4.508442138671875,0.0451128149241209,0.0249512301767244,0.0176652287538629,0.0038817101158201,-0.0016461277846246,0.0012813052162528
1772650928763414000,4.5184140625,0.0346364290952682,0.0059518941417336,0.0054172940746881,-0.001194009091705,0.0007448582910001,0.0016898342873901
1772650928773386000,4.528385986328125,0.0320931743532419,0.014479082131572,0.0042648543702438,0.0007865466177463,0.0010781297460198,-0.0020009351428598
1772650928783359000,4.53835888671875,0.0359802449196577,0.0012607771834358,-0.0274815432387869,0.0011103870347142,2.99094244837e-05,0.0022023320198059
1772650928793331000,4.5483310546875,0.0353729266762733,0.0003216331698,0.0039018297441303,0.001996774226427,0.0005190428346395,0.0025337575934827
1772650928803304000,4.558303955078125,0.0340215120673179,0.0031308088390156,0.0026489801388233,0.0018273973837494,0.0008367579430341,-0.0003440542495809
1772650928813276200,4.568276123046875,0.0168137721568346,-0.0033665172910317,-0.0005484002635348,0.0019144439138472,-0.0025322155561298,-1.98449124582e-05
1772650928823248000,4.578247802734375,0.0359668009161949,0.0060048664379864,0.0051392443182878,0.002859866246581,-0.0013207434676587,0.0002107848413288
1772650928833220900,4.588220947265625,0.0332727395266294,0.007181655132398,-0.0031722276947926,-0.0025520478375256,0.0004111086018383,0.000814609171357
1772650928843193000,4.598193115234375,0.0438952558279037,0.0113905049990862,-0.0071422364374622,-1.19246542453e-05,-0.0017902601975947,0.0008265934302471
1772650928853164800,4.608164794921875,0.0468909305125474,0.0079560735709965,-0.0032051892494782,-0.0011556216049939,0.0006887814961373,-0.0011426453711465
1772650928863138000,4.618137939453125,0.0362678296893835,-0.0049608007451519,-0.014436101506371,-0.0007321792654693,-0.0016702464781701,0.0003239574725739
1772650928873109800,4.62810986328125,0.0476432101845741,0.0079972823642194,-0.0100288155912887,0.0005884394049644,-8.7356660515e-05,-0.0007079556235112
1772650928883082800,4.638082763671875,0.0247515794187784,0.0153880502026528,-0.0059812937661539,0.002596462611109,0.0002410113811492,-0.0003465646586846
1772650928893055000,4.648054931640625,0.026842998740077,0.0012717735014855,0.0028046912903431,0.0004824106581509,-0.0009209760464727,0.0007966742268763
1772650928903027000,4.65802685546875,0.0373158774375915,0.0103173228096216,0.0092649916119407,-0.0008366531692445,-0.0015319052617996,-0.0002771122963167
1772650928913000000,4.668,0.0214577985703945,-0.0152156893104314,0.0018355996630154,-0.000349638517946,0.0012107389047741,-0.001239993609488
1772650928922972000,4.677971923828125,0.0281985050022602,-0.0044954847883433,0.0055971167541574,-0.0014535188674926,-0.0004476113244891,-0.0043273963965475
1772650928932944000,4.68794384765625,0.0542366171002388,0.0069612903799861,0.0055280975054018,-0.0015892176888883,0.0020092586055397,-0.001229127170518
1772650928942916900,4.697916748046875,0.0166781630784273,-0.0082198025410994,-0.0060719768574461,0.0025306926108896,0.0016947393305599,-0.0007660035043954
1772650928952889000,4.70788916015625,0.0241606277883052,-0.0094518285540863,-0.0022243158528115,-8.6632091552e-05,0.0012751165777444,0.0013702475698664
1772650928962862000,4.717862060546875,0.0295469970017671,-0.0188465200934559,0.0040792686702683,0.0016657281666994,-0.0008620698936283,0.0011609230423346
1772650928972833800,4.727833740234375,0.034181671065092,0.0074582070514559,0.0046428847692441,5.4356642067e-06,0.0004188609309494,0.0012160316109657
1772650928982806000,4.737805908203125,0.0112871176898479,-0.001491298003681,-0.0008362955605145,-0.0014182901941239,5.0058588385e-06,0.0011169619392603
1772650928992779000,4.747779052734375,0.0335860432595014,0.0105184348722919,0.0043829095256514,0.0012266021221876,0.0010570008307695,-0.003161581698805
1772650929002751000,4.7577509765625,0.0280529590517282,0.0069855480384081,-0.0085966730294749,-0.0006045876070857,-0.0002854987978935,-0.0010744624305516
1772650929012723000,4.767722900390625,0.0231119955182075,0.0058519043659791,0.0021298607687,-0.0019579194486141,-0.0002775336615741,0.0008109948248602
1772650929022696000,4.777696044921875,0.0395727164536714,0.0052636926818639,0.0036712084591854,-0.0003525661304593,-0.0005494426004588,-0.0014769269619137
1772650929032668000,4.78766796875,0.0232674783408641,-0.011034165842086,0.0080898103527259,-0.0020104269497096,0.0005581504665315,-0.0014270158717408
1772650929042641000,4.797640869140625,0.0373328285723924,-0.0027394349012523,-0.0004888886286411,-0.0016740695573389,-0.0003297473303973,-0.0001883796649053
1772650929052613000,4.807613037109375,0.0247673615097999,0.0101861707106232,0.0003250033038202,0.0015908400528132,-0.0016236209776252,-0.0005652722320519
1772650929062584800,4.817584716796875,0.0398813440114259,-0.005411028730683,-0.0031457050140481,-0.0009820396080613,0.0003567053936421,0.0004169016028754
1772650929072557800,4.827557861328125,0.0349397959560155,0.0069497095400467,-0.0088972542780917,0.0017078081145882,-0.0017721455078572,0.0026788015384227
1772650929082530000,4.837530029296875,0.0302963540643453,0.007683174913749,0.0009563874093815,-0.0006490894593298,-0.0001364322379231,0.0005389515426941
1772650929092501800,4.847501708984375,0.0280535435736179,0.0044939504183828,-0.0018474362312816,-0.0010007093660533,-0.0013417755253612,-0.000647040316835
1772650929102475000,4.85747509765625,0.0243166951328516,-0.0122276134103536,-0.005552272965433,-0.0023496006615459,-0.0006959589663892,-0.0011623619357123
1772650929112447000,4.867447021484375,0.0422720385402441,-0.0023588380858302,0.0154209843578748,-0.002193035557866,1.21393240988e-05,0.000445058569312
1772650929122419700,4.877419677734375,0.0430208110809326,0.0144459835795685,-0.0164501538756769,0.00055747712031,-0.0028851134702563,-0.0015232837758958
1772650929132392000,4.887391845703125,0.0364420172125101,-0.0113872170634567,-0.001338116735965,0.001597651746124,-0.0014083429705351,-7.05496058799e-05
1772650929142364000,4.897364013671875,0.0403320103883743,-0.0005567205673083,-0.001851071226783,0.0002213302068412,-0.0007364272605627,0.0003164077643305
1772650929152337000,4.9073369140625,0.047512861803174,-0.0120220078356564,-0.0031903113407548,0.0005026245489716,-0.0002742707729339,0.001833364716731
1772650929162308900,4.917308837890625,0.0406260248988866,0.0064854895617812,0.0023487094174604,-0.0001479857601225,0.0017257630825042,0.0005374704487621
1772650929172281000,4.927281005859375,0.0178793555617332,0.008155870459415,-0.0008836600998882,0.0015836777165532,0.0011305073276162,-4.87863435409e-05
1772650929182253800,4.93725390625,0.0256564193040132,0.0080206267071887,-0.0118801790790166,-0.0007516480982303,-0.0016575558111071,0.0029576562810689
1772650929192224800,4.947224853515625,0.0588718756854534,0.0078500924458727,-0.0233951050422154,-0.0005450453609228,-0.0002209958620369,0.0026508509181439
1772650929202197800,4.95719775390625,0.0467494762152433,-0.00692727851253,0.0039441893148235,0.0007295436225831,-0.0008074240759015,0.0003323027631267
1772650929212170000,4.967169921875,0.0329793095380067,0.0145167107282206,0.0134103295220527,0.000181526876986,0.0013688537292182,-0.0002044883440248
1772650929222141700,4.9771416015625,0.0388186832159757,0.0132431471284478,0.0009041731649544,0.0005703484639525,-0.0005816451739519,-0.0002194020198658
1772650929232114700,4.98711474609375,0.033877719682455,0.0061248395558446,-0.0160640406349208,-0.0006774449720978,9.06134955585e-05,0.000579752784688
1772650929242087000,4.9970869140625,0.0422568409711122,0.0187265835082158,-0.0043544049503747,-0.001238573109731,-0.0012281839735805,0.0017656583804637
1772650929252058600,5.00705859375,0.0245978501617908,0.0051787178121507,-0.0113887240339536,-0.0012789575848728,-0.0002288236282765,-0.0003925728087779
1772650929262032000,5.017031982421875,0.0283434664309024,0.0125005851328372,0.0030970618330407,0.0011549051851034,0.0009160689078271,-0.0002791221486404
1772650929272003800,5.02700390625,0.0500374118447303,0.0007859627459198,-0.0031628753445576,0.001603867392987,0.0008185151964426,0.0010650579351931
1772650929281976600,5.0369765625,0.036117607563734,0.0213550688482821,-0.0089464363152161,-0.0008358545601367,0.0006043971516191,-0.0002287057577632
1772650929291948800,5.04694873046875,0.0465939933925867,0.0108310079528018,0.000623657456832,5.793152377e-05,-0.0005709251854568,-0.0001953735481947
1772650929301920800,5.056920654296875,0.0142711019366979,-0.0071301076082512,-0.0025836415513418,-0.0020110781770199,0.0021945009939372,0.0009034466929733
1772650929311893800,5.066893798828125,0.0277419934064149,0.0049276656605303,0.0011047646378166,-0.0016937067266553,0.000850245822221,-0.0008381594670936
1772650929321865700,5.07686572265625,0.0370189403176307,0.0121523927496746,-0.0048356582618318,0.0018176711164414,-0.0004946505650877,0.0006955549470148
1772650929331838000,5.086837890625,0.042104280757904,0.0035323753772303,0.0002289773171301,-0.0004842840135097,6.2515027821e-05,0.0011398487258702
1772650929341810700,5.096810791015625,0.0352151057660579,-0.0045868528662249,0.0138306190270464,0.0038305693306028,0.0022303280420601,0.0010365180205553
1772650929351783000,5.106782958984375,0.0253372703522443,0.0036937034187838,-0.0039848044530022,0.0006857137195765,-0.0004050303250551,-0.0004370030655991
1772650929361756000,5.116755859375,0.0406049821108579,-0.0034593832062557,0.004167723271856,-0.0006061857566237,0.0017944741994142,-0.0022495505400002
1772650929371727600,5.1267275390625,0.0465893172174692,-0.0030288828345015,0.0046211387283168,-0.0007681832648813,-0.0002768402919173,0.0017736539011821
1772650929381699800,5.136699951171875,0.0151671739935874,-0.0136941422989591,0.0007669109855778,0.00132612651214,0.0006086607463657,0.0002487279707565
1772650929391672800,5.1466728515625,0.0313286197215318,-0.0163351583270356,0.0031511849067639,0.0016911122947931,-0.0011145500466227,1.69300474226e-05
1772650929401644800,5.156644775390625,0.0506307015627622,-0.0062921589467674,0.0032445166128687,2.05114483833e-05,0.0012902845628559,-0.0033540993463248
1772650929411616800,5.16661669921875,0.0533271010398864,0.0012863134834915,-0.0059675392354372,0.0002408446744084,-0.000527961179614,0.0001037273905239
1772650929421589800,5.17658984375,0.0238473240554332,0.0237500742260366,-0.0037506303709466,-0.0005977847613394,-0.0018060118891298,0.0018848495092242
1772650929431561700,5.186561767578125,0.0281833074331283,0.0177283297184854,-0.0029941951136104,-0.0012443845625966,0.0021637920290231,-0.0004446863022167
1772650929441534700,5.19653466796875,0.050028644016385,0.0041948578739538,0.0060250598426442,-0.00162921147421,0.0024135964922606,-0.0001168511807918
1772650929451507000,5.2065068359375,0.0329699571877717,0.0114891796005889,-0.0024261494346894,0.0018796599470078,-0.0019018829334527,0.0002245548530481
1772650929461478700,5.216478759765625,0.0371568874835968,0.010100136394985,0.0044783509904518,-0.0008847010321915,-0.0006965361535549,0.0002213590196333
1772650929471451600,5.22645166015625,0.0377530998110771,0.0088504651274532,0.0051378834782633,-0.0009544244967401,-0.0016559180803596,0.0014270772226154
1772650929481424000,5.236423828125,0.0455371778160333,-0.0138419898044317,-0.0013316778620239,-0.0022910651750862,0.0024520079605281,-0.0019215814536437
1772650929491395600,5.2463955078125,0.0217500595152378,-0.0149802000541239,-0.0176312808184884,-0.0004818178713321,0.0007935655303299,-0.0004605730064213
1772650929501368800,5.256368896484375,0.0299801277220249,-0.0037552974129095,0.0003152034290134,-0.0023303180932998,0.0013922438956797,0.0007338547729887
1772650929511340800,5.2663408203125,0.0359650473505258,-0.0065418593915179,-0.0087487309191841,-0.001849042950198,-0.0011103758588433,0.001992222154513
1772650929521313800,5.276313720703125,0.0341693961054086,-0.0017404139265418,-0.0046470038219355,0.0002774912863969,-0.0007726869080215,0.0021837034728378
1772650929531285800,5.28628564453125,0.0358177478343248,0.0100199838308617,0.0119573359684553,0.0002878652885556,-0.0006624029483646,-0.002361784921959
1772650929541258000,5.296258056640625,0.0355243178457021,0.0083148604134097,0.0054641562905628,0.0019315686076879,0.0004239003174006,-0.003971132915467
1772650929551231000,5.30623095703125,0.0382207173228263,-0.0045706323837861,0.0002060439661145,-0.0005219676531851,0.0021838736720383,-0.0013395909918472
1772650929561202000,5.316201904296875,0.0382224708884954,-0.0072182242831215,0.0023494035372044,-0.0001488588750362,0.0004600095562636,-0.0006956385914236
1772650929571175000,5.3261748046875,0.0530348400950431,-0.002957644229196,0.0024057825000956,0.0013937777839601,0.002042175270617,0.0008164510945789
1772650929581146600,5.336146728515625,0.0421095414549112,0.0027324571711942,-0.0068543594067916,0.0003114691935479,-0.0005797068588435,0.0004223032738082
1772650929591120000,5.346119873046875,0.0439104533970355,-0.005744790729694,0.0039254298154264,0.000843221321702,-0.0023465221747756,-5.08895609527e-05
1772650929601091800,5.356091796875,0.0276011236310005,-0.0069324296116828,-0.0107705464698374,-0.000490756239742,0.0011187829077243,-5.8821751736e-06
1772650929611063800,5.366063720703125,0.0472065723329782,-0.0003825330441817,-0.0235365228069014,-6.7269429564e-06,-0.0015253741294145,-8.24338640086e-05
1772650929621036800,5.376036865234375,0.031197686818242,-0.0006141863755881,0.0017608173937536,-0.0011138031259179,-0.0005615763366222,0.0015141312032938
1772650929631008800,5.3860087890625,0.0335901349127292,0.0147998750511556,-0.011388888430735,-0.0014361394569277,0.0004039430059492,-0.0012533869594335
1772650929640980700,5.395980712890625,0.0371785147935152,0.0205360806155949,0.0037757191464304,-0.000469412188977,0.0021709501743316,-0.0007210210314951
1772650929650953700,5.40595361328125,0.0305921221405267,0.0105160967847332,-0.0086316164786927,-0.0011520870029926,0.0001976676285266,-0.0009248682763427
1772650929660926000,5.415926025390625,0.0418120198130607,0.0056944487819448,0.0036950916582718,0.0016849786043167,-0.0022106289397925,0.0014472092734649
1772650929670899000,5.42589892578125,0.0352256271600723,-0.002901164801605,0.0023541710438672,-0.002210120903328,9.41273756325e-05,-0.0004953214083798
1772650929680870700,5.43587060546875,0.040461189725995,-0.0061456266155466,-0.0037902956610545,-0.002308924216777,0.0012153182178735,0.0005848566652275
1772650929690843000,5.4458427734375,0.0531821396112442,-0.0202373168647289,-0.0017902261513285,-0.0001925025135278,-0.001204936299473,0.0001054726890288
1772650929700816000,5.45581591796875,0.0386684610903263,-0.0102316538201645,-0.0033869755571708,0.000909246969968,-0.0018108054064214,0.0003739192616194
1772650929710787800,5.465787841796875,0.0253518833994865,-0.0008301306812092,0.0042619591602589,0.0002463730052113,-0.0009841911960393,0.0004076666664332
1772650929720759800,5.475759765625,0.0362771820396184,-0.0094081720754504,0.0018989837554283,-0.0004660221748054,0.0004994557239115,-0.0018738635117188
1772650929730732800,5.48573291015625,0.0525929415464401,-0.0095742493573576,-0.0057709754837211,-0.0003244653344154,-0.0006601659115403,-0.0020917071960866
1772650929740704800,5.495704833984375,0.0314957929819822,-0.0141715140197426,-0.0085463767474982,-0.000624337233603,0.0013196277432143,0.0010191311594098
1772650929750677800,5.505677734375,0.0415209279119968,0.0095555446568876,-0.0005050543121527,0.0002294084988534,-0.0008833378087729,0.0007976416964083
1772650929760650000,5.51564990234375,0.0458586648553609,0.0029378435501828,0.0182048794553615,-0.0002702004276216,-0.0014146382454782,0.0020850137807428
1772650929770621700,5.52562158203125,0.025807810473442,0.0014081862974911,0.0053059791873209,0.0003709038719534,0.0009555416181683,-0.0007921965443529
1772650929780595000,5.535594970703125,0.0397217695355415,0.0275204596102237,-0.0043995318668894,-0.0006706584244966,-0.0012255874462425,0.0028872268740087
1772650929790567000,5.54556689453125,0.0320844065248966,0.0273803935524076,0.0080951532481238,0.0006148982793092,-0.0004591443575918,0.0015924642793834
1772650929800539000,5.555538818359375,0.0317810396641492,0.0086432886501774,-0.02425135654537,0.0019366252236068,0.0008074552752077,0.002858797321096
1772650929810512000,5.565511962890625,0.0368657955825328,0.0250044947339221,0.0010992938782554,0.00181479845196,0.0012753433547914,0.000844536058139
1772650929820483800,5.57548388671875,0.0413531701296567,0.0099083401499316,0.0058191437406931,0.0015993486158549,-0.0007028526160866,-0.0021560473833233
1772650929830456800,5.585456787109375,0.0316296484947204,0.013071663019061,-0.003558971123211,-0.0002058902755379,0.0012425309978425,0.0010056658647954
1772650929840428800,5.5954287109375,0.0241448456972837,0.0011599471574649,-0.0015310728916432,0.0015467358753085,0.0003359913825988,0.0023726664949208
1772650929850401000,5.605401123046875,0.0376098919481039,-0.0055046983635053,-0.0094689166862051,0.000361397396773,0.0014429963193833,-0.0007004563231021
1772650929860373800,5.615373779296875,0.0319242475271224,0.0062821124767884,-0.007850028513791,0.0019875233992934,-0.0010723595041781,0.0007264653686434
1772650929870345700,5.625345703125,0.0290852247089147,0.0132436585851013,-0.0046059137597214,0.000638292171061,0.0006106351502239,0.000721053162124
1772650929880318000,5.63531787109375,0.0419517205446958,-0.0003108195148408,-0.008067324526282,0.0002257684245705,-0.0007225431036204,4.27460181526e-05
1772650929890290700,5.645290771484375,0.0359714770913124,-0.0091481328997761,-0.007898909156816,0.0006933799013495,-0.0012428804766386,0.000276893202681
1772650929900263000,5.655262939453125,0.0326776962429285,-0.0099959819007664,0.0049803548289928,0.0016739559359848,0.0013113575987517,-0.0001348314690403
1772650929910237000,5.66523681640625,0.039267596027255,-0.0044643955303356,-0.0102312245619017,-0.0010451935231685,-1.79097987711e-05,-0.0034471622202545
1772650929920210000,5.6752099609375,0.0449608392328023,0.0065471931537613,0.0009979797950945,-0.001114435493946,0.0026404578238725,-0.0003965111682191
1772650929930181600,5.685181640625,0.0425689756602048,0.0049746100747957,-0.0054554980600718,0.0020094071514904,-0.0010973433963954,-0.0025548369158059
1772650929940153900,5.69515380859375,0.0449655154079198,-0.0123197486732155,-0.0014445453856606,-0.0029685732442885,0.0034750383347272,-0.0013921007048338
1772650929950126800,5.705126953125,0.0395773926287889,0.0050371539169922,-0.0042175902955699,0.0015997821465134,1.00177712738e-05,0.0025195116177201
1772650929960098800,5.715098876953125,0.0334422508746385,-0.0075075260858982,0.0009589629589579,0.0009568952955305,-0.00074711907655,-0.0004983824910596
1772650929970070800,5.72507080078125,0.0355377618491649,0.0047676527932286,-0.0009404409215785,0.0008970592170953,-0.0004984033294022,-0.0007777999271638
1772650929980043800,5.735043701171875,0.0492997452199459,0.0070855743467807,0.0015675141782034,-0.0018987271469086,0.0005234517157077,0.003159683663398
1772650929990015700,5.745015625,0.0440618445664644,0.0149403064351528,-0.0029431316466536,0.0019255364313721,-0.0012810088228434,0.0017122694989666
1772650929999988700,5.75498876953125,0.0445130954653024,0.0058801806123927,0.002150145504903,-0.0001820889301598,0.0019488730467855,-0.0004038782790303
1772650930009961000,5.7649609375,0.051699792098999,-0.0108927480774,-0.0102146204869728,-0.0015437577385455,0.0015338179655373,-0.0008236683206632
1772650930019932700,5.7749326171875,0.0302981076300144,-0.0044029476666823,-0.0218452817843295,-0.0007155146449804,0.0017527299933135,0.0013641184195876
1772650930029906000,5.784906005859375,0.0252104291021823,-0.0072056570624932,0.0005107808000408,0.0010286252945661,-0.0005481778644025,-0.0009977472946047
1772650930039878000,5.7948779296875,0.0455535444289445,0.0116118195995688,-0.0079901767699979,0.0021796436049044,0.0254986025393009,0.0006872346275486
1772650930049850600,5.8048505859375,0.035981413963437,-0.1157268220579251,-0.3136149177130311,0.0055964337661862,0.022838357836008,0.0158238615840673
1772650930059822800,5.81482275390625,-0.0594873772352933,0.1165140634454786,0.0621375994831323,0.0011593410745263,-0.0025519547052681,-0.0041879303753376
1772650930069794800,5.824794921875,0.1169347730755805,0.002581285197474,0.2264540091976523,-0.0006400356069207,-0.0062170303426682,-0.0064753596670925
1772650930079767800,5.834767822265625,0.1016752446234226,0.0788305217392742,0.1363240034773014,0.0015312395989894,-0.0016694166697561,0.0007082510273903
1772650930089739800,5.84473974609375,0.0207195474237203,-0.0091323142761364,-0.1703521827474236,0.0015392047353088,0.0048744874075055,0.0028419939335435
1772650930099712000,5.8547119140625,-0.034053076249361,-0.0284001285215839,-0.1504152279356028,0.0014505214057862,0.0018533975817263,0.0024537050630897
1772650930109684700,5.864684814453125,0.0611135171324014,-0.0215098940838128,0.0987180296524893,-0.0013547320850193,-0.0041211703792214,-0.0009692977764643
1772650930119656700,5.87465673828125,0.0715846422642469,-0.0664381462212651,0.1136844203769694,-0.003031191881746,-0.0014108715113252,0.000225129944738
1772650930129630000,5.8846298828125,-0.0063724576413631,-0.010028057539463,-0.0091988310405518,0.0006131026893854,0.0020382557995617,0.0043861330486834
1772650930139601700,5.8946015625,0.0316261413633823,-0.0325217750288546,-0.0591173657459672,-0.0021818850655108,0.0002824338153004,-0.0011593671515583
1772650930149574000,5.904573974609375,0.0763666158437728,0.0074345704475417,0.0398559447086881,-0.0013078839983791,0.0008351164869964,-0.0008507192833349
1772650930159547000,5.914546875,0.0144166478872299,0.0353265667838975,0.0467151720868423,-0.0009789834730327,0.0005040857940912,0.0007849942194297
1772650930169518600,5.9245185546875,-0.0131219319015741,0.0748496354095637,-0.0363113765701651,0.0016712732613086,0.0007929126732051,0.0006044234614819
1772650930179490800,5.93449072265625,0.068868953564763,0.0756171491833403,-0.0880824438070878,0.0005349023267626,-0.0023408292327076,0.0027916776016354
1772650930189464600,5.944464599609375,0.016797990065813,0.0983042338203638,0.0120665228308178,-0.0006944616325199,0.0007843091152608,-0.0013485366944223
1772650930199436500,5.9544365234375,0.0006388824254274,0.0573691795049235,0.0019792185179423,-0.0002015107311308,-0.0012125289067626,0.0020408683922141
1772650930209408800,5.96440869140625,0.0627384879857301,-0.0150649557281285,-0.0471104093489702,-3.35369259119e-05,0.004589123185724,0.0041016777977347
1772650930219381500,5.974381591796875,-0.010136194089055,-0.0095909082312136,0.0177751828012056,0.0007406440563499,-0.0009585078805685,-0.0001122418325394
1772650930229353700,5.984353759765625,0.0569032059609889,-0.0474168175501748,0.0136125832290388,-0.0020546822343021,0.0015878025442361,-0.0022640717215836
1772650930239326700,5.99432666015625,0.0380476988434791,-0.0662267319602891,0.019603128880728,-0.0008003334514796,-0.0012364794965833,0.0017591657815501
1772650930249298700,6.004298583984375,0.05645370862782,-0.0646662777105346,0.0232480521211866,0.0009045754559338,-0.0015202017966657,-0.0006483773468062
1772650930259270700,6.014270751953125,0.0235328512787818,-0.0700387279964983,0.0314626761636696,-0.000611562281847,0.0016534873284399,-0.0008798060007393
1772650930269243600,6.02424365234375,0.0290700271397829,-0.0066177741719409,0.0292153904272243,-0.0008784350939095,-0.0004792935214936,0.001596734044142
1772650930279215600,6.034215576171875,0.0649818829983472,0.0095678561491891,-0.0056801279956474,-0.0021367787849158,-0.0004681083373725,-0.0024171820841729
1772650930289188600,6.044188720703125,0.0043856677383184,0.0430571610359475,-0.0413706783868838,-0.0003831586800515,-0.001779545797035,-0.001395637053065
1772650930299160800,6.054160888671875,0.0314741656720638,0.0921881986254826,-0.045353902804153,0.0009148656390607,-0.0017558438703417,0.0017245225608348
1772650930309132500,6.064132568359375,0.0667851330280304,0.0686398940492421,-0.0353558202778454,0.0003884127363562,-0.0006743969861418,0.0006483344477601
1772650930319105500,6.07410546875,0.0251847101390361,0.0420209133233875,-0.0385257646840065,0.0001697675324976,-0.0028451394755393,-0.0014321269700303
1772650930329077800,6.084077880859375,0.0277303029686212,0.0143310519630089,0.0263659010139293,-0.0012121468316763,-0.0013210123870521,-0.0010294569656252
1772650930339049500,6.094049560546875,0.0845960995286703,-0.0214892896872013,0.0110656660920474,0.0003684391267597,-7.89142213761e-05,-0.0001311727683059
1772650930349022700,6.104022705078125,0.008276829957962,-0.0758220971709117,0.0217175454851239,-0.0004150886088609,0.0002712626010179,-0.0014219714794307
1772650930358994700,6.11399462890625,0.0546639026015996,-0.0718443161137402,0.0239115940638352,0.002045139670372,0.0033019399270415,0.0008417153730988
1772650930368967700,6.1239677734375,0.024134908825159,-0.0901508841115981,-0.0155595434451941,-0.0005141110159456,0.0011176443658769,0.0026712715625762
1772650930378939600,6.133939697265625,0.0518143583893775,-0.0673341086803004,0.0010923070150427,-0.0015010784845799,-0.0009143475908786,-0.0003450246003922
1772650930388911600,6.14391162109375,0.0601952332437038,-0.0028918855166062,0.0205363637433853,0.0004536574706435,-0.0001878524199128,-6.21788785792e-05
1772650930398884900,6.153884765625,0.0013899930536746,0.0367007412139326,-0.001453194482997,0.0002821497619152,-0.0003889212384819,-0.0005996047402732
1772650930408856600,6.163856689453125,0.0435877973139286,0.0650737625328823,-0.0382177855802234,-0.000638554804027,0.0023913392797112,-0.0007964782998897
1772650930418828800,6.173828857421875,0.0096223993480205,0.0775478615175932,-0.0553206951430533,-0.0016561488155275,0.0008307271637022,-0.0012063388712704
1772650930428801800,6.1838017578125,0.0257844295978546,0.072583151782304,-0.0113053748657461,0.0007894015870988,0.0009964411146938,-0.0016411496326327
1772650930438773800,6.193773681640625,0.0208458041518926,0.0695911303594708,-0.019460341142863,0.0017734393477439,0.0018558432348072,0.0007461078930646
1772650930448746800,6.203746826171875,0.0455295790314674,0.0270372426705434,-0.0298501264004968,0.0003382861614227,0.0009607691317796,0.0023090997710824
1772650930458718700,6.21371875,0.0322089096873998,-0.0151014518136158,0.016755356500484,-6.46500848233e-05,0.0010161628015339,-0.0002717696188483
1772650930468690700,6.223690673828125,0.035353052932024,-0.0468530827201902,0.0322198055407498,0.0030109076760709,0.0012337011285126,0.0014510792680084
1772650930478663700,6.23366357421875,0.0326595760643482,-0.0759021766697987,0.0248626203115098,-0.0004541310481727,-0.0003311722539365,0.0016673279460519
1772650930488636000,6.243635986328125,0.024575053808093,-0.0763069580784067,0.0250061295685824,-0.0008775452151894,-0.0007311373483389,-0.0003766981826629
1772650930498607600,6.253607666015625,0.0218798233747482,-0.0594608180219307,0.0217632934561464,0.0012441952712833,0.0002395850606262,0.0006291777244769
1772650930508580600,6.26358056640625,0.0326531463235616,-0.0319295082241296,0.0257672227347269,-0.0002269106917083,-0.0007660095579922,0.001652079867199
1772650930518552800,6.273552734375,0.0220230312377214,0.0005367006925866,-0.0102161365906242,0.0007611224427819,0.0034250072203576,0.0002368760760873
1772650930528525600,6.283525634765625,0.0299520706713199,0.0298926686342805,-0.0268825726986397,0.0016953349113464,-0.0015252919401973,0.0008038811502046
1772650930538497800,6.293497802734375,0.0333943200796842,0.0719914694994688,-0.0268794948255643,-0.0013230917975306,0.0014348118565976,-0.0019429032690823
1772650930548469800,6.3034697265625,0.0399748675137758,0.0821982811393216,-0.0223899831202812,0.001653947867453,0.0011085462756454,-0.0006144843646325
1772650930558442500,6.3134423828125,0.0277039994835853,0.0561782892199233,-0.0333282691061496,-0.0005679274909198,0.0015583541244268,0.0008308131364174
1772650930568414700,6.323414794921875,0.0398228918224573,0.0435292720597237,-0.0241476221762597,-0.0011593652889132,-0.001677154796198,-0.0004046657995786
1772650930578386700,6.33338671875,0.0423719917833805,0.0061401467228308,-0.0122527752510737,0.0003067050129175,0.0019245040602982,-0.0043887547217309
1772650930588359700,6.343359619140625,0.0429722957640886,-0.0234294639695435,0.0144468786287121,0.0022172788158059,0.0006213714368641,-0.0013876614393666
1772650930598331600,6.35333154296875,0.0314577990591526,-0.0553255448481068,0.025324319539126,5.26611693203e-05,0.0002695680595934,-0.0022835489362478
1772650930608304600,6.3633046875,0.0344523047000169,-0.0610205781519413,0.0201859611368272,0.0011414247564971,0.0009160577319562,-1.58766051754e-05
1772650930618276600,6.373276611328125,0.0386404040396213,-0.0490559995919466,0.0179558639972005,-0.0019260039553046,0.0042556622065603,0.0007340696174651
1772650930628248600,6.38324853515625,0.041332127341628,-0.0443134812399744,0.0120793549129273,-0.0011586500331759,0.0013457364402711,-0.0002557996194809
1772650930638221800,6.393221923828125,0.0375911872476339,-0.0223239138804376,0.0089130181028042,-0.0009109759703278,-0.0002167401835322,0.0008123942534439
1772650930648193500,6.403193603515625,0.0319055428266525,-0.0016363690301775,-0.0084866185174323,0.0010437597520649,-0.0016688690520823,-0.0006686220876872
1772650930658165800,6.413165771484375,0.0353472077131271,0.0388114862902089,-0.012267616627179,-0.0008667921647429,0.0008829720318317,-0.0020031321328133
1772650930668138800,6.423138671875,0.0378939695864915,0.049544477228634,-0.0319196078846231,-0.001150848576799,0.0004114219918847,-0.0015814788639545
1772650930678110700,6.43311083984375,0.03265606893301,0.0469824812535196,-0.0397825324126053,0.0010577109642326,-3.3592339605e-05,0.0001791368704289
1772650930688083700,6.443083740234375,0.044774961271882,0.0528366506418213,-0.0311957414563279,0.0028840978629887,0.001157350372523,0.0008140142308548
1772650930698055700,6.4530556640625,0.0389373411595821,0.0317350450979545,-0.0203700124668423,0.0003913789987564,-0.0024472381919622,0.0005687370430678
1772650930708027600,6.463027587890625,0.0455184731155633,0.0070016223903745,-0.0089568572445306,-5.95403835177e-05,-0.0019672075286507,0.000448110688012
1772650930718000600,6.473000732421875,0.0314525383621454,-0.017071071386151,0.0077056881396565,-0.000108276028186,6.58496282994e-05,0.0017756964080035
1772650930727972900,6.482972900390625,0.0250157833129167,-0.0310679594913497,0.0214474415731616,0.0015250951983034,-0.0003343308344483,0.0028265011496841
1772650930737944600,6.492944580078125,0.0323456878095865,-0.053447914407961,0.0308520425851922,-0.0030046752654016,0.0002883160486817,-0.0002422593533992
1772650930747917600,6.50291748046875,0.0405757560163736,-0.0522470872508361,0.0198192010505124,0.0017318557947874,-0.0006208317354321,-4.71711973659e-05
1772650930757889800,6.512889892578125,0.0293564428657293,-0.0280719194805249,0.0162908533944282,-0.0009787091985344,-0.0014245738275349,0.0004500410286709
1772650930767862800,6.52286279296875,0.0277110137462615,-0.0189549489039927,0.0012241258343216,0.0028546908870339,-0.0015840127598494,0.0008700799662619
1772650930777834800,6.532834716796875,0.0224801273554563,0.014601064543426,0.0010716934852767,0.0006855465471744,0.0007798089645802,-0.0024596704170107
1772650930787806700,6.542806640625,0.0425344888687133,0.0345685149582102,-0.0111579292190726,0.0005298652686178,0.0012650126591324,0.0010385422501713
1772650930797779700,6.55277978515625,0.0325052622854709,0.0542505360277369,-0.0176615572257433,0.0012638322077691,0.0012961719185113,0.0001525086117908
1772650930807751700,6.562751708984375,0.0432780007123947,0.0424263157865032,-0.0313588047972414,-0.0023157624527812,-0.0016997461207211,-0.0013928674161434
1772650930817723600,6.5727236328125,0.0322100787311792,0.037568354361318,-0.0272936925164889,-0.0006235898472368,-0.0028246655128896,-6.28848210908e-05
1772650930827697000,6.58269677734375,0.0370002356171607,0.0362126654360443,-0.000671862246422,-0.0006578010506927,-0.0018466478213667,0.0010464926017448
1772650930837668600,6.592668701171875,0.028769582888484,0.0076772200969979,0.0060878959457855,0.0015057511627674,-2.71759927272e-05,0.0022499749902635
1772650930847641600,6.6026416015625,0.03191021900177,-0.0217560873972252,-0.0042486156214959,0.001701274421066,0.0015039080753922,-0.0007784753106534
1772650930857613800,6.61261376953125,0.0257750772476196,-0.040579007419385,0.0128725145846139,-0.00042659137398,-0.0010434056166559,0.0016415391582995
1772650930867585500,6.62258544921875,0.0257739082038402,-0.0313728972546756,0.0189726763569284,-0.0003743297420442,-0.0009849246125668,-0.0012330967001616
1772650930877558800,6.632558837890625,0.0314642287999391,-0.0385483053093776,0.0045723585499916,0.0017085284925997,0.003451635595411,0.0008172709494829
1772650930887530800,6.64253076171875,0.05106383228302,-0.0254777382688596,-0.0009142013686243,0.0003445101901888,-0.0017949640750885,-0.000490259961225
1772650930897502700,6.652502685546875,0.0343050051838159,0.0057597691031172,0.0140137844410724,0.0017764917574822,0.0012032226659357,-0.0005882643163204
1772650930907475700,6.662475830078125,0.0163508308202028,0.0125740156952291,-0.0256395412344485,0.0002520731650292,0.0002997606061398,-0.0018668631091713
1772650930917447700,6.67244775390625,0.0206897368073463,0.033761947815679,-0.0259666451638098,-0.0011066715233027,0.0024246969260275,3.9693841245e-05
1772650930927420700,6.682420654296875,0.0361012409508228,0.0327463044997304,-0.0174151903823949,-0.0005146604962646,0.0002257088199257,0.001560311880894
1772650930937392600,6.692392578125,0.0352034153282642,0.0378382208112627,-0.0095035222087055,0.0025783344171941,-0.0007593946065753,0.0010138313518837
1772650930947364600,6.702364501953125,0.0356534971833229,0.0258576409645378,-0.0230662840798031,0.0002511800266802,0.0006064684130251,-0.0012942333705723
1772650930957337600,6.712337646484375,0.0489706593960523,0.0080247548930346,-0.0071323360979557,0.0004621027037501,0.0012280503287911,0.0011697232257574
1772650930967309800,6.722309814453125,0.034905309164524,0.006565824788995,7.7814476564e-06,0.0019316365942358,-0.0017836827319115,6.67110434733e-05
1772650930977281500,6.732281494140625,0.0184463417947292,-0.0248399518219754,0.016287656790344,-0.0015464518219232,0.0003111599944531,-0.0020827262196689
1772650930987254500,6.742254638671875,0.0344593189626932,-0.0340436508338898,0.0041228886162862,0.0010501877404749,-0.0007637809030711,-0.0001348171499557
1772650930997226800,6.752226806640625,0.0396937124848365,-0.0332225437093526,-0.0023494218035135,0.0008523147553205,0.0012991037219762,0.0006268469151109
1772650931007199700,6.76219970703125,0.0317617504417896,-0.013653554560244,0.0023070896322838,0.0006001302972435,0.0002083177678287,0.0010514368768781
1772650931017171700,6.772171630859375,0.0449321976602077,0.0075299205807968,-0.0087667506330646,-0.0009223986417055,0.0005297614261507,-0.0003499185550026
1772650931027143700,6.782143798828125,0.0446335069745779,0.0100722620073705,-0.005717062472552,-0.0010342192836105,-0.0010482734069228,-0.0005203041946515
1772650931037116700,6.79211669921875,0.0296738382518291,0.0177821057323366,-0.0189334494582377,0.0018928609788417,-0.0009393501095473,-8.00836714915e-05
1772650931047088600,6.802088623046875,0.0370125105768442,0.0235956873819232,-0.0091467172608245,0.0008159363642334,0.0012386990711092,-0.0010094131575897
1772650931057060600,6.812060546875,0.0254863234341144,0.0398503278186544,-0.0174355025180615,-0.0007225717417895,0.0006522708572447,0.0016758521087467
1772650931067033900,6.822033935546875,0.0308721081256866,0.0195834925984963,-0.0154071019629947,0.0003055473789572,0.0003382638096809,-0.0003105060313828
1772650931077005600,6.832005615234375,0.0253308406114578,0.0186570984685793,0.0183820261205546,-0.0009788949973881,-0.0007349902298301,0.0019052439602091
1772650931086978600,6.841978515625,0.0356523281395435,0.0076798504455015,-0.0018584234161768,0.0003098514862358,0.0020727850496768,3.6358309444e-05
1772650931096950800,6.85195068359375,0.0308627557754516,-0.0043902708481997,0.0083596859358251,0.0014787130057811,0.0008977986872196,-0.0009788386523723
1772650931106922800,6.8619228515625,0.0299643456310033,-0.0004157777266576,0.0065326440386008,-0.0020662513561546,-0.0011586653999984,0.000124828016851
1772650931116895700,6.871895751953125,0.0355009369701147,-0.0190728031300008,0.0066666639481205,6.69406726956e-05,-0.0009669177234172,-0.0013028925750404
1772650931126867700,6.88186767578125,0.0482201332896947,-0.0161095694102346,-0.0101781700672581,0.0007800399325788,0.0033198976889252,-0.0007914940360933
1772650931136840700,6.8918408203125,0.0384966116547584,-0.0147051825050264,0.0020952461130451,0.0006697848439216,0.0002545989118516,-0.0033262907527387
1772650931146812700,6.901812744140625,0.0504728806525468,0.0032237843520939,-0.0031938276052474,-0.0009668078273534,-9.05413180589e-05,-0.0004193173372186
1772650931156785000,6.911784912109375,0.0488321277081966,0.0217526533311232,-0.0028903876792639,-0.0012927786447107,0.001071395818144,-0.0012230593711137
1772650931166757600,6.921757568359375,0.0364133756399154,0.0150527538336813,-0.0027511344722006,-0.000739908311516,-0.0011470504105091,-0.0008538562688045
1772650931176729600,6.9317294921875,0.0426969859540462,0.0287106192428618,-0.0211527968749869,-0.001550308195874,0.0001299353316426,0.0003560177865438
1772650931186701000,6.941701171875,0.0426928943008184,0.026091997709684,-0.0207974988976027,-0.0021208391990512,0.0024022231809794,-0.0007207696908153
1772650931196673800,6.951673828125,0.0386515099555253,0.0354915480872616,-0.0148031995194032,0.0002688150852918,-0.0006412370130419,0.00123558845371
1772650931206646000,6.96164599609375,0.0284738148123025,0.0154837291294708,-0.0024507906856015,-0.0014248290099203,0.0014535994268953,-0.0007654227083548
1772650931216619000,6.971618896484375,0.0362596463829278,-0.020159721583873,-0.0097005334849935,0.001266295555979,-0.0015304724220186,-0.0030328379943966
1772650931226591000,6.981591064453125,0.0434416668415069,-0.0142722344478592,-0.0038183892443776,0.0008150245994329,-0.0028910087421536,0.0016873208805918
1772650931236563000,6.99156298828125,0.0362590618610382,-0.0096675171313807,0.0160366685708053,0.0001889155246317,0.0021950965747237,-0.0017087419982999
1772650931246536000,7.001535888671875,0.0527244589716196,-0.0171557539949193,-0.0026650179581716,-0.0005576550029218,-0.0003390554338693,0.0003855909453704
1772650931256508000,7.0115078125,0.0365630132436752,-0.0184913134476169,0.0057142677272669,0.0010026907548308,-0.0013673019129782,0.0011035791831091
1772650931266479900,7.02147998046875,0.0325263050734996,-0.0192253268105909,0.0153502024102956,-0.0004518697969615,0.0019069705158472,-0.0014568677870556
1772650931276453000,7.031453125,0.0226502232253551,-0.0106008159261196,0.0192696865421254,0.0009742528200149,0.0003205253742635,-0.0005055866786278
1772650931286424800,7.0414248046875,0.0293839153945446,0.0055902577551081,-0.0011585771842859,0.0013541309162974,0.0022492595016956,-0.0001483109081164
1772650931296397800,7.051397705078125,0.040313890209794,0.0078116235990077,0.0019083543719723,-0.00281025422737,-0.0002804771065711,-0.001652996870689
1772650931306370000,7.0613701171875,0.0397200159698724,0.0062882499566301,-0.0191188524951227,0.0009695901535451,0.0015602549538016,-0.0014202934689819
1772650931316341800,7.071341796875,0.0301478855043649,0.0302777224291115,-0.0057076370570808,0.0014742594212293,-0.0004424420185387,0.0002950485795736
1772650931326315000,7.08131494140625,0.0317915610581636,0.0143096438487991,0.0014103234556503,0.0018816068768501,0.000668569933623,0.0004306306364014
1772650931336287000,7.091286865234375,0.0472059878110885,3.72998030856e-05,-0.0243237459281459,-0.0015192497521638,-0.0012760702520608,-0.0003081302274949
1772650931346259000,7.101259033203125,0.0398696535736322,0.0011657923763617,-0.0363902139600366,-0.0010545933619141,0.0004819040186703,-0.0008253816049546
1772650931356232000,7.11123193359375,0.0222048175454139,-0.0179759478040039,0.0009995506976731,-0.00101118395105,0.0021740761585533,0.0008561382419429
1772650931366204000,7.121203857421875,0.0244476280361413,-0.0205411221168935,-0.0072514689655974,-0.0001160711981356,0.0013431850820779,-0.0013029044494032
1772650931376177200,7.13117724609375,0.0492863012164831,-0.0261926085399463,0.0070982237657997,0.0016645183786749,-0.0017612616065889,0.0009836857207119
1772650931386148900,7.14114892578125,0.05182838691473,-0.0156038849104195,0.002438323929673,0.0011125649325549,-0.001062961295247,0.0012745589483529
1772650931396121000,7.15112109375,0.0317769480109214,-0.0073387453902512,0.0098765750384889,0.0011205542832612,0.0002971151843667,-0.0003742039261851
1772650931406094000,7.161093994140625,0.0323772519916296,0.0033972046902403,0.0052439742012415,-0.0011511454358696,0.0007148976437747,-0.001117305480875
1772650931416066000,7.171066162109375,0.0229500829547643,-0.0021788418764248,-0.0217620970129035,0.0010427664965391,0.0033650095574557,0.0003399762208573
1772650931426038000,7.1810380859375,0.0229530055642127,0.0055324631532654,-0.0170824969624634,0.0027479161508381,-0.0016267569735646,-0.00209521362558
1772650931436011000,7.191010986328125,0.0359726461350917,0.019583383000642,-0.0032747747538145,-0.0003171162679791,0.0008302754722535,1.6158446669578552e-07
1772650931445983000,7.20098291015625,0.0328255802810192,0.0098510935373604,-0.0043132144234608,0.0007197973318397,-0.0006660141516476,0.002951733302325
1772650931455956000,7.2109560546875,0.0382072733193635,0.008102861630544,-0.0096187917519826,0.0012881159782409,-0.0001144735142588,-0.0004504547978285
1772650931465928200,7.22092822265625,0.0316238032758235,-0.0089629490585997,-0.0055579446543939,0.0003077578730881,0.000338926911354,0.0005038403323851
1772650931475900000,7.23089990234375,0.0256359610378742,0.0058851125158369,-0.0012914919821079,0.0001761973835527,-0.0003854529932141,-0.0005241399048827
1772650931485873000,7.240872802734375,0.0341658889740705,0.0050187780100852,-0.0030102146666496,-0.0020140819251537,-0.0012939693406224,0.0019621620886027
1772650931495845000,7.25084521484375,0.0397042338788509,-0.010908347505331,0.0046299613555893,-0.0009328387677669,0.0018253913149237,-0.0021372416522353
1772650931505816800,7.26081689453125,0.0382113649725914,-0.015189531955868,0.0184232531800866,-0.0005097347311675,0.0007577934302389,0.0028719024267047
1772650931515790000,7.2707900390625,0.0284849207282066,-0.0012285554142668,-0.0010904164520557,-0.0012559527531266,-0.0012446376495063,0.000680387020111
1772650931525762000,7.280761962890625,0.0308820449978113,-0.0005581088067963,-0.0016565898342989,0.0008756415918469,-0.0018048596102744,-0.0002994392416439
1772650931535734800,7.29073486328125,0.035979660397768,0.0160757767384871,-0.0072477152390871,-0.0001560668461024,-0.0006786088924854,0.0005967144388705
1772650931545707000,7.30070703125,0.0287999780267477,0.0173322065403684,-0.0051709272313397,-0.0002257842570543,0.001739895902574,0.0001721121370792
1772650931555679000,7.310678955078125,0.044060675522685,0.0139335040127858,-0.0079092478877399,0.0005763596855103,0.0008828905411064,0.0018293971661478
1772650931565652000,7.32065185546875,0.0296966346055269,0.0079584116585552,-0.0088870799439493,-0.0002215187996625,-0.0024294613394886,0.0012221941724419
1772650931575624000,7.3306240234375,0.0331371304482221,0.0066515303110703,0.001154101938568,2.1627638489e-05,0.0021604970097541,0.0004618617240339
1772650931585596200,7.34059619140625,0.0168231245070695,0.0104521281704306,0.0032971418492496,0.0002077100798487,-0.0015751947648823,-0.0008822632371447
1772650931595569000,7.35056884765625,0.0316401698887348,-0.0089135934915393,0.0042525337447877,-0.0002346406690776,0.0016682692803442,-0.0024396798107773
1772650931605540900,7.360540771484375,0.0379272873342037,0.0014288272267207,-0.0081367365006823,0.0022598877549171,-0.0005990175995975,0.0011085632722824
1772650931615514000,7.37051416015625,0.0268535201340913,0.0052416269805282,0.0007973609227687,-0.0020994404330849,-0.0003097984008491,0.0015591701958328
1772650931625485800,7.38048583984375,0.0437637384027242,0.0073087155781686,0.0024881361544597,0.0014835549518465,-0.0012510963715612,0.0016612102044746
1772650931635458000,7.3904580078125,0.0256581728696823,-0.0076344769338145,0.0013508666196838,0.0026630689390003,0.0006256331689655,-0.0010847750818356
1772650931645431000,7.40043115234375,0.0210211607187986,-0.0157570661781355,-0.0141896341983228,-0.0010109981521964,-0.0022161602973937,0.0007042039651423
1772650931655403000,7.410403076171875,0.0567833789736032,0.0163819200782105,-0.0120634084251243,0.0004516099579632,-0.0016318629495799,0.0014695964055135
1772650931665375000,7.420375,0.0261094237685203,0.0159266871239989,-0.0227396550744771,-0.0011583173181861,-0.0001817364245653,0.0008001266978681
1772650931675348000,7.430347900390625,0.0371796838372945,0.0129668874703347,-0.012223421292426,0.0004217359237372,0.0013242810964584,-0.0010550313163548
1772650931685320000,7.44031982421875,0.0235644154608249,0.0159011508239433,0.0154675634459592,0.0003756862133741,-0.0009678886272013,-1.11098052002e-05
1772650931695293000,7.45029296875,0.0379296254217624,0.0020026085266843,-0.0147229830231983,0.000445993617177,-0.0005026343278586,0.0016845249338075
1772650931705265200,7.46026513671875,0.0458633410304784,0.0146545117637142,-0.022606703744037,0.0016650143079459,0.0008935648947954,-0.0018832561327144
1772650931715236900,7.47023681640625,0.0303039528489112,0.0181993447637185,-0.0156210004420019,0.0002743117511272,-0.000686488347128,-0.0001074603642337
1772650931725209900,7.4802099609375,0.0470686251670122,0.0129688967643305,-0.0038981582160107,0.0011519291438162,0.0004458618350327,0.0016988167772069
1772650931735182000,7.49018212890625,0.0461748911976814,0.0095644220830872,-0.0149543897594325,0.0007444652728736,0.0003467919304966,-0.000373388727894
1772650931745153800,7.50015380859375,0.0428846174806356,-0.0029033567586913,-0.0174647286125458,-0.0012033637613058,0.0005074124783277,-0.0005127538461238
1772650931755127000,7.510126953125,0.0410918888449668,-0.0135927277510985,0.0032212453351356,-0.0028241635300219,-0.0002673012204468,0.0023706504143774
1772650931765099000,7.52009912109375,0.0494739327430725,-0.0332749680163338,0.0091789390299934,-0.0011923187412321,-0.0007760163862258,-0.0009530886309221
1772650931775071700,7.53007177734375,0.0204442376136779,-0.0332683190798386,0.0142831668338272,0.0013675116933882,0.0013598389923572,-0.000308603659505
1772650931785044000,7.5400439453125,0.0424374582350254,-0.0352492637639865,0.0174557050558738,0.0037673353217542,0.0013547008857131,0.0006863676244392
1772650931795016000,7.550015869140625,0.0349567470908164,-0.0440817913759499,0.0111021073786076,-0.0004646936431527,0.000912882387638,-0.0013703916920349
1772650931804989000,7.559989013671875,0.040645898643136,0.0033941359503194,0.0083713307078462,-0.0007683201692998,0.0005124369636178,-0.0011427253484725
1772650931814961000,7.5699609375,0.0424444724977016,0.0022708310088142,0.0148364716013427,-0.0019755309913307,0.001286085229367,0.0012655711034312
1772650931824933000,7.57993310546875,0.0318190335869789,0.0073965034594759,-0.003288474485604,0.0015220968052744,0.0006574224680662,-0.000442551128799
1772650931834905900,7.58990576171875,0.0358574953228235,0.0291093727694824,-0.0106983123506885,0.0014256900176405,0.0020148358307778,-0.0005978133995085
1772650931844878000,7.599878173828125,0.0213397251486778,0.0354984162194654,-0.0072409841042011,0.0004795426502823,0.0006034560501575,0.0051168431527912
1772650931854851000,7.60985107421875,0.0204395614385604,0.0394257091984152,-0.0257164241292513,-0.0022342186421155,-0.0003811144270002,-0.0019639695528894
1772650931864822800,7.61982275390625,0.0430383467376232,0.0219827722925692,-0.0270139165938831,-0.0007242485880851,-0.0004744688048958,-0.0020370881538838
1772650931874795000,7.629794921875,0.040498599126935,0.0083958166951313,-0.0112558457687497,-0.0010893680155277,-0.0004241350106894,-0.0032512233592569
1772650931884768000,7.63976806640625,0.0406517438620328,-0.0132855980306863,0.0110996596931945,0.0002701245248317,0.0002953535877168,-0.0015948766376823
1772650931894740000,7.649739990234375,0.0277858325481414,-0.0087648326706141,0.0077639941981527,-0.0002188314683735,0.0001882943324744,0.0012874626554548
1772650931904712000,7.6597119140625,0.0301782806426286,-0.0105319519409909,-0.0017134254549164,-0.0024597209412604,0.0012899814173579,-2.5050365366e-05
1772650931914685000,7.669684814453125,0.0319710092782974,-0.0193214806614443,-0.0063005797152407,-0.0009065652266144,0.0005139363929629,0.0025725970044732
1772650931924657000,7.679656982421875,0.0395960973292589,-0.0015196838479489,-0.0091448632304556,-2.26935371756e-05,0.0011570933274924,0.001030356856063
1772650931934630000,7.6896298828125,0.0469219101727008,0.013923165281862,-0.0055945503377355,-0.0005526621825993,0.0014564325101673,0.0026120082475245
1772650931944602000,7.69960205078125,0.0472135865956544,0.0112731256971135,-0.033228763387585,-0.0025614809710532,-0.0003768322058022,0.0019008512608706
1772650931954573800,7.70957373046875,0.0413783045709133,0.0275712764820083,-0.0128686512602493,0.0011008982546627,0.0002878932282328,0.0003258579527027
1772650931964546800,7.719546875,0.0497504115968942,0.0226561049768701,0.0082373564640991,-0.0006733071058988,0.0010688486509025,0.0016856107395142
1772650931974519000,7.72951904296875,0.0576747748553752,0.0234760430576279,-0.0204245008667465,-0.0009268401190638,-0.0015319946687668,0.0011633648537099
1772650931984490800,7.73949072265625,0.0247509948968887,0.0005875540969893,-0.0133250623913947,0.0004954556934535,0.0012961835600435,0.0019657984375953
1772650931994464000,7.749464111328125,0.0392553210675716,0.0088972634112462,-0.0169861513153649,-0.0011226809583604,0.0010240082629024,0.0029578260146081
1772650932004436000,7.75943603515625,0.0332692323952913,-0.0089196213735267,0.0001802519377321,0.0009354432113468,-2.87117436528e-05,0.0010101563530042
1772650932014409000,7.769408935546875,0.03371931425035,-0.0127332248449325,0.0137013118252623,0.0005325069651007,0.0016301716677844,-0.0014599254354834
1772650932024381000,7.779380859375,0.030423779836297,-0.0285722702180966,-0.0060711914061568,-0.0017010704614222,0.0027805240824818,0.0009336649673059
1772650932034353000,7.789352783203125,0.0247322901964187,-0.021395254728198,0.0058420040264725,0.0002888436429202,-0.000633914489299,0.0008447153959423
1772650932044326100,7.799326171875,0.0447837291002273,-0.0249831596849486,0.0037683395575731,-0.0017909074667841,0.000958910677582,0.0008792572189122
1772650932054297900,7.8092978515625,0.0429886623769998,-0.0139477517338469,-0.0027106015324126,-0.0011421614326536,0.0050354111008346,-0.0020174630917608
1772650932064270000,7.81927001953125,0.0275701439708471,0.012156009478867,0.0028771446052007,3.66796739399e-05,0.0023930110037326,0.0003662205999717
1772650932074243000,7.8292431640625,0.0298158770710229,0.0101771836865693,-0.0007081939351279,-0.0023383272346109,0.0006837942637503,0.000308429938741
1772650932084215000,7.839215087890625,0.0369932213544845,0.0216633676124736,-0.0114308735420927,-0.0019255990628153,0.0008926102891564,0.0002676415024325
1772650932094188000,7.84918798828125,0.0371457815676927,0.0374519614400342,-0.0142533379511442,-0.0027429230976849,0.0010004681535065,-0.0040892902761697
1772650932104160000,7.859159912109375,0.0266699802607297,0.0473186544053256,-0.0324560528488829,0.0006905584596097,-0.0004892782308161,0.0011888879816979
1772650932114132000,7.869132080078125,0.0157429280549287,0.0170688794290646,-0.0286449153291992,0.0001214407384395,-0.0015055404510349,-0.0014500382822006
1772650932124105000,7.87910498046875,0.0251747732669115,0.0266490105379372,-0.0183490189000964,0.0016354080289602,-0.000147053040564,0.0002537972177378
1772650932134077200,7.8890771484375,0.0420820689260959,0.0164208273164927,0.0124266157143283,5.29577955603e-05,-0.0012501343153417,-0.0001091916346922
1772650932144049000,7.899048828125,0.0214326641291379,0.0101326138924807,0.0039031540515366,0.0024869097396731,0.000834830570966,0.0015671771252527
1772650932154022000,7.90902197265625,0.0524064790636301,0.000599573328346,0.007659921902325,0.0001406650990247,0.0008497443050146,0.0019719777628779
