time,seconds_elapsed,acc_z,acc_y,acc_x,gyro_z,gyro_y,gyro_x
1772904210615878100,0.962878173828125,-0.0073127746582031,-0.0163708925247192,0.0002870708703994,0.0001527161948615,-0.0001527161948615,0.0
1772904210634863400,0.98186328125,-0.016641616821289,0.0189231634140014,0.0237861275672912,0.0007635809597559,-0.0001527161948615,0.0
1772904210653848800,1.000848876953125,-0.0069503784179687,-0.0072632431983947,0.0021790266036987,0.0001527161948615,0.0016798780998215,0.0
1772904210672834000,1.019833984375,0.0095510482788085,0.0116722583770751,-0.0190164148807525,-0.0004581485991366,-0.0019853105768561,-0.0006108647794462
1772904210691819500,1.038819580078125,-0.0118303298950195,-0.0025303363800048,0.0116381794214248,0.0001527161948615,-0.0001527161948615,-0.0006108647794462
1772904210710804700,1.0578046875,-0.0069255828857421,-0.0138318836688995,0.0090394765138626,-0.0004581485991366,0.0010690133785828,0.0
1772904210729790200,1.076790283203125,-0.0114383697509765,0.0104021430015563,-0.002759113907814,0.0001527161948615,0.0004581485991366,0.0012217295588925
1772904210748775400,1.095775390625,-0.0158166885375976,0.6373100280761719,0.0333052724599838,-0.0163406319916248,0.002901607658714,0.0012217295588925
1772904210767760600,1.1147607421875,-0.0925369262695312,-0.1444657295942306,0.0031531453132629,-0.0083993906155228,-0.0032070400193333,0.0091629717499017
1772904210786746000,1.13374609375,0.0268306732177734,-0.2155138999223709,-0.0268915295600891,-0.0132863093167543,0.0181732270866632,0.0030543238390237
1772904210805731300,1.1527314453125,0.1261253356933593,-0.3486495316028595,-0.0234096497297287,-0.009621120058,-0.0203112531453371,0.0042760535143315
1772904210824716800,1.171716796875,0.0078182220458984,-0.2197703421115875,0.0626304149627685,0.0013744457392022,0.0187840927392244,-0.0036651887930929
1772904210843702000,1.190701904296875,0.0198907852172851,-0.0731903165578842,-0.0602746158838272,-0.0010690133785828,-0.0080939587205648,0.0018325943965464
1772904210862687200,1.209687255859375,-0.0661306381225586,0.1006068587303161,0.0197500437498092,-0.0004581485991366,-0.0019853105768561,-0.0006108647794462
1772904210881672700,1.228672607421875,-0.0510931015014648,0.0184423327445983,0.0208683758974075,0.0001527161948615,0.0083993906155228,-0.002443459117785
1772904210900658000,1.247657958984375,-0.0113096237182617,-0.1504417657852172,-0.0045660585165023,-0.0004581485991366,-0.0087048234418034,0.0012217295588925
1772904210919643400,1.266643310546875,-0.0151891708374023,0.0935004353523254,-0.0104879438877105,0.0007635809597559,0.0090102553367614,-0.0006108647794462
1772904210938628900,1.28562890625,0.0342750549316406,0.0541960000991821,0.0148961544036865,-0.0010690133785828,-0.0087048234418034,0.0
1772904210957614000,1.304614013671875,-0.003788948059082,-0.0725146979093551,0.0171413868665695,0.0007635809597559,0.0090102553367614,0.0
1772904210976599300,1.323599365234375,0.029555320739746,0.01617032289505,-0.0111502110958099,-0.0004581485991366,-0.0056504993699491,0.0018325943965464
1772904210995584800,1.342584716796875,-0.0157861709594726,0.0529561042785644,-0.0065047889947891,0.0007635809597559,0.002901607658714,-0.0012217295588925
1772904211014570000,1.361570068359375,0.0082683563232421,-0.0470639169216156,0.0105073750019073,-0.0004581485991366,-0.0013744457392022,0.0
1772904211033555500,1.380555419921875,0.0032844543457031,-0.0007046461105346,0.0048087537288665,0.0001527161948615,0.0004581485991366,0.0006108647794462
1772904211052540700,1.399540771484375,0.0176172256469726,0.033949851989746,-0.018234372138977,-0.0004581485991366,0.0010690133785828,-0.0006108647794462
1772904211071526100,1.418526123046875,0.0004749298095703,-0.0136329531669616,0.0048429071903228,-0.0004581485991366,-0.0019853105768561,0.0
1772904211090511400,1.437511474609375,0.0027027130126953,-0.0080339014530181,0.0030480474233627,0.0001527161948615,0.0022907429374754,0.0
1772904211109496600,1.45649658203125,-0.0161361694335937,0.0252271592617034,0.0004276037216186,-0.0004581485991366,-0.0019853105768561,0.0
1772904211128482000,1.47548193359375,-0.0063800811767578,0.0053599178791046,0.0078572928905487,-0.0004581485991366,0.0022907429374754,0.0
1772904211147467500,1.494467529296875,-0.0040578842163085,-0.0293039232492446,0.0076961517333984,0.0007635809597559,-0.0019853105768561,0.0
1772904211166452700,1.51345263671875,-0.0203485488891601,0.0253196060657501,0.0104205459356307,0.0001527161948615,0.002901607658714,0.0
1772904211185438000,1.53243798828125,0.0081644058227539,0.0104108452796936,-0.0085591226816177,0.0007635809597559,-0.0013744457392022,0.0
1772904211204423400,1.55142333984375,0.0006771087646484,-0.0393361896276474,0.0032512992620468,0.0001527161948615,0.0004581485991366,0.0
1772904211223409000,1.570408935546875,0.0078697204589843,0.0160111486911773,0.0030383616685867,0.0001527161948615,-0.0001527161948615,0.0
1772904211242394000,1.58939404296875,-0.008819580078125,0.0338448882102966,-0.0182451158761978,-0.0004581485991366,0.0004581485991366,0.0
1772904211261379300,1.60837939453125,-0.0136260986328125,-0.0491473674774169,-0.0087490677833557,0.0001527161948615,-0.0001527161948615,0.0
1772904211280364800,1.62736474609375,-0.001805305480957,0.0061167180538177,-0.0014998167753219,0.0001527161948615,-0.0007635809597559,0.0
1772904211299350000,1.64635009765625,-0.0203704833984375,0.0083121657371521,-0.0084266513586044,0.0007635809597559,0.0004581485991366,0.0
1772904211318335500,1.66533544921875,-0.0012645721435546,0.010594218969345,-0.0152793079614639,-0.0004581485991366,-0.0001527161948615,0.0
1772904211337320700,1.68432080078125,0.0175189971923828,-0.0130206048488616,0.0084248334169387,0.0007635809597559,-0.0013744457392022,0.0006108647794462
1772904211356306200,1.70330615234375,0.0127477645874023,0.0246321260929107,0.0131836831569671,0.0001527161948615,0.0016798780998215,0.0
1772904211375291400,1.72229150390625,0.0103216171264648,-0.0134331285953521,0.0059438049793243,-0.0004581485991366,-0.0013744457392022,0.0
1772904211394276900,1.74127685546875,-0.0037860870361328,-0.0178492069244384,0.001323863863945,0.0001527161948615,0.0010690133785828,-0.0006108647794462
1772904211413262000,1.760261962890625,0.0031213760375976,0.0106724500656127,0.0013727694749832,-0.0004581485991366,-0.0007635809597559,0.0
1772904211432247300,1.779247314453125,-0.0016059875488281,-0.0033032894134521,0.0061521083116531,0.0007635809597559,0.0016798780998215,-0.0006108647794462
1772904211451232800,1.798232666015625,-0.0083398818969726,0.022362858057022,-0.0220936983823776,-0.0010690133785828,-0.0013744457392022,-0.0006108647794462
1772904211470218200,1.81721826171875,-0.0034770965576171,-0.0133478939533233,0.0228874832391738,0.0007635809597559,0.0010690133785828,0.0
1772904211489203500,1.836203369140625,0.0038576126098632,0.0060651898384094,0.0013880878686904,-0.0004581485991366,0.0004581485991366,0.0006108647794462
1772904211508188700,1.855188720703125,-0.0009031295776367,0.008202701807022,0.0011087208986282,0.0007635809597559,-0.0001527161948615,0.0
1772904211527174100,1.874174072265625,-0.0055360794067382,0.0010384917259216,-0.0056315213441848,-0.0004581485991366,0.0004581485991366,0.0
1772904211546159600,1.89315966796875,0.0061731338500976,-0.0107837915420532,-0.0037516951560974,0.0007635809597559,-0.0025961752980947,0.0012217295588925
1772904211565144800,1.912144775390625,0.0062494277954101,0.0058180093765258,0.0269435495138168,-0.0004581485991366,0.0016798780998215,0.0
1772904211584130000,1.931130126953125,0.0058040618896484,0.0081205666065216,-0.0209337621927261,0.0007635809597559,-0.0013744457392022,0.0
1772904211603115500,1.950115478515625,-0.0014867782592773,-0.0175518691539764,-0.0063080191612243,0.0001527161948615,-0.0001527161948615,0.0
1772904211622100700,1.969100830078125,0.0057811737060546,0.0037462711334228,0.0079684555530548,-0.0004581485991366,-0.0001527161948615,0.0012217295588925
1772904211641086200,1.988086181640625,0.0057125091552734,0.0246106386184692,-0.0085110515356063,0.0001527161948615,0.0016798780998215,0.0
1772904211660071400,2.007071533203125,-0.0036554336547851,-0.0114509761333465,0.0012934654951095,0.0001527161948615,-0.0013744457392022,0.0006108647794462
1772904211679057000,2.026056884765625,-0.005767822265625,-0.0112130939960479,-0.012967512011528,-0.0004581485991366,0.0010690133785828,0.0
1772904211698042000,2.0450419921875,-0.0058479309082031,0.0074396729469299,-0.0105788111686706,0.0007635809597559,0.0004581485991366,-0.0006108647794462
1772904211717027600,2.064027587890625,0.0082664489746093,-0.0091285407543182,0.0107082724571228,0.0001527161948615,-0.0007635809597559,0.0006108647794462
1772904211736012800,2.0830126953125,-0.0180864334106445,0.0051973462104797,0.0106943100690841,0.0001527161948615,-0.0007635809597559,-0.0006108647794462
1772904211754998300,2.101998291015625,0.0081987380981445,-0.0018523335456848,0.0106392055749893,0.0001527161948615,0.0016798780998215,-0.0006108647794462
1772904211773983500,2.1209833984375,0.0011863708496093,-0.0043649971485137,0.0007888525724411,-0.0004581485991366,-0.0007635809597559,0.0012217295588925
1772904211792969000,2.139968994140625,-0.0083065032958984,-0.0157815515995025,0.0078626722097396,0.0001527161948615,-0.0001527161948615,0.0
1772904211811954200,2.1589541015625,0.0084810256958007,0.0054551362991333,0.005667507648468,-0.0004581485991366,-0.0001527161948615,0.0006108647794462
1772904211830939600,2.177939697265625,-0.0059566497802734,0.0052030086517333,-0.006313070654869,0.0007635809597559,-0.0001527161948615,0.0
1772904211849924900,2.1969248046875,0.0012998580932617,-0.0065842270851135,0.0103412121534347,-0.0004581485991366,-0.0007635809597559,0.0006108647794462
1772904211868910300,2.215910400390625,0.0082321166992187,0.0168545842170715,0.0121376067399978,0.0007635809597559,-0.0007635809597559,0.0
1772904211887895600,2.2348955078125,-0.0058355331420898,0.0021721720695495,-0.0043997466564178,-0.0004581485991366,0.0016798780998215,0.0
1772904211906881000,2.253881103515625,0.0059223175048828,-0.0004005134105682,0.0002744197845458,-0.0004581485991366,-0.0007635809597559,0.0
1772904211925866200,2.2728662109375,0.0104732513427734,-0.0029119551181793,-0.0180074274539947,0.0001527161948615,0.0010690133785828,0.0
1772904211944851700,2.291851806640625,-0.010660171508789,0.0088391602039337,0.0058383792638778,0.0001527161948615,-0.0001527161948615,0.0
1772904211963837000,2.3108369140625,-0.0197162628173828,0.0133596956729888,0.0080047398805618,0.0001527161948615,0.0010690133785828,0.0006108647794462
1772904211982822400,2.329822509765625,0.0064258575439453,-0.0197571814060211,-0.0181460231542587,0.0001527161948615,-0.0007635809597559,0.0006108647794462
1772904212001807600,2.3488076171875,-0.012491226196289,0.008862167596817,-0.001597985625267,0.0007635809597559,0.0004581485991366,0.0
1772904212020792800,2.367792724609375,-0.0002384185791015,-0.000841200351715,0.0197151899337768,0.0007635809597559,0.0004581485991366,-0.0006108647794462
1772904212039778300,2.3867783203125,-0.0072498321533203,0.0063947141170501,0.0077656209468841,-0.0004581485991366,-0.0007635809597559,0.0
1772904212058763800,2.405763671875,-0.0096368789672851,-0.0149388313293457,0.0073884427547454,0.0001527161948615,-0.0001527161948615,0.0
1772904212077749000,2.4247490234375,0.0047645568847656,0.0039003193378448,-0.0113798379898071,0.0001527161948615,0.0004581485991366,0.0
1772904212096734500,2.443734375,-0.0118646621704101,0.0016995668411254,-0.0206575095653533,0.0001527161948615,-0.0007635809597559,0.0
1772904212115719700,2.4627197265625,-0.0046892166137695,0.0014562308788299,0.0011772066354751,0.0001527161948615,0.0004581485991366,0.0
1772904212134705200,2.481705078125,-0.0020246505737304,-0.0033662021160125,-0.0059062540531158,-0.0004581485991366,-0.0007635809597559,0.0
1772904212153690400,2.5006904296875,0.0050592422485351,-0.0058757066726684,-0.0012472122907638,0.0001527161948615,-0.0007635809597559,0.0
1772904212172675800,2.51967578125,0.0049715042114257,0.0039364099502563,-0.0079977810382843,-0.0004581485991366,-0.0001527161948615,0.0
1772904212191661000,2.5386611328125,0.0027704238891601,0.0040493309497833,-0.0051939785480499,0.0007635809597559,0.0004581485991366,0.0
1772904212210646300,2.557646240234375,-0.0017528533935546,-0.0124546885490417,-0.0071194916963577,0.0007635809597559,0.0004581485991366,0.0
1772904212229631700,2.5766318359375,0.012343406677246,0.0067490637302398,0.0024448335170745,0.0007635809597559,-0.0001527161948615,0.0
1772904212248617200,2.5956171875,0.0053052902221679,0.0065502822399139,-0.011780634522438,0.0001527161948615,-0.0001527161948615,0.0
1772904212267602400,2.6146025390625,-0.0091028213500976,0.013384997844696,0.0165615081787109,-0.0004581485991366,0.0004581485991366,0.0
1772904212286588000,2.633587890625,-0.0114669799804687,0.0015591084957122,-0.0049948990345001,0.0007635809597559,-0.0001527161948615,0.0006108647794462
1772904212305573000,2.652572998046875,0.0122480392456054,0.0155915021896362,-0.0164946764707565,0.0007635809597559,0.0010690133785828,0.0
1772904212324558300,2.671558349609375,0.0212945938110351,-0.0013257563114166,-0.002189964056015,-0.0004581485991366,-0.0007635809597559,0.0006108647794462
1772904212343543800,2.690543701171875,0.0019254684448242,0.0080830156803131,-0.0042824894189834,-0.0004581485991366,0.0004581485991366,0.0
1772904212362529300,2.709529296875,0.0040969848632812,-0.0015086531639099,0.0051276832818984,0.0001527161948615,-0.0001527161948615,0.0
1772904212381514500,2.728514404296875,0.0089387893676757,-0.0037059485912323,-0.0066359639167785,-0.0004581485991366,-0.0001527161948615,-0.0012217295588925
1772904212400500000,2.7475,0.0042142868041992,-0.0222598314285278,0.0118648558855056,0.0001527161948615,0.0004581485991366,0.0006108647794462
1772904212419485200,2.766485107421875,0.0111322402954101,0.0132452249526977,-0.0047921240329742,0.0001527161948615,-0.0007635809597559,-0.0006108647794462
1772904212438470700,2.785470703125,-0.0008096694946289,0.0178286135196685,-0.0116969048976898,0.0007635809597559,-0.0001527161948615,0.0
1772904212457455900,2.804455810546875,-0.0054082870483398,-0.0108129680156707,0.0074200630187988,-0.0004581485991366,0.0010690133785828,-0.0012217295588925
1772904212476441300,2.82344140625,0.0135936737060546,-0.0224262177944183,-0.0046174973249435,0.0001527161948615,0.0004581485991366,0.0
1772904212495426600,2.842426513671875,-0.005563735961914,0.0159810483455657,0.0003475993871688,0.0001527161948615,0.0004581485991366,-0.0012217295588925
1772904212514412000,2.861412109375,-0.0125942230224609,-0.0055210590362548,-0.0019102692604064,0.0007635809597559,0.0004581485991366,0.0
1772904212533397200,2.880397216796875,0.0088434219360351,0.0038849115371704,0.0052361190319061,-0.0004581485991366,0.0010690133785828,0.0
1772904212552382700,2.8993828125,-0.0009803771972656,-0.0128643810749053,0.0048993527889251,0.0007635809597559,-0.0007635809597559,0.0
1772904212571368000,2.918367919921875,0.0014810562133789,-0.0031009912490844,0.0189661681652069,-0.0004581485991366,0.0004581485991366,-0.0006108647794462
1772904212590353400,2.937353515625,0.0015115737915039,-0.0078153908252716,-0.0023777484893798,0.0007635809597559,0.0004581485991366,0.0
1772904212609339000,2.9563388671875,0.0110340118408203,0.0065268576145172,0.0068193674087524,0.0007635809597559,0.0004581485991366,0.0
1772904212628324000,2.975323974609375,0.00372314453125,-0.0009360313415527,0.0158487856388092,0.0001527161948615,-0.0013744457392022,0.0
1772904212647309300,2.994309326171875,-0.0009527206420898,-0.0079767107963562,0.0155965834856033,-0.0004581485991366,-0.0001527161948615,-0.0006108647794462
1772904212666294800,3.013294677734375,0.0058259963989257,0.0131967663764953,0.0010879784822463,0.0001527161948615,0.0004581485991366,0.0
1772904212685280300,3.0322802734375,-0.0060157775878906,0.0131781101226806,0.0056940913200378,0.0001527161948615,0.0004581485991366,0.0
1772904212704265500,3.051265380859375,-0.0035810470581054,-0.0128358304500579,0.0099721103906631,0.0001527161948615,-0.0001527161948615,0.0006108647794462
1772904212723251000,3.0702509765625,0.0008516311645507,0.0038457512855529,-0.0016137212514877,0.0007635809597559,0.0010690133785828,0.0
1772904212742236200,3.089236083984375,0.0009002685546875,-0.0006265342235565,-0.0275647044181823,0.0001527161948615,-0.0001527161948615,0.0
1772904212761221400,3.108221435546875,-0.0130863189697265,0.0179748237133026,0.0177872478961944,0.0001527161948615,0.0010690133785828,0.0
1772904212780206800,3.127206787109375,0.0178947448730468,0.0060135722160339,-0.0132858008146286,0.0013744457392022,-0.0007635809597559,0.0
1772904212799192300,3.1461923828125,-0.0131235122680664,-0.0151970386505126,0.0083542764186859,0.0001527161948615,0.0010690133785828,0.0
1772904212818177500,3.165177490234375,0.0035018920898437,0.0039416551589965,0.0197440683841705,0.0001527161948615,-0.0007635809597559,0.0
1772904212837163000,3.1841630859375,0.0011138916015625,0.0038594901561737,-0.0063903331756591,0.0001527161948615,0.0004581485991366,0.0
1772904212856148200,3.203148193359375,-0.003666877746582,-0.0124552249908447,-0.0200704783201217,0.0001527161948615,-0.0001527161948615,0.0
1772904212875133700,3.2221337890625,0.003631591796875,0.0157670378684997,0.0085984170436859,0.0007635809597559,0.0004581485991366,0.0
1772904212894119000,3.241118896484375,-0.0151920318603515,-0.0034078955650329,0.0176213979721069,0.0007635809597559,0.0004581485991366,0.0006108647794462
1772904212913104400,3.2601044921875,-0.0008039474487304,0.0083027184009552,-0.0038193613290786,0.0007635809597559,-0.0001527161948615,0.0
1772904212932089600,3.279089599609375,-0.0100736618041992,-0.0127712190151214,-0.0084677189588546,0.0007635809597559,-0.0007635809597559,-0.0006108647794462
1772904212951075000,3.298074951171875,-0.0124473571777343,0.0107590556144714,0.0056714862585067,-0.0004581485991366,0.0004581485991366,0.0
1772904212970060500,3.317060546875,0.0110635757446289,-0.0150563120841979,-0.0011312365531921,0.0001527161948615,-0.0001527161948615,0.0
1772904212989045800,3.336045654296875,-0.0057363510131835,0.0205231010913848,-0.006004124879837,0.0007635809597559,-0.0007635809597559,-0.0006108647794462
1772904213008031200,3.35503125,-0.000885009765625,-0.0007978677749633,0.0198355764150619,0.0001527161948615,-0.0001527161948615,-0.0006108647794462
1772904213027016400,3.374016357421875,-0.0029335021972656,-0.0169421285390853,-0.0040273219347,-0.0004581485991366,0.0004581485991366,0.0
1772904213046002000,3.393001953125,-0.0027589797973632,0.0165047347545623,0.0055447667837142,0.0007635809597559,-0.0001527161948615,-0.0006108647794462
1772904213064987100,3.411987060546875,-0.005141258239746,-0.0001559555530548,-0.006099984049797,-0.0004581485991366,-0.0001527161948615,-0.0006108647794462
1772904213083972600,3.43097265625,-0.0097255706787109,-0.0070162415504455,0.0031169354915618,0.0001527161948615,-0.0001527161948615,-0.0012217295588925
1772904213102957800,3.449957763671875,0.0092630386352539,0.0191865265369415,0.0007711052894592,-0.0004581485991366,-0.0001527161948615,0.0
1772904213121943300,3.468943359375,-0.0120668411254882,0.0050294995307922,-0.01351298391819,0.0007635809597559,-0.0007635809597559,0.0
1772904213140928800,3.4879287109375,-0.002450942993164,0.0002043545246124,-0.0275081843137741,0.0001527161948615,-0.0001527161948615,0.0
1772904213159914000,3.5069140625,0.0046091079711914,-0.0066967606544494,-0.0010979920625686,0.0001527161948615,-0.0001527161948615,-0.0006108647794462
1772904213178899200,3.525899169921875,-0.009617805480957,-0.0068597793579101,-0.0080020874738693,0.0001527161948615,0.0004581485991366,0.0
1772904213197884700,3.544884765625,-0.0094585418701171,0.0072593688964843,-0.0007594674825668,-0.0004581485991366,-0.0007635809597559,0.0
1772904213216870100,3.5638701171875,-0.0021619796752929,0.0004627704620361,0.0227250903844833,0.0001527161948615,0.0004581485991366,0.0
1772904213235855400,3.58285546875,0.009749412536621,0.0004311800003051,-0.0035865008831024,0.0007635809597559,-0.0007635809597559,-0.0006108647794462
1772904213254840800,3.6018408203125,-0.0163803100585937,0.0239729583263397,-0.0057839453220367,-0.0004581485991366,-0.0007635809597559,0.0
1772904213273826000,3.620825927734375,-0.002150535583496,-0.0140472054481506,0.0131790190935134,0.0007635809597559,0.0004581485991366,0.0006108647794462
1772904213292811500,3.6398115234375,0.0001564025878906,0.0123476982116699,0.0220842510461807,-0.0004581485991366,-0.0001527161948615,0.0
1772904213311797000,3.658796875,-0.0141639709472656,0.0004951357841491,0.0051513761281967,0.0007635809597559,-0.0007635809597559,0.0
1772904213330782200,3.6777822265625,-0.0091886520385742,-0.0090048015117645,-0.009024754166603,0.0007635809597559,-0.0001527161948615,0.0
1772904213349767400,3.696767333984375,-0.0022172927856445,0.0007350742816925,0.0076552033424377,0.0007635809597559,-0.0001527161948615,0.0
1772904213368753000,3.7157529296875,-0.0045337677001953,0.0146605372428894,-0.009081944823265,0.0007635809597559,-0.0001527161948615,0.0
1772904213387738400,3.73473828125,0.0096902847290039,-0.0067779123783111,0.005176767706871,-0.0004581485991366,-0.0007635809597559,0.0
1772904213406723600,3.7537236328125,-0.0018072128295898,0.0054715871810913,0.0028232634067535,-0.0004581485991366,-0.0001527161948615,0.0
1772904213425709000,3.772708984375,0.0053062438964843,0.0032365918159484,-0.0018408894538879,0.0001527161948615,-0.0007635809597559,0.0
1772904213444694500,3.791694580078125,-0.0065088272094726,0.0149628818035125,-0.0156848430633544,0.0001527161948615,0.0010690133785828,0.0
1772904213463679700,3.8106796875,-0.0015897750854492,-0.0182321667671203,-0.0035275965929031,0.0007635809597559,-0.0007635809597559,0.0
1772904213482665200,3.829665283203125,-0.0016546249389648,0.0007289052009582,0.0107333213090896,0.0007635809597559,0.0004581485991366,0.0
1772904213501650400,3.848650390625,0.0078125,0.0100674927234649,-0.0014548748731613,0.0001527161948615,-0.0007635809597559,0.0
1772904213520636000,3.867635986328125,0.000615119934082,0.0145649015903472,-0.0058161616325378,0.0001527161948615,0.0004581485991366,0.0
1772904213539621000,3.88662109375,0.0003204345703125,-0.0046344399452209,-0.0103380531072616,0.0007635809597559,-0.0007635809597559,0.0006108647794462
1772904213558606600,3.905606689453125,-0.0114145278930664,-0.0092958807945251,-0.0007093548774719,0.0001527161948615,0.0010690133785828,0.0
1772904213577591800,3.924591796875,-0.0040979385375976,0.0095301270484924,-0.0076143443584442,0.0001527161948615,-0.0007635809597559,0.0
1772904213596577300,3.943577392578125,-0.0063962936401367,0.0094973742961883,-0.00530506670475,0.0007635809597559,-0.0001527161948615,0.0
1772904213615562800,3.962562744140625,0.0007181167602539,-0.0068491995334625,-0.0074554532766342,0.0007635809597559,-0.0001527161948615,0.0
1772904213634548000,3.9815478515625,-0.0014591217041015,0.0097585320472717,0.008955180644989,0.0007635809597559,0.0016798780998215,0.0006108647794462
1772904213653533400,4.000533447265625,0.0009441375732421,0.0095831453800201,0.0016847401857376,0.0001527161948615,-0.0001527161948615,0.0006108647794462
1772904213672518700,4.0195185546875,-0.0011663436889648,0.0213894844055175,0.0016619265079498,0.0007635809597559,0.0004581485991366,0.0
1772904213691504000,4.038504150390625,0.0085220336914062,-0.0167050659656524,-0.0005491226911544,0.0001527161948615,0.0004581485991366,0.0
1772904213710489600,4.057489501953125,-0.0056447982788085,5.3644180297e-06,-0.0143067836761474,0.0007635809597559,0.0004581485991366,-0.0006108647794462
1772904213729474800,4.076474853515625,-0.0125579833984375,-0.0117125213146209,0.0307656228542327,0.0001527161948615,-0.0007635809597559,0.0
1772904213748460300,4.095460205078125,0.0065631866455078,0.0002498626708984,-0.0073996931314468,0.0007635809597559,0.0004581485991366,0.0
1772904213767445500,4.114445556640625,0.0230522155761718,-0.0044587850570678,-0.0100086331367492,0.0007635809597559,-0.0001527161948615,0.0
1772904213786431000,4.133430908203125,0.0108356475830078,0.0005754232406616,-0.0050954073667526,0.0007635809597559,-0.0001527161948615,-0.0006108647794462
1772904213805416200,4.152416259765625,0.0202016830444335,-0.0018125772476196,-0.0191568434238433,0.0001527161948615,0.0004581485991366,0.0
1772904213824401700,4.171401611328125,-0.0035638809204101,0.0076102018356323,-0.0166465193033218,0.0001527161948615,-0.0007635809597559,0.0006108647794462
1772904213843387000,4.190386962890625,0.0106735229492187,-0.0017089247703552,0.0189694911241531,0.0001527161948615,0.0004581485991366,0.0
1772904213862372400,4.209372314453125,0.003340721130371,0.0098629891872406,0.0001358389854431,0.0007635809597559,-0.0001527161948615,-0.0006108647794462
1772904213881357800,4.22835791015625,0.0010356903076171,-0.0114760100841522,-0.0019808709621429,0.0007635809597559,0.0004581485991366,0.0
1772904213900343000,4.247343017578125,-0.0012712478637695,0.0052050650119781,0.0144292712211608,0.0007635809597559,-0.0007635809597559,0.0006108647794462
1772904213919328500,4.26632861328125,0.00347900390625,0.0025678873062133,-0.0020882189273834,0.0007635809597559,0.0010690133785828,0.0
1772904213938314000,4.28531396484375,-0.001382827758789,0.0002719461917877,-0.0182432532310485,0.0001527161948615,-0.0007635809597559,0.0
1772904213957299200,4.30429931640625,-0.010787010192871,-0.0182957351207733,0.010467916727066,-0.0004581485991366,0.0004581485991366,0.0006108647794462
1772904213976284700,4.32328466796875,0.0012979507446289,0.0215946435928344,0.0076980143785476,-0.0004581485991366,-0.0001527161948615,0.0006108647794462
1772904213995270000,4.342269775390625,-0.0105085372924804,4.11570072174e-05,0.0192528963088989,0.0007635809597559,0.0004581485991366,0.0
1772904214014255400,4.36125537109375,0.0038776397705078,-0.0161854475736618,0.0022942870855331,-0.0004581485991366,-0.0007635809597559,0.0
1772904214033240800,4.38024072265625,-0.0080175399780273,-0.0016830265522003,0.0094849616289138,0.0007635809597559,0.0004581485991366,0.0
1772904214052226000,4.39922607421875,0.0037393569946289,0.0028346478939056,-0.0099356323480606,0.0001527161948615,-0.0001527161948615,0.0006108647794462
1772904214071211500,4.41821142578125,0.0012979507446289,-0.0087849795818328,0.011306956410408,-0.0004581485991366,-0.0001527161948615,-0.0012217295588925
1772904214090196700,4.43719677734375,-0.0057239532470703,-0.0106054246425628,0.0134499222040176,0.0001527161948615,0.0004581485991366,0.0006108647794462
1772904214109182200,4.45618212890625,0.0084667205810546,-0.0057764947414398,-0.0008865594863891,-0.0004581485991366,0.0004581485991366,0.0
1772904214128167400,4.47516748046875,-0.003692626953125,0.0201084911823272,0.0013282448053359,0.0007635809597559,-0.0001527161948615,0.0
1772904214147153000,4.49415283203125,0.0106229782104492,0.017471045255661,-0.017664149403572,0.0007635809597559,-0.0001527161948615,0.0006108647794462
1772904214166138400,4.513138427734375,-0.0013284683227539,0.009903460741043,-0.0032746344804763,0.0001527161948615,0.0010690133785828,0.0006108647794462
1772904214185123600,4.53212353515625,-0.0082626342773437,-0.0090404450893402,0.0135109424591064,0.0007635809597559,-0.0001527161948615,0.0012217295588925
1772904214204109000,4.551109130859375,-0.0009317398071289,0.0053849518299102,-0.0055276900529861,0.0001527161948615,-0.0007635809597559,0.0
1772904214223094500,4.570094482421875,-0.0054893493652343,0.0054096281528472,-0.0031372606754302,0.0007635809597559,0.0004581485991366,0.0
1772904214242079700,4.589079833984375,-0.0029182434082031,0.0030599236488342,-0.0009027868509292,0.0007635809597559,0.0004581485991366,-0.0006108647794462
1772904214261065200,4.608065185546875,0.0114479064941406,0.0101822316646575,0.0131836831569671,0.0007635809597559,-0.0007635809597559,0.0
1772904214280050400,4.627050537109375,0.0063238143920898,0.0122467279434204,0.0177429169416427,0.0001527161948615,0.0004581485991366,0.0
1772904214299036000,4.646035888671875,0.0015640258789062,0.0073346495628356,0.0194780528545379,-0.0004581485991366,0.0010690133785828,-0.0006108647794462
1772904214318021400,4.665021484375,-0.0079755783081054,-0.004507839679718,-0.0136304199695587,0.0001527161948615,-0.0001527161948615,0.0
1772904214337006600,4.684006591796875,-0.000619888305664,-0.0088814795017242,-0.0064332634210586,-0.0004581485991366,-0.0013744457392022,-0.0006108647794462
1772904214355992000,4.702991943359375,-0.0004425048828125,0.007964551448822,0.0101392269134521,0.0007635809597559,0.0004581485991366,-0.0012217295588925
1772904214374977500,4.7219775390625,0.0136919021606445,0.0057067275047302,0.0076903700828552,0.0007635809597559,0.0004581485991366,0.0
1772904214393962800,4.740962646484375,-0.005385398864746,0.0055072605609893,0.0075025558471679,0.0007635809597559,-0.0001527161948615,0.0006108647794462
1772904214412948200,4.7599482421875,0.0064363479614257,0.0219779312610626,0.0240519940853118,0.0001527161948615,0.0004581485991366,-0.0006108647794462
1772904214431933400,4.778933349609375,0.015594482421875,0.0048618018627166,0.0072246342897415,0.0001527161948615,0.0004581485991366,-0.0006108647794462
1772904214450919000,4.7979189453125,0.008371353149414,-0.006878525018692,-9.78112220764e-05,0.0007635809597559,-0.0007635809597559,0.0
1772904214469904400,4.816904296875,-0.0056705474853515,-0.011665254831314,0.0068766325712203,0.0007635809597559,-0.0013744457392022,0.0
1772904214488889600,4.8358896484375,-0.0103073120117187,-0.0091542303562164,0.0018388777971267,0.0007635809597559,0.0004581485991366,0.0
1772904214507875000,4.854875,0.0112867355346679,-0.009261131286621,-0.0170038044452667,0.0007635809597559,0.0004581485991366,-0.0006108647794462
1772904214526860500,4.873860595703125,0.006439208984375,-0.00643852353096,-0.0122854113578796,0.0001527161948615,-0.0007635809597559,0.0
1772904214545845800,4.892845703125,-0.000868797302246,-0.0205316245555877,0.0160274505615234,0.0001527161948615,0.0010690133785828,0.0
1772904214564831200,4.911831298828125,-0.0008792877197265,0.0174642205238342,0.0016584396362304,0.0007635809597559,0.0004581485991366,-0.0006108647794462
1772904214583816700,4.930816650390625,-0.0032825469970703,-0.0039288401603698,-0.0078143626451492,0.0001527161948615,-0.0013744457392022,0.0
1772904214602802000,4.949802001953125,0.0132198333740234,0.0055091381072998,-0.0075037032365798,0.0001527161948615,0.0004581485991366,0.0
1772904214621787400,4.968787353515625,-0.0079565048217773,-0.0063691139221191,0.0115680545568466,0.0001527161948615,0.0010690133785828,0.0
1772904214640772600,4.987772705078125,0.001443862915039,-0.0067174732685089,-0.0121369659900665,0.0001527161948615,-0.0001527161948615,0.0
1772904214659758000,5.006758056640625,-0.000955581665039,-0.0089974701404571,0.0069203674793243,0.0007635809597559,-0.0001527161948615,0.0
1772904214678743600,5.02574365234375,-0.0150032043457031,0.0101489126682281,0.0067052841186523,0.0001527161948615,-0.0001527161948615,0.0
1772904214697728800,5.044728759765625,0.0016908645629882,0.0098604261875152,0.0066247433423995,0.0001527161948615,0.0004581485991366,0.0
1772904214716714200,5.06371435546875,0.0016326904296875,0.0097383558750152,-0.0051279664039611,0.0001527161948615,-0.0001527161948615,0.0
1772904214735699700,5.08269970703125,-0.0242671966552734,-0.0093415081501007,0.0141541808843612,0.0001527161948615,0.0004581485991366,-0.0006108647794462
1772904214754685000,5.101684814453125,-0.0053052902221679,0.0051722824573516,-0.0094260424375534,0.0001527161948615,0.0004581485991366,0.0
1772904214773670400,5.12067041015625,-0.0004634857177734,0.0027311444282531,0.0096940547227859,0.0013744457392022,-0.0001527161948615,0.0
1772904214792656000,5.13965576171875,0.0159788131713867,0.0029548704624176,-0.0139897614717483,0.0007635809597559,-0.0001527161948615,-0.0006108647794462
1772904214811641000,5.15864111328125,-0.0054101943969726,-0.0018420815467834,-0.0067550390958786,0.0007635809597559,-0.0001527161948615,0.0
1772904214830626600,5.17762646484375,-0.0030403137207031,-0.0112493932247161,0.0004796087741851,0.0007635809597559,-0.0007635809597559,0.0
1772904214849611800,5.19661181640625,-0.0055274963378906,-0.008612722158432,-0.0136983543634414,-0.0004581485991366,-0.0007635809597559,0.0006108647794462
1772904214868597200,5.21559716796875,0.0015172958374023,-0.0041241943836212,0.0076477825641632,0.0007635809597559,0.0010690133785828,0.0
1772904214887582700,5.234582763671875,0.008528709411621,0.009805291891098,0.0052591264247894,0.0001527161948615,-0.0001527161948615,0.0006108647794462
1772904214906568000,5.25356787109375,-0.003122329711914,0.0167097449302673,-0.0063942074775695,0.0001527161948615,-0.0001527161948615,0.0
1772904214925553400,5.272553466796875,0.0063142776489257,-0.0190755128860473,-0.0109240263700485,0.0001527161948615,0.0004581485991366,0.0
1772904214944539000,5.291538818359375,0.0015602111816406,0.0071161091327667,-0.008262500166893,-0.0004581485991366,0.0010690133785828,0.0
1772904214963524000,5.310524169921875,0.004098892211914,-0.0005364716053009,-0.0013067722320556,0.0007635809597559,-0.0007635809597559,0.0012217295588925
1772904214982509600,5.329509521484375,0.0040054321289062,0.01348677277565,0.0220746546983718,0.0007635809597559,0.0010690133785828,0.0
1772904215001495000,5.3484951171875,0.0039129257202148,-0.0198730528354644,0.0006255060434341,0.0007635809597559,-0.0001527161948615,0.0006108647794462
1772904215020480300,5.367480224609375,0.0014686584472656,0.0111248791217803,0.0029112547636032,0.0001527161948615,-0.0001527161948615,0.0006108647794462
1772904215039465700,5.3864658203125,0.001617431640625,0.0062931478023529,0.024153783917427,0.0007635809597559,0.0004581485991366,0.0
1772904215058451000,5.405450927734375,0.0083541870117187,-0.0056473016738891,-0.0066988915205001,0.0007635809597559,-0.0001527161948615,0.0006108647794462
1772904215077436400,5.4244365234375,-0.010629653930664,-0.0031162500381469,-0.0090467780828475,0.0001527161948615,-0.0007635809597559,0.0006108647794462
1772904215096422000,5.443421875,-0.0008268356323242,0.0108998417854309,0.0240120291709899,-0.0004581485991366,0.0004581485991366,0.0006108647794462
1772904215115407000,5.462406982421875,0.0154380798339843,-0.0128633081912994,0.0094227790832519,0.0001527161948615,0.0004581485991366,0.0
1772904215134392600,5.481392578125,0.0057086944580078,-0.00741708278656,-0.0072526931762695,0.0001527161948615,0.0004581485991366,-0.0006108647794462
1772904215153378000,5.5003779296875,-0.0062017440795898,0.0070536732673645,0.0121704638004302,0.0007635809597559,0.0004581485991366,0.0006108647794462
1772904215172363300,5.51936328125,-0.0014848709106445,-0.0022470653057098,0.0005201995372772,0.0001527161948615,0.0004581485991366,0.0
1772904215191348700,5.5383486328125,-0.0014352798461914,0.0192043185234069,0.0053697228431701,0.0007635809597559,0.0004581485991366,0.0006108647794462
1772904215210334200,5.557334228515625,-0.006291389465332,0.0023788809776306,-0.0084238946437835,0.0007635809597559,-0.0007635809597559,0.0
1772904215229319400,5.5763193359375,-0.0013790130615234,0.0022894144058227,-0.0085042119026184,0.0007635809597559,-0.0001527161948615,0.0006108647794462
1772904215248305000,5.595304931640625,-0.013136863708496,-0.0020376145839691,-0.00128173828125,0.0001527161948615,0.0010690133785828,0.0
1772904215267290400,5.614290283203125,0.0086336135864257,0.0004555284976959,-0.0083606839179992,0.0007635809597559,-0.0007635809597559,0.0012217295588925
1772904215286275600,5.633275634765625,0.0060768127441406,0.0234893858432769,0.0083699375391006,0.0007635809597559,0.0010690133785828,0.0
1772904215305261000,5.652260986328125,0.0038022994995117,-0.0101544260978698,0.0060812681913375,0.0001527161948615,-0.0001527161948615,0.0006108647794462
1772904215324246500,5.67124658203125,-0.0010633468627929,0.0065462589263916,0.0012204945087432,0.0007635809597559,0.0004581485991366,0.0012217295588925
1772904215343231700,5.690231689453125,0.0012845993041992,0.0182036757469177,0.0012548267841339,-0.0004581485991366,-0.0007635809597559,0.0006108647794462
1772904215362217200,5.70921728515625,-0.0057754516601562,-0.0127028822898864,0.0178318172693252,-0.0004581485991366,-0.0001527161948615,0.0
1772904215381202700,5.72820263671875,-0.0173902511596679,-0.0192959606647491,-0.0063949674367904,0.0007635809597559,-0.0007635809597559,0.0
1772904215400188200,5.747188232421875,-0.0077571868896484,-0.0002974569797515,-0.0015056580305099,0.0007635809597559,-0.0007635809597559,0.0
1772904215419173400,5.76617333984375,0.0087337493896484,0.0093443393707275,-0.0013275891542434,0.0007635809597559,-0.0001527161948615,-0.0006108647794462
1772904215438158800,5.785158935546875,0.0039739608764648,-0.0236604213714599,-0.0035264790058135,-0.0004581485991366,-0.0001527161948615,0.0
1772904215457144300,5.804144287109375,-0.0053701400756835,0.0002490580081939,-0.0009111762046813,0.0001527161948615,0.0004581485991366,0.0
1772904215476129500,5.823129638671875,-0.0004463195800781,0.0020226836204528,-0.0059404820203781,0.0013744457392022,-0.0007635809597559,0.0012217295588925
1772904215495115000,5.842114990234375,0.0089035034179687,-0.0167053788900375,0.0034590065479278,0.0007635809597559,0.0004581485991366,0.0
1772904215514100200,5.861100341796875,0.0061492919921875,-0.0046696960926055,-0.0292501598596572,0.0007635809597559,0.0016798780998215,0.0012217295588925
1772904215533085700,5.880085693359375,-0.0011548995971679,0.0191798508167266,-0.0213624089956283,0.0001527161948615,-0.0007635809597559,0.0
1772904215552071200,5.8990712890625,0.0035457611083984,0.007024198770523,0.0074395984411239,0.0007635809597559,-0.0007635809597559,0.0
1772904215571056400,5.918056396484375,0.0009164810180664,0.0021494030952453,0.0236182957887649,0.0007635809597559,-0.0007635809597559,-0.0006108647794462
1772904215590041900,5.937041748046875,0.0008888244628906,0.0303760468959808,-0.002595767378807,0.0001527161948615,0.0016798780998215,0.0
1772904215609027300,5.95602734375,0.0030527114868164,0.003811091184616,-0.0234912931919097,-0.0004581485991366,-0.0019853105768561,0.0
1772904215628012500,5.975012451171875,-0.0207777023315429,0.0017343759536743,0.0285232663154602,-0.0004581485991366,0.0004581485991366,0.0
1772904215646998000,5.993998046875,-0.0038099288940429,0.0064082145690917,0.0279288589954376,0.0001527161948615,0.0010690133785828,-0.0006108647794462
1772904215665983500,6.0129833984375,-0.0086650848388671,0.0084417760372161,-0.0265477448701858,-0.0010690133785828,-0.0001527161948615,0.0
1772904215684969000,6.031968994140625,-0.0038709640502929,-0.0711628794670105,-0.0115979611873626,0.0001527161948615,-0.0013744457392022,0.0
1772904215703954200,6.0509541015625,0.0009670257568359,0.0014770030975341,0.0520317107439041,-0.0004581485991366,0.0010690133785828,0.0006108647794462
1772904215722939600,6.069939697265625,0.0125865936279296,0.0573334693908691,0.0062887072563171,0.0007635809597559,0.0016798780998215,-0.0006108647794462
1772904215741925000,6.088925048828125,0.0169506072998046,0.0017153024673461,-0.0006695091724395,-0.0004581485991366,-0.0007635809597559,-0.0006108647794462
1772904215760910300,6.107910400390625,-0.0043554306030273,-0.0685202181339263,0.0040254294872283,0.0007635809597559,-0.0013744457392022,0.0018325943965464
1772904215779895800,6.126895751953125,-0.0016546249389648,0.0453602075576782,0.0276704728603363,0.0001527161948615,0.002901607658714,-0.0006108647794462
1772904215798881300,6.14588134765625,0.0053443908691406,-0.0122915804386138,-0.0103279501199722,0.0007635809597559,0.0004581485991366,0.0006108647794462
1772904215817866500,6.164866455078125,-0.0111875534057617,-0.016364574432373,-0.0169887244701385,-0.0004581485991366,-0.0007635809597559,0.0
1772904215836852000,6.18385205078125,-0.0181503295898437,0.0257329940795898,0.0092135369777679,0.0007635809597559,0.0004581485991366,0.0006108647794462
1772904215855837400,6.20283740234375,-0.0086021423339843,-0.0106238722801208,-0.0185915231704711,0.0001527161948615,0.0022907429374754,0.0
1772904215874822700,6.22182275390625,0.015089988708496,-0.017200693488121,-0.0252043008804321,-0.0004581485991366,-0.0032070400193333,0.0012217295588925
1772904215893808000,6.24080810546875,0.0054502487182617,0.0511415302753448,0.0411399155855178,-0.0004581485991366,0.0004581485991366,0.0
1772904215912793600,6.259793701171875,0.0051136016845703,-0.0138354003429412,0.0188283026218414,0.0001527161948615,-0.0001527161948615,0.0
1772904215931779000,6.278779052734375,0.0074234008789062,-0.0391524732112884,-0.0094829499721527,-0.0004581485991366,0.0022907429374754,0.0006108647794462
1772904215950764300,6.297764404296875,0.0073699951171875,0.0112072229385375,0.0003182142972946,0.0007635809597559,-0.0019853105768561,0.0
1772904215969749800,6.316749755859375,0.0121049880981445,0.005998283624649,0.019005924463272,0.0001527161948615,0.0016798780998215,0.0
1772904215988735200,6.3357353515625,0.0048856735229492,-0.0546802878379821,-0.0052303373813629,-0.0004581485991366,-0.0001527161948615,0.0006108647794462
1772904216007720400,6.354720458984375,0.0046424865722656,0.0219039320945739,-0.0263264626264572,0.0001527161948615,-0.0007635809597559,0.0
1772904216026706000,6.373705810546875,-0.0022974014282226,0.0139859914779663,0.0210839658975601,0.0013744457392022,-0.0001527161948615,-0.0006108647794462
1772904216045691400,6.39269140625,0.000136375427246,-0.0188401043415069,-0.0027882903814315,0.0001527161948615,0.0016798780998215,0.0006108647794462
1772904216064676600,6.411676513671875,0.0048427581787109,0.0095798373222351,-0.0047880858182907,0.0013744457392022,-0.0001527161948615,0.0012217295588925
1772904216083662000,6.430662109375,0.0022869110107421,0.0327774584293365,-0.0137336701154708,0.0001527161948615,-0.0001527161948615,-0.0006108647794462
1772904216102647600,6.4496474609375,-0.0143766403198242,-0.0290695875883102,0.0170983672142028,0.0013744457392022,0.0004581485991366,0.0
1772904216121632800,6.4686328125,-0.0047969818115234,0.0091961920261383,-0.0182906985282897,0.0007635809597559,0.0016798780998215,0.0006108647794462
1772904216140618200,6.4876181640625,-0.0118961334228515,0.0207419395446777,-0.0250838249921798,0.0007635809597559,-0.0019853105768561,0.0
1772904216159603700,6.506603759765625,-0.0023670196533203,-0.0011714100837707,-0.0106706917285919,0.0007635809597559,-0.0001527161948615,0.0006108647794462
1772904216178589200,6.525589111328125,0.0049676895141601,-0.0127110481262207,0.0153743028640747,0.0007635809597559,-0.0001527161948615,0.0006108647794462
1772904216197574400,6.544574462890625,-0.0001020431518554,0.0346340537071228,-0.0063961595296859,0.0007635809597559,-0.0001527161948615,-0.0006108647794462
1772904216216559900,6.563559814453125,0.0091171264648437,-0.0156818628311157,0.0100205093622207,0.0013744457392022,-0.0001527161948615,0.0
1772904216235545300,6.58254541015625,-0.0122032165527343,-0.0078223645687103,0.0122122317552566,-0.0004581485991366,0.0004581485991366,0.0
1772904216254530600,6.601530517578125,-0.0072517395019531,0.0110856592655181,0.0188713073730468,0.0007635809597559,0.0004581485991366,0.0
1772904216273516000,6.62051611328125,0.0093765258789062,0.0228446722030639,-0.0095781981945037,0.0001527161948615,-0.0007635809597559,0.0
1772904216292501500,6.63950146484375,0.0045557022094726,-0.0035128593444824,0.0046299248933792,0.0007635809597559,-0.0001527161948615,0.0
1772904216311486700,6.65848681640625,0.0069189071655273,0.0274322628974914,-0.0214615762233734,0.0007635809597559,0.0016798780998215,0.0
1772904216330472200,6.67747216796875,-0.0004529953002929,-0.0111365616321563,-0.0144612044095993,0.0007635809597559,-0.0013744457392022,0.0
1772904216349457700,6.696457763671875,0.0113601684570312,-0.0059033334255218,0.0136807411909103,0.0001527161948615,-0.0001527161948615,-0.0012217295588925
1772904216368443100,6.715443115234375,-0.0005435943603515,-0.02454374730587,0.0061169415712356,0.0007635809597559,-0.0001527161948615,0.0006108647794462
1772904216387428400,6.734428466796875,0.0041046142578125,0.0133864879608154,-0.0171294063329696,0.0007635809597559,0.0016798780998215,0.0
1772904216406413800,6.753413818359375,0.0016918182373046,-0.0127891302108764,-0.0213469862937927,0.0001527161948615,-0.0019853105768561,0.0
1772904216425399300,6.7723994140625,-0.0079002380371093,0.0246011614799499,0.0164817720651626,0.0001527161948615,-0.0007635809597559,-0.0006108647794462
1772904216444384500,6.791384521484375,-0.0169668197631835,-0.0462827086448669,0.034818947315216,-0.0004581485991366,0.0016798780998215,0.0
1772904216463370000,6.810369873046875,-0.0143651962280273,-0.0055077970027923,0.0010686665773391,0.0001527161948615,0.0004581485991366,0.0
1772904216482355500,6.82935546875,0.0095148086547851,-0.0054367184638977,-0.0108051747083663,0.0001527161948615,-0.0013744457392022,0.0
1772904216501341000,6.8483408203125,-0.007267951965332,-0.0197232961654663,0.0058908611536026,0.0013744457392022,0.0004581485991366,0.0
1772904216520326400,6.867326416015625,-0.0190229415893554,-0.0192349255084991,0.005425602197647,0.0001527161948615,0.0004581485991366,0.0012217295588925
1772904216539311600,6.8863115234375,0.0052146911621093,0.0300652384757995,-0.016108289361,-0.0004581485991366,-0.0013744457392022,0.0006108647794462
1772904216558297000,6.905297119140625,0.0049209594726562,-0.0059349834918975,0.0332946181297302,-0.0004581485991366,-0.0013744457392022,0.0012217295588925
1772904216577282300,6.9242822265625,-0.0069570541381835,0.0013307631015777,0.0115042924880981,0.0007635809597559,0.0016798780998215,0.0006108647794462
1772904216596267800,6.943267822265625,0.0023698806762695,0.012804239988327,-0.0217470526695251,0.0013744457392022,-0.0007635809597559,0.0006108647794462
1772904216615253200,6.962253173828125,-0.0022945404052734,-0.0271821320056915,-0.0025144815444946,0.0007635809597559,0.0004581485991366,0.0
1772904216634238700,6.98123876953125,-1.90734863281e-05,-0.0264700651168823,0.0021985620260238,0.0007635809597559,0.0004581485991366,0.0006108647794462
1772904216653224000,7.000223876953125,0.0045299530029296,0.0373931527137756,-0.0139394104480743,0.0001527161948615,0.0004581485991366,0.0
1772904216672209400,7.01920947265625,0.0186529159545898,-0.0037589967250823,-0.0019749999046325,0.0013744457392022,-0.0013744457392022,0.0
1772904216691195000,7.03819482421875,-0.0027856826782226,0.0080569982528686,0.0098206400871276,0.0007635809597559,0.0010690133785828,0.0
1772904216710180400,7.057180419921875,0.0018987655639648,0.024386703968048,0.0074750483036041,-0.0004581485991366,0.0010690133785828,0.0
1772904216729165600,7.07616552734375,-0.0030288696289062,-0.0088996887207031,0.0002300590276718,0.0001527161948615,-0.0019853105768561,0.0006108647794462
1772904216748151000,7.095151123046875,-0.0004596710205078,-0.0179333090782165,0.0095441192388534,0.0007635809597559,0.0010690133785828,0.0
1772904216767136500,7.114136474609375,0.0090494155883789,0.0272140502929687,0.0022304058074951,0.0007635809597559,0.0010690133785828,0.0
1772904216786121700,7.133121826171875,0.0064754486083984,-0.0109927058219909,-0.0029501914978027,0.0007635809597559,-0.0001527161948615,0.0006108647794462
1772904216805107200,7.152107177734375,0.0182218551635742,-0.0104234516620635,0.0133185535669326,0.0007635809597559,-0.0007635809597559,0.0012217295588925
1772904216824092700,7.1710927734375,-0.0055160522460937,0.045715183019638,-0.0131337195634841,0.0001527161948615,-0.0001527161948615,0.0
1772904216843078100,7.190078125,0.0109376907348632,0.0232012569904327,-0.0103819221258163,0.0007635809597559,0.0004581485991366,-0.0006108647794462
1772904216862063400,7.2090634765625,-0.010563850402832,-0.0259892642498016,-0.0217652469873428,0.0001527161948615,-0.0019853105768561,0.0
1772904216881048800,7.228048828125,-0.0033149719238281,-0.0039089620113372,0.0137538760900497,0.0007635809597559,-0.0001527161948615,0.0
1772904216900034300,7.247034423828125,-0.0507316589355468,0.0101029276847839,0.0183515548706054,0.0007635809597559,0.0016798780998215,-0.0006108647794462
1772904216919019500,7.26601953125,0.0250577926635742,-0.0253071784973144,0.0015451908111572,0.0007635809597559,-0.0007635809597559,-0.0006108647794462
1772904216938005000,7.2850048828125,0.0228614807128906,0.0107673108577728,0.0087430626153945,0.0007635809597559,0.0010690133785828,0.0006108647794462
1772904216956990500,7.303990478515625,0.0367689132690429,0.0126666724681854,-0.0196899771690368,0.0013744457392022,-0.0007635809597559,0.0006108647794462
1772904216975976000,7.322975830078125,0.0224533081054687,-0.0367091000080108,0.0204641968011856,0.0007635809597559,0.0004581485991366,0.0006108647794462
1772904216994961200,7.341961181640625,0.0082616806030273,0.0019216537475585,0.0080671310424804,0.0007635809597559,0.0010690133785828,0.0
1772904217013946600,7.360946533203125,0.0083017349243164,0.0483909249305725,0.002978965640068,0.0013744457392022,-0.0007635809597559,-0.0006108647794462
1772904217032932000,7.37993212890625,-0.0015449523925781,-0.0136715173721313,-0.0205139070749282,0.0007635809597559,-0.0007635809597559,0.0
1772904217051917300,7.398917236328125,-0.0156898498535156,0.0100658237934112,0.0058616995811462,0.0001527161948615,-0.0007635809597559,0.0
1772904217070902800,7.41790283203125,-0.0063438415527343,0.0192689597606658,0.0200205743312835,0.0007635809597559,0.0016798780998215,-0.0006108647794462
1772904217089888300,7.43688818359375,0.0010061264038085,-0.0141215920448303,0.003285989165306,-0.0004581485991366,-0.0013744457392022,0.0006108647794462
1772904217108873700,7.455873779296875,-0.003697395324707,0.0166490077972412,-0.0037417560815811,0.0007635809597559,-0.0007635809597559,0.0
1772904217127859200,7.474859130859375,0.0128984451293945,-0.00485759973526,-0.0154671519994735,0.0001527161948615,0.0010690133785828,-0.0006108647794462
1772904217146844400,7.493844482421875,0.0010204315185546,-0.0119867622852325,-0.0152010321617126,0.0013744457392022,-0.0007635809597559,0.0
1772904217165830000,7.512829833984375,0.0106735229492187,-0.0117189586162567,-0.0032770633697509,0.0001527161948615,-0.0007635809597559,0.0006108647794462
1772904217184815400,7.5318154296875,0.0011405944824218,0.0190620720386505,0.0037613660097122,0.0001527161948615,0.0004581485991366,-0.0006108647794462
1772904217203800800,7.55080078125,0.0152225494384765,-0.0026168525218963,-0.0127843916416168,-0.0004581485991366,0.0004581485991366,0.0
1772904217222786000,7.5697861328125,-0.0037965774536132,-0.0094853043556213,-0.0007690489292144,0.0001527161948615,-0.0013744457392022,0.0
1772904217241771500,7.588771484375,-0.003753662109375,0.0093077719211578,0.0011968612670898,-0.0004581485991366,-0.0007635809597559,0.0
1772904217260757000,7.607757080078125,0.0056638717651367,-0.0002885162830352,0.0010889321565628,0.0007635809597559,0.0004581485991366,0.0
1772904217279742200,7.6267421875,0.0101833343505859,-0.0074301660060882,0.0015460848808288,-0.0004581485991366,-0.0001527161948615,-0.0006108647794462
1772904217298727700,7.645727783203125,-0.0182352066040039,0.0068819820880889,0.0083163529634475,0.0007635809597559,-0.0007635809597559,0.0006108647794462
1772904217317713200,7.664713134765625,0.0030755996704101,-0.0024534463882446,-0.0059139430522918,0.0007635809597559,0.0004581485991366,0.0
1772904217336698600,7.68369873046875,0.0055208206176757,-0.0073057413101196,0.01074780523777,-0.0004581485991366,-0.0001527161948615,0.0
1772904217355684000,7.70268408203125,-0.0039958953857421,0.0166031122207641,-0.0154246389865875,-0.0004581485991366,0.0010690133785828,-0.0006108647794462
1772904217374669300,7.72166943359375,0.0077457427978515,-0.014054387807846,-0.024263247847557,-0.0004581485991366,-0.0001527161948615,0.0
1772904217393654800,7.74065478515625,0.0052080154418945,-0.0017518401145935,-0.0119947642087936,-0.0016798780998215,-0.0032070400193333,0.0006108647794462
1772904217412640300,7.75964013671875,0.000441551208496,0.0336483120918273,0.053431749343872,0.0007635809597559,0.0004581485991366,0.0
1772904217431625700,7.778625732421875,0.0052642822265625,-0.0210486054420471,0.002872809767723,0.0007635809597559,0.0047342018224298,0.0
1772904217450611000,7.79761083984375,0.0194053649902343,-0.0038932561874389,-0.0439042598009109,0.0007635809597559,-0.0013744457392022,0.0
1772904217469596400,7.816596435546875,-0.011444091796875,0.0197128653526306,0.0130717605352401,0.0001527161948615,-0.0025961752980947,-0.0006108647794462
1772904217488582000,7.835581787109375,-0.0160808563232421,-0.0276194065809249,0.0269518047571182,0.0007635809597559,0.002901607658714,-0.0006108647794462
1772904217507567000,7.854567138671875,0.0123777389526367,-0.0052095353603363,-0.0227510929107666,0.0001527161948615,0.0016798780998215,0.0
1772904217526552600,7.873552490234375,0.0001602172851562,0.0299714803695678,-0.0288581699132919,0.0007635809597559,-0.0019853105768561,0.0006108647794462
1772904217545538000,7.8925380859375,0.0094871520996093,0.0030080080032348,0.0209747850894927,0.0007635809597559,0.0004581485991366,0.0006108647794462
1772904217564523500,7.9115234375,-0.0233268737792968,-0.0204749703407287,-0.0052204430103302,0.0007635809597559,0.0022907429374754,0.0
1772904217583509000,7.930509033203125,0.0051326751708984,0.0036202669143676,-0.0047296583652496,0.0007635809597559,-0.0001527161948615,0.0
1772904217602494200,7.949494140625,0.0146799087524414,0.0175652503967285,0.0281009376049041,0.0001527161948615,-0.0013744457392022,0.0
1772904217621479700,7.968479736328125,0.0076475143432617,-0.0442264676094055,0.0273347347974777,0.0007635809597559,0.0016798780998215,0.0006108647794462
1772904217640465200,7.987465087890625,-0.006561279296875,0.0228347778320312,-0.0294096767902374,0.0001527161948615,0.0004581485991366,0.0006108647794462
1772904217659450600,8.00645068359375,-0.0160036087036132,0.0153449177742004,-0.0102403163909912,-0.0004581485991366,-0.0038179049734026,0.0
1772904217678435800,8.025435791015624,-0.0018243789672851,0.0194903910160064,0.0182360410690307,-0.0004581485991366,0.0022907429374754,-0.0006108647794462
1772904217697421300,8.04442138671875,-0.0182342529296875,-0.0344765186309814,-0.0014514178037643,0.0013744457392022,-0.0013744457392022,0.0006108647794462
1772904217716406800,8.06340673828125,-0.0086078643798828,0.0273530483245849,-0.029033675789833,-0.0004581485991366,0.0010690133785828,0.0
1772904217735392000,8.08239208984375,0.0078639984130859,0.0122277438640594,0.0017253309488296,0.0001527161948615,-0.0025961752980947,0.0006108647794462
1772904217754377700,8.101377685546876,-0.0107040405273437,-0.0019801259040832,0.0114798247814178,0.0013744457392022,0.0041233371011912,-0.0006108647794462
1772904217773363000,8.120363037109374,0.0106325149536132,0.0051735341548919,-0.0240115970373153,0.0001527161948615,-0.0013744457392022,0.0
1772904217792348400,8.139348388671875,-0.0130548477172851,0.0237946212291717,0.0073678940534591,0.0001527161948615,0.0010690133785828,0.0
1772904217811334000,8.158333984375,0.0154132843017578,-0.0262019336223602,0.0278843641281127,0.0013744457392022,-0.0013744457392022,0.0006108647794462
1772904217830319000,8.177319091796875,0.0012989044189453,-0.0017605125904083,0.0132382959127426,0.0001527161948615,0.0016798780998215,0.0
1772904217849304600,8.1963046875,0.0058059692382812,-0.0019865036010742,-0.0129702538251876,0.0001527161948615,-0.0013744457392022,0.0006108647794462
1772904217868290000,8.2152900390625,-0.0060005187988281,-0.0113073289394378,-0.0126748085021972,0.0007635809597559,-0.0007635809597559,-0.0006108647794462
1772904217887275500,8.234275634765625,-0.0152492523193359,-0.0087482929229736,0.0227072983980178,0.0007635809597559,0.0004581485991366,0.0006108647794462
1772904217906260700,8.2532607421875,0.0062761306762695,0.0148077011108398,-0.0037590861320495,0.0001527161948615,-0.0007635809597559,0.0006108647794462
1772904217925246200,8.27224609375,0.0059480667114257,-0.0183975100517272,-0.0086550265550613,0.0001527161948615,-0.0007635809597559,0.0
1772904217944231700,8.291231689453125,0.0010862350463867,0.0010976791381835,0.0055543780326843,0.0001527161948615,0.0010690133785828,0.0
1772904217963217200,8.310217041015624,0.0177202224731445,0.0107532143592834,0.0008030086755752,0.0007635809597559,0.0004581485991366,0.0
1772904217982202600,8.32920263671875,-0.0059261322021484,0.0080918073654174,-0.0107025206089019,0.0001527161948615,-0.0007635809597559,0.0
1772904218001187800,8.348187744140626,-0.0085935592651367,0.0008125007152557,0.0132146030664443,0.0001527161948615,-0.0007635809597559,0.0
1772904218020173300,8.36717333984375,0.0009088516235351,-0.0060704946517944,0.0127005130052566,0.0007635809597559,0.0016798780998215,0.0
1772904218039158800,8.38615869140625,0.007979393005371,0.010589987039566,0.0197362154722213,0.0001527161948615,-0.0001527161948615,0.0006108647794462
1772904218058144300,8.405144287109374,-0.0037364959716796,0.0008576810359954,-0.0136047005653381,0.0001527161948615,-0.0007635809597559,0.0006108647794462
1772904218077129700,8.424129638671875,-0.0013790130615234,-0.0154396593570709,0.0194433778524398,0.0007635809597559,0.0004581485991366,0.0
1772904218096115000,8.443114990234376,0.0034551620483398,0.0035468637943267,0.007426843047142,0.0001527161948615,0.0010690133785828,0.0
1772904218115100400,8.462100341796875,0.0009851455688476,0.0009656846523284,-0.0022920221090316,0.0007635809597559,-0.0001527161948615,0.0
1772904218134086000,8.4810859375,0.0172662734985351,-0.015708565711975,0.0115161836147308,0.0001527161948615,0.0004581485991366,0.0
1772904218153071400,8.5000712890625,-0.0063600540161132,-0.003551959991455,0.0089463740587234,0.0001527161948615,0.0004581485991366,0.0006108647794462
1772904218172056600,8.519056640625,0.0054569244384765,0.0245895981788635,-0.0238092690706253,0.0007635809597559,-0.0001527161948615,-0.0006108647794462
1772904218191042000,8.5380419921875,0.0053911209106445,0.0004915595054626,0.0048015415668487,0.0001527161948615,-0.0001527161948615,0.0
1772904218210027500,8.557027587890625,-0.0064315795898437,-0.0187326073646545,0.0168798416852951,0.0007635809597559,0.0010690133785828,0.0
1772904218229013000,8.576012939453125,0.0008811950683593,0.0097786486148834,0.0119538754224777,0.0007635809597559,-0.0001527161948615,0.0006108647794462
1772904218247998500,8.59499853515625,0.0008554458618164,0.0093432664871215,-0.0068687349557876,0.0007635809597559,0.0004581485991366,0.0
1772904218266983700,8.613983642578125,-0.0109376907348632,-0.0117380321025848,-0.0092357844114303,0.0007635809597559,-0.0001527161948615,0.0006108647794462
1772904218285969200,8.63296923828125,-0.0227699279785156,0.004619687795639,-0.0069621801376342,0.0001527161948615,-0.0001527161948615,0.0
1772904218304954600,8.65195458984375,0.0036230087280273,0.0142320096492767,-0.0047341883182525,0.0007635809597559,-0.0007635809597559,-0.0006108647794462
1772904218323940000,8.670940185546876,0.003462791442871,-0.0116816461086273,0.0141413062810897,-0.0004581485991366,0.0004581485991366,0.0
1772904218342925600,8.689925537109374,0.0127220153808593,0.0028071105480194,-0.0282640159130096,0.0001527161948615,0.0010690133785828,-0.0006108647794462
1772904218361910800,8.708910888671875,0.0172834396362304,0.0120173692703247,0.0008573681116104,-0.0004581485991366,-0.0001527161948615,0.0
1772904218380896300,8.727896240234376,-0.0018777847290039,-0.006569355726242,0.0148798674345016,0.0001527161948615,0.0004581485991366,0.0
1772904218399881700,8.7468818359375,-0.0043239593505859,0.0053375959396362,0.0173299610614776,0.0007635809597559,0.0004581485991366,-0.0012217295588925
1772904218418867200,8.7658671875,-0.0041799545288085,-0.0041220784187316,-0.0016234368085861,0.0001527161948615,0.0004581485991366,0.0012217295588925
1772904218437852400,8.784852294921874,-0.0181941986083984,-0.0115806460380554,0.0031421035528182,0.0007635809597559,-0.0001527161948615,0.0006108647794462
1772904218456838000,8.803837890625,-0.0016698837280273,-0.0042273104190826,0.0290890932083129,0.0001527161948615,0.0004581485991366,0.0
1772904218475823400,8.8228232421875,0.0033683776855468,-0.02094367146492,0.0050504952669143,0.0007635809597559,-0.0001527161948615,0.0
1772904218494808800,8.841808837890625,-0.0016069412231445,0.0120928883552551,-0.0045892596244812,0.0007635809597559,-0.0007635809597559,0.0
1772904218513794300,8.860794189453125,0.0079374313354492,0.0022478997707366,-0.0043144971132278,0.0007635809597559,0.0004581485991366,0.0006108647794462
1772904218532779500,8.879779541015624,0.0124273300170898,0.0208345353603363,-0.0162062495946884,0.0007635809597559,0.0010690133785828,0.0006108647794462
1772904218551765000,8.898764892578125,0.0050745010375976,-0.0056285560131073,-0.0064610838890075,-0.0004581485991366,-0.0013744457392022,0.0006108647794462
1772904218570750500,8.91775048828125,-0.002115249633789,0.0179378390312194,0.0005550980567932,0.0007635809597559,-0.0001527161948615,0.0
1772904218589736000,8.93673583984375,0.009683609008789,-0.0295286923646926,0.0003843754529953,0.0007635809597559,-0.0001527161948615,0.0006108647794462
1772904218608721200,8.95572119140625,-0.0116195678710937,-0.0147234201431274,-0.013790488243103,0.0001527161948615,-0.0007635809597559,-0.0006108647794462
1772904218627706600,8.97470654296875,0.0029191970825195,-0.0121516287326812,0.0055222511291503,0.0007635809597559,-0.0001527161948615,0.0
1772904218646692000,8.993692138671875,-0.0042333602905273,0.0022011697292327,-0.0041043162345886,0.0001527161948615,0.0004581485991366,0.0006108647794462
1772904218665677600,9.012677490234376,0.0053186416625976,0.0091320276260375,-0.0158455818891525,0.0001527161948615,0.0004581485991366,0.0
1772904218684663000,9.0316630859375,-0.008697509765625,0.0208202898502349,-0.038941666483879,0.0001527161948615,-0.0001527161948615,0.0
1772904218703648300,9.050648193359375,0.0077476501464843,-0.0008962750434875,-0.0052945166826248,0.0001527161948615,0.0004581485991366,0.0
1772904218722633700,9.0696337890625,-0.0040349960327148,0.0041192770004272,0.0091031789779663,0.0007635809597559,0.0004581485991366,0.0
1772904218741619200,9.088619140625,-0.0087251663208007,-0.0100254118442535,-0.0122428387403488,-0.0004581485991366,-0.0001527161948615,0.0006108647794462
1772904218760604700,9.107604736328126,0.0053291320800781,0.001786321401596,1.56164169311e-05,0.0007635809597559,-0.0001527161948615,0.0
1772904218779590100,9.126590087890625,0.0098199844360351,-0.0028543472290039,-0.0023097097873687,0.0007635809597559,0.0004581485991366,0.0
1772904218798575400,9.145575439453124,-0.0069732666015625,-0.0099245607852935,0.0024222284555435,0.0001527161948615,0.0004581485991366,0.0006108647794462
1772904218817560800,9.164560791015624,0.0074129104614257,-0.0216847658157348,2.16215848922e-05,0.0001527161948615,-0.0007635809597559,0.0
1772904218836546300,9.18354638671875,0.0097990036010742,0.0137849450111389,0.033064991235733,0.0001527161948615,0.0010690133785828,0.0
1772904218855531800,9.20253173828125,-0.0044469833374023,-0.0007959902286529,-0.0121102184057235,-0.0004581485991366,-0.0007635809597559,0.0
1772904218874517200,9.221517333984377,0.0002870559692382,-0.0053490102291107,0.0044224113225936,-0.0004581485991366,0.0004581485991366,0.0
1772904218893502700,9.240502685546875,0.0071802139282226,-0.0005369484424591,0.0182832032442092,0.0001527161948615,0.0004581485991366,0.0
1772904218912488000,9.259488037109374,-0.0116033554077148,-0.0123329758644104,-0.0171784609556198,0.0001527161948615,0.0004581485991366,0.0
1772904218931473400,9.278473388671877,0.0026617050170898,-0.0026460587978363,-0.0002289563417434,-0.0004581485991366,-0.0001527161948615,0.0
1772904218950459000,9.297458984375,0.0024976730346679,0.0092128217220306,-0.0045688897371292,0.0007635809597559,0.0004581485991366,0.0
1772904218969444400,9.3164443359375,0.0001020431518554,-0.0047486424446105,0.0164947807788848,0.0001527161948615,-0.0001527161948615,0.0
1772904218988429800,9.335429931640626,0.0048456192016601,-0.0237200260162353,-0.0188820660114288,0.0001527161948615,0.0004581485991366,0.0
1772904219007415000,9.3544150390625,-0.0093183517456054,0.0071122050285339,0.0072904229164123,0.0001527161948615,-0.0007635809597559,0.0
1772904219026400500,9.373400390625,0.0097723007202148,0.0162955522537231,-0.0163289755582809,0.0001527161948615,-0.0001527161948615,0.0
1772904219045386000,9.392385986328126,-0.0047082901000976,0.0135612785816192,0.0146074593067169,0.0001527161948615,-0.0001527161948615,0.0
1772904219064371500,9.411371337890625,-0.0068311691284179,0.001864731311798,0.0165718495845794,0.0007635809597559,-0.0007635809597559,0.0
1772904219083356700,9.430356689453124,-0.0208797454833984,0.0065560042858123,-0.0072805732488632,-0.0004581485991366,-0.0001527161948615,0.0
1772904219102342100,9.449342041015624,0.0078105926513671,-0.0054199397563934,-0.0141907185316085,0.0007635809597559,-0.0001527161948615,0.0
1772904219121327600,9.46832763671875,0.0031232833862304,0.0066482424736022,-0.0023044794797897,0.0007635809597559,0.0004581485991366,0.0
1772904219140313000,9.48731298828125,-0.00164794921875,0.0157292485237121,-0.018648087978363,0.0007635809597559,0.0004581485991366,0.0
1772904219159298600,9.506298583984377,0.005467414855957,-0.010390818119049,-0.0017666965723037,0.0001527161948615,0.0004581485991366,0.0
1772904219178284000,9.525283935546875,-0.0066328048706054,-0.0079570710659027,0.0124365240335464,0.0001527161948615,-0.0001527161948615,0.0006108647794462
1772904219197269500,9.54426953125,0.0076236724853515,0.0159783065319061,0.0216454565525054,0.0007635809597559,-0.0001527161948615,-0.0006108647794462
1772904219216254700,9.563254638671877,-0.0112934112548828,-0.010344922542572,0.0025680065155029,-0.0004581485991366,-0.0001527161948615,0.0
1772904219235240200,9.582240234375,-0.0068006515502929,-0.0193307846784591,0.0069009363651275,0.0007635809597559,-0.0001527161948615,0.0
1772904219254225700,9.6012255859375,-0.0110464096069335,-0.0048571825027465,-0.0005683898925781,0.0001527161948615,-0.0001527161948615,0.0006108647794462
1772904219273211100,9.620211181640624,0.0033950805664062,-0.0096517503261566,0.0112457275390625,0.0001527161948615,0.0010690133785828,-0.0006108647794462
1772904219292196600,9.639196533203124,-0.0013809204101562,-0.0140689015388488,-0.0241990834474563,0.0001527161948615,0.0004581485991366,0.0
1772904219311181800,9.658181884765623,-0.0038461685180664,0.0143625140190124,0.0164356678724288,0.0007635809597559,-0.0007635809597559,0.0
1772904219330167300,9.677167236328126,0.0006723403930664,-0.0045586824417114,0.0021723210811614,0.0001527161948615,0.0004581485991366,-0.0006108647794462
1772904219349152800,9.69615283203125,-0.0038967132568359,-0.0024557411670684,-0.0141820460557937,-0.0004581485991366,0.0004581485991366,0.0006108647794462
1772904219368138200,9.71513818359375,0.0008192062377929,-0.0093471407890319,6.45965337753e-05,-0.0004581485991366,0.0004581485991366,0.0
1772904219387123700,9.734123779296874,-0.0156755447387695,0.0047168433666229,0.0022087842226028,0.0007635809597559,-0.0001527161948615,0.0006108647794462
1772904219406109200,9.753109130859375,-0.0131177902221679,0.0095906257629394,0.00444296002388,-0.0004581485991366,0.0004581485991366,0.0
1772904219425094400,9.772094482421876,0.01312255859375,-0.011559635400772,-0.0188124626874923,0.0001527161948615,-0.0001527161948615,0.0006108647794462
1772904219444079900,9.791079833984377,0.0154323577880859,-0.004226267337799,0.0003570914268493,-0.0004581485991366,-0.0001527161948615,0.0
1772904219463065300,9.8100654296875,0.0036678314208984,-0.0066266655921936,0.0119833499193191,0.0001527161948615,-0.0001527161948615,0.0
1772904219482050800,9.82905078125,0.0036640167236328,-0.0018530786037445,-5.0663948059e-05,0.0007635809597559,-0.0001527161948615,0.0
1772904219501036300,9.848036376953123,-0.0010461807250976,-0.0043745338916778,-0.0095309764146804,0.0007635809597559,-0.0007635809597559,0.0
1772904219520021500,9.867021484375,0.0129127502441406,0.0070327818393707,0.0023596584796905,0.0001527161948615,0.0004581485991366,0.0
1772904219539007000,9.886007080078125,-0.0202159881591796,0.0114777386188507,0.0021296590566635,0.0007635809597559,0.0010690133785828,0.0006108647794462
1772904219557992400,9.904992431640624,0.0036306381225585,-0.0054211914539337,-0.0002083033323287,0.0001527161948615,0.0004581485991366,0.0006108647794462
1772904219576978000,9.92397802734375,0.0082588195800781,-0.0004457533359527,-0.0164869874715805,0.0001527161948615,0.0004581485991366,0.0006108647794462
1772904219595963400,9.94296337890625,-0.015228271484375,-0.0074190199375152,-0.0043422132730484,0.0001527161948615,0.0004581485991366,0.0
1772904219614948900,9.961948974609374,-0.0054664611816406,-0.0027738809585571,0.0052374601364135,0.0007635809597559,0.0010690133785828,0.0
1772904219633934000,9.98093408203125,-0.000894546508789,-0.002674400806427,-0.0159430801868438,-0.0004581485991366,-0.0001527161948615,0.0
1772904219652919600,9.99991943359375,0.008584976196289,0.0092824399471282,-0.013152077794075,0.0001527161948615,-0.0001527161948615,-0.0006108647794462
1772904219671905000,10.018905029296874,0.0062246322631835,-0.0048785805702209,0.0198975354433059,0.0007635809597559,0.0004581485991366,0.0
1772904219690890500,10.037890380859375,0.0014314651489257,-0.0116507112979888,0.0101714134216308,0.0001527161948615,0.0004581485991366,0.0
1772904219709876000,10.0568759765625,-0.0031642913818359,0.0051712691783905,-0.0134322941303253,0.0007635809597559,0.0004581485991366,0.0
1772904219728861400,10.075861328125,0.0017242431640625,-0.0018744468688964,-0.0035664290189743,0.0007635809597559,0.0004581485991366,0.0006108647794462
1772904219747847000,10.094846923828126,-0.0053110122680664,0.0028204321861267,0.0011993795633316,0.0007635809597559,0.0004581485991366,0.0
1772904219766832000,10.11383203125,0.0063152313232421,-0.0066779553890228,0.0010928958654403,0.0007635809597559,0.0004581485991366,0.0
1772904219785817600,10.132817626953123,-0.0032644271850585,-0.0067654550075531,0.0012567788362503,0.0007635809597559,0.0004581485991366,0.0
1772904219804803000,10.151802978515626,0.0086441040039062,-0.0064544677734375,0.0152506977319717,-0.0004581485991366,-0.0007635809597559,0.0
1772904219823788500,10.17078857421875,0.0083980560302734,0.0051011741161346,0.005780816078186,0.0001527161948615,0.0004581485991366,0.0
1772904219842773800,10.189773681640624,-0.0010976791381835,-0.002237319946289,-0.0083594620227813,0.0007635809597559,0.0004581485991366,0.0
1772904219861759200,10.20875927734375,-0.0103530883789062,0.0093322992324829,0.003175675868988,0.0007635809597559,0.0004581485991366,0.0
1772904219880744700,10.22774462890625,0.0061073303222656,-0.0189661830663681,0.0007721930742263,-0.0004581485991366,-0.0001527161948615,0.0
1772904219899730200,10.246730224609376,0.0154371261596679,-0.0092116594314575,0.0008547753095626,-0.0004581485991366,0.0004581485991366,0.0006108647794462
1772904219918715600,10.265715576171877,0.0009288787841796,-0.0114507377147674,0.0005777031183242,0.0007635809597559,-0.0001527161948615,0.0
1772904219937701000,10.284701171875,0.0082321166992187,-0.0205166041851043,0.0051967203617095,0.0007635809597559,-0.0001527161948615,0.0
1772904219956686600,10.3036865234375,0.0035295486450195,0.005739152431488,-0.0088881701231002,0.0001527161948615,0.0004581485991366,0.0
1772904219975671800,10.322671875,-0.0156412124633789,-0.0016150176525115,-0.0061168521642684,0.0007635809597559,0.0004581485991366,0.0012217295588925
1772904219994657300,10.3416572265625,-0.0008888244628906,-0.0113731324672698,-0.0129999369382858,-0.0004581485991366,-0.0007635809597559,0.0
1772904220013642800,10.360642822265625,0.0062389373779296,0.0024604201316833,0.0202422440052032,0.0007635809597559,0.0004581485991366,0.0
1772904220032628200,10.379628173828126,-0.0011835098266601,-0.0045185685157775,-0.0130476653575897,0.0013744457392022,-0.0007635809597559,0.0
1772904220051613700,10.39861376953125,0.0033693313598632,-0.0093932449817657,0.0014742612838745,-0.0004581485991366,-0.0001527161948615,0.0012217295588925
1772904220070599200,10.41759912109375,0.0056924819946289,-0.0256403386592865,0.0131027847528457,0.0001527161948615,-0.0001527161948615,0.0006108647794462
1772904220089584400,10.43658447265625,-0.0155582427978515,0.0031119287014007,0.0130944997072219,-0.0004581485991366,0.0004581485991366,-0.0012217295588925
1772904220108569900,10.45556982421875,0.0081729888916015,0.0054851472377777,-0.0011383146047592,0.0007635809597559,0.0004581485991366,0.0
1772904220127555300,10.474555419921876,-0.0037412643432617,0.005037099123001,-0.0173290222883224,-0.0004581485991366,0.0004581485991366,0.0
1772904220146540800,10.493540771484374,-0.0061292648315429,0.0046607553958892,0.0086465924978256,-0.0004581485991366,-0.0001527161948615,0.0
1772904220165526300,10.5125263671875,-0.0011415481567382,-0.0117231607437133,-0.0127115994691848,0.0007635809597559,-0.0001527161948615,0.0
1772904220184511700,10.53151171875,-0.003335952758789,0.0284203588962554,0.0182645618915557,0.0001527161948615,0.0004581485991366,0.0
1772904220203497200,10.550497314453125,0.0060663223266601,-0.0025897622108459,-0.0103043168783187,-0.0004581485991366,-0.0001527161948615,0.0
1772904220222482400,10.569482421875,-0.0104866027832031,-0.0005379021167755,0.0159617811441421,0.0007635809597559,0.0004581485991366,0.0
1772904220241468200,10.58846826171875,-0.003157615661621,-0.0165919363498687,0.0133044719696044,0.0001527161948615,-0.0001527161948615,0.0
1772904220260453400,10.607453369140623,-0.0006608963012695,-0.004231721162796,-0.0009105056524276,0.0001527161948615,-0.0001527161948615,0.0
1772904220279438800,10.62643896484375,-0.0099668502807617,0.0073710083961486,-0.0007408112287521,0.0007635809597559,0.0004581485991366,0.0006108647794462
1772904220298424300,10.64542431640625,0.0042848587036132,-0.0045317113399505,0.0134496986865997,0.0007635809597559,-0.0001527161948615,0.0006108647794462
1772904220317409800,10.664409912109376,-0.0075387954711914,-0.0117250084877014,-0.0081261694431304,0.0007635809597559,-0.0001527161948615,0.0006108647794462
1772904220336395000,10.68339501953125,0.0087099075317382,0.0004501938819885,-0.008088931441307,0.0007635809597559,0.0004581485991366,-0.0006108647794462
1772904220355380700,10.702380615234375,0.0086603164672851,-0.0112191438674926,-0.0103204250335693,-0.0004581485991366,0.0010690133785828,0.0006108647794462
1772904220374366000,10.721365966796874,-0.005192756652832,0.0078501999378204,0.0037779361009597,-0.0004581485991366,-0.0001527161948615,0.0006108647794462
1772904220393351400,10.740351318359377,-0.0029401779174804,-0.0041662454605102,-0.0030066519975662,0.0001527161948615,0.0004581485991366,0.0
1772904220412337000,10.7593369140625,0.0112371444702148,0.0077428221702575,-0.0026665478944778,0.0007635809597559,0.0004581485991366,0.0
1772904220431322400,10.778322265625,0.0062789916992187,-0.0039933025836944,-0.0048429369926452,-0.0004581485991366,0.0004581485991366,0.0
1772904220450307800,10.797307861328123,-0.0031843185424804,-0.0014842748641967,-0.0046721696853637,0.0001527161948615,-0.0001527161948615,-0.0006108647794462
1772904220469293300,10.816293212890624,-0.0007238388061523,0.000948429107666,-0.0070582926273345,-0.0004581485991366,0.0004581485991366,0.0006108647794462
1772904220488278800,10.83527880859375,-0.0079555511474609,0.0053573846817016,0.0045447647571563,-0.0004581485991366,-0.0001527161948615,0.0
1772904220507264000,10.854263916015626,-0.0077323913574218,-0.00883349776268,-0.0072048604488372,0.0001527161948615,0.0004581485991366,0.0
1772904220526249500,10.87324951171875,0.0087594985961914,-0.0157267153263092,0.0001383125782012,-0.0004581485991366,0.0004581485991366,0.0
1772904220545235000,10.89223486328125,-0.0849361419677734,-0.0208210945129394,0.1483845561742782,0.0038179049734026,0.3229947388172149,0.0177150778472423
1772904220564220400,10.911220458984374,0.5074329376220703,-0.0436124503612518,-0.1175432801246643,0.0074830935336649,0.2087630331516266,0.0305432397872209
1772904220583206000,10.930205810546877,-0.1776533126831054,0.0731381475925445,-0.2769172191619873,-0.0145080387592315,-0.7392991185188293,-0.0274889152497053
1772904220602191400,10.94919140625,-1.807086944580078,0.012002944946289,0.6191341280937195,0.0038179049734026,0.3065013885498047,-0.078190691769123
