time,seconds_elapsed,acc_z,acc_y,acc_x,gyro_z,gyro_y,gyro_x
1772904267675809500,0.1208095703125,-0.0081195831298828,-0.0042809247970581,-0.0029657036066055,0.0013744457392022,0.0071776611730456,0.0
1772904267694795300,0.139795166015625,-0.0010328292846679,-0.0141211152076721,-0.0097623318433761,0.0001527161948615,-0.0074830935336649,0.0006108647794462
1772904267713780500,0.158780517578125,-0.0050411224365234,0.0137464702129364,0.0232112854719162,0.0013744457392022,0.006566796451807,0.0
1772904267732766200,0.17776611328125,0.011962890625,-0.0053326189517974,-0.0022198408842086,0.0007635809597559,-0.0056504993699491,0.0006108647794462
1772904267751751700,0.196751708984375,-0.0250282287597656,0.000331699848175,-0.0232525169849395,0.0007635809597559,0.0041233371011912,-0.0006108647794462
1772904267770737200,0.215737060546875,0.0126008987426757,0.0063554942607879,-0.0014144778251647,0.0001527161948615,-0.0032070400193333,0.0
1772904267789722600,0.23472265625,-0.0222396850585937,-0.0185435116291046,0.0071998834609985,0.0007635809597559,0.0035124723799526,-0.0006108647794462
1772904267808708000,0.2537080078125,0.0066776275634765,-0.0056832432746887,-0.0020000338554382,0.0001527161948615,-0.0013744457392022,0.0006108647794462
1772904267827693600,0.272693603515625,-0.0123062133789062,-0.0004022419452667,0.0119724124670028,0.0013744457392022,0.0004581485991366,0.0
1772904267846679000,0.291678955078125,0.0135297775268554,-0.0163886249065399,0.004664272069931,0.0007635809597559,-0.0001527161948615,0.0012217295588925
1772904267865664500,0.31066455078125,0.005934715270996,0.0032516419887542,0.0013147443532943,0.0007635809597559,-0.0007635809597559,0.0
1772904267884650000,0.32964990234375,-0.0037174224853515,0.0167527496814727,-0.0033817440271377,0.0007635809597559,0.0004581485991366,0.0
1772904267903635500,0.348635498046875,-0.006352424621582,0.0093876421451568,0.003150850534439,0.0007635809597559,-0.0013744457392022,0.0006108647794462
1772904267922621000,0.367620849609375,0.0058717727661132,-0.0096615850925445,0.0035993158817291,0.0013744457392022,0.0010690133785828,0.0
1772904267941606400,0.3866064453125,0.0030469894409179,0.0069529712200164,-0.0032873600721359,0.0007635809597559,-0.0013744457392022,0.0
1772904267960592100,0.405592041015625,-0.0177736282348632,0.0113360583782196,0.0082678496837615,0.0001527161948615,0.0010690133785828,0.0
1772904267979577600,0.42457763671875,0.0060148239135742,0.0058155357837677,-0.0052738785743713,-0.0004581485991366,-0.0025961752980947,0.0006108647794462
1772904267998563000,0.44356298828125,-0.0133867263793945,-0.0058200061321258,0.0336322039365768,0.0001527161948615,-0.0007635809597559,0.0
1772904268017548500,0.462548583984375,0.0015840530395507,-0.0034331083297729,0.0051708966493606,0.0007635809597559,0.0053450670093297,0.0
1772904268036534000,0.481533935546875,-0.008406639099121,-0.0033224523067474,-0.028044044971466,-0.0004581485991366,-0.0056504993699491,0.0006108647794462
1772904268055519500,0.50051953125,-0.0103750228881835,-0.0010391175746917,0.0265661180019378,0.0007635809597559,0.0022907429374754,-0.0006108647794462
1772904268074505000,0.5195048828125,-0.0032587051391601,-0.0056308209896087,0.0112156718969345,0.0007635809597559,0.0004581485991366,0.0
1772904268093490400,0.538490478515625,0.0014705657958984,-0.0104740858078002,-0.0471057593822479,0.0007635809597559,0.0004581485991366,0.0
1772904268112476000,0.557475830078125,-0.0034313201904296,0.0104871988296508,-0.006582498550415,-0.0004581485991366,-0.0038179049734026,0.0
1772904268131461400,0.57646142578125,-0.0125560760498046,-0.0064145028591156,0.0332220643758773,0.0001527161948615,0.0022907429374754,-0.0006108647794462
1772904268150446800,0.59544677734375,-0.0102224349975585,0.0009146630764007,-0.0190070271492004,0.0013744457392022,0.0010690133785828,0.0
1772904268169432600,0.6144326171875,-0.005375862121582,0.0078306496143341,-0.0256724208593368,0.0001527161948615,-0.0019853105768561,0.0006108647794462
1772904268188417800,0.633417724609375,-0.0053939819335937,0.012664794921875,0.0262047052383422,0.0007635809597559,0.0010690133785828,0.0006108647794462
1772904268207403300,0.6524033203125,0.001810073852539,0.0007234215736389,0.0068628937005996,0.0001527161948615,0.0016798780998215,0.0
1772904268226389000,0.671388916015625,0.0017862319946289,-0.0061173141002655,-0.0142736583948135,0.0001527161948615,-0.0013744457392022,0.0
1772904268245374500,0.69037451171875,0.0087041854858398,-0.0063377618789672,0.0163559317588806,0.0001527161948615,-0.0007635809597559,-0.0006108647794462
1772904268264360000,0.70935986328125,0.010812759399414,0.0036366581916809,-0.0055244415998458,0.0019853105768561,0.0016798780998215,0.0006108647794462
1772904268283345400,0.728345458984375,-0.0058555603027343,-0.0129855871200561,-0.0194587111473083,0.0001527161948615,0.0004581485991366,0.0
1772904268302331000,0.747330810546875,-0.0012788772583007,-0.0151213705539703,-0.0284744948148727,0.0007635809597559,-0.0013744457392022,0.0
1772904268321316400,0.76631640625,0.0035514831542968,0.0040724873542785,0.0237657725811004,0.0007635809597559,0.0010690133785828,0.0006108647794462
1772904268340301800,0.7853017578125,0.0153617858886718,0.0087722241878509,-0.0165670663118362,0.0007635809597559,0.0010690133785828,0.0006108647794462
1772904268359287300,0.804287353515625,-0.0013446807861328,-0.0012551546096801,-0.0160626918077468,0.0007635809597559,-0.0019853105768561,0.0006108647794462
1772904268378272800,0.823272705078125,0.0079526901245117,-0.0151450335979461,0.021723523736,0.0001527161948615,-0.0001527161948615,0.0
1772904268397258200,0.84225830078125,-0.0154399871826171,0.006497323513031,0.0120118707418441,0.0001527161948615,0.0022907429374754,0.0
1772904268416243700,0.86124365234375,0.0013074874877929,-0.0010812580585479,-0.0233362019062042,0.0013744457392022,-0.0007635809597559,0.0012217295588925
1772904268435229200,0.880229248046875,-0.0080327987670898,0.003665953874588,-0.0018218606710433,0.0007635809597559,-0.0007635809597559,0.0
1772904268454214700,0.899214599609375,-0.0009040832519531,-0.0032731592655181,0.005262866616249,0.0007635809597559,0.0010690133785828,0.0
1772904268473200400,0.918200439453125,0.0105409622192382,0.0061347186565399,-0.0064984709024429,0.0007635809597559,0.0004581485991366,0.0
1772904268492185900,0.937185791015625,-0.0062427520751953,0.0011531710624694,-0.001659333705902,0.0007635809597559,-0.0013744457392022,0.0
1772904268511171300,0.95617138671875,0.0009031295776367,-0.0059382021427154,0.0027585625648498,0.0007635809597559,0.0004581485991366,0.0
1772904268530156800,0.97515673828125,-0.0015125274658203,-0.0011811256408691,0.000156283378601,0.0007635809597559,0.0010690133785828,0.0
1772904268549142300,0.994142333984375,0.0008087158203125,-0.0010591745376586,-0.0232652574777603,0.0007635809597559,-0.0013744457392022,0.0
1772904268568127700,1.013127685546875,-0.0180425643920898,-0.0009957551956176,-0.0038353949785232,0.0007635809597559,-0.0001527161948615,0.0006108647794462
1772904268587113200,1.03211328125,0.0083246231079101,0.0108920633792877,0.0013871788978576,0.0007635809597559,0.0004581485991366,0.0
1772904268606098700,1.0510986328125,0.0082855224609375,-0.0108731091022491,-0.0171814262866973,0.0001527161948615,-0.0007635809597559,0.0
1772904268625084200,1.070084228515625,-0.0015592575073242,0.0126900970935821,0.0091655850410461,0.0007635809597559,-0.0007635809597559,0.0006108647794462
1772904268644069600,1.089069580078125,0.0079460144042968,-0.029860109090805,0.0134532749652862,0.0013744457392022,0.0004581485991366,0.0006108647794462
1772904268663055000,1.10805517578125,0.0078039169311523,-0.005770593881607,-0.007874459028244,0.0013744457392022,0.0004581485991366,0.0
1772904268682040600,1.12704052734375,0.0052680969238281,0.0038789212703704,0.0180895179510116,0.0001527161948615,-0.0007635809597559,0.0
1772904268701026000,1.146026123046875,0.0100746154785156,-0.0172384679317474,0.0132301300764083,0.0007635809597559,0.0004581485991366,0.0
1772904268720011500,1.165011474609375,-0.0113525390625,-0.0075269341468811,-0.0058931410312652,0.0007635809597559,0.0010690133785828,0.0
1772904268738997000,1.1839970703125,0.0078420639038085,0.0068461596965789,-0.0293687433004379,0.0007635809597559,-0.0007635809597559,0.0
1772904268757982500,1.202982421875,-0.0017910003662109,0.0091766715049743,-0.0029512643814086,-0.0004581485991366,-0.0001527161948615,0.0
1772904268776968200,1.22196826171875,-0.0018463134765625,-0.0147289931774139,-0.0055783540010452,0.0007635809597559,0.0004581485991366,0.0
1772904268795953400,1.240953369140625,-0.0019416809082031,-0.0051537752151489,-0.0080493837594985,0.0001527161948615,-0.0007635809597559,0.0006108647794462
1772904268814939100,1.259939208984375,0.0075340270996093,0.0184971690177917,-0.0173388123512268,0.0001527161948615,0.0004581485991366,0.0006108647794462
1772904268833924600,1.278924560546875,-0.0018892288208007,-0.0100870430469512,0.015888437628746,0.0007635809597559,0.0004581485991366,0.0006108647794462
1772904268852910000,1.29791015625,-0.0088453292846679,-0.0170027613639831,-0.0242958515882492,0.0001527161948615,-0.0001527161948615,0.0006108647794462
1772904268871895600,1.3168955078125,-0.0060834884643554,-0.0120976865291595,-0.0003622770309448,0.0007635809597559,-0.0007635809597559,0.0
1772904268890881000,1.335881103515625,0.0130987167358398,-0.0050028860569,0.0065391063690185,0.0007635809597559,0.0004581485991366,0.0
1772904268909866500,1.354866455078125,-0.0058813095092773,-0.0025398433208465,-0.0026912242174148,0.0007635809597559,0.0004581485991366,0.0
1772904268928852000,1.37385205078125,-0.005690574645996,2.25007534027e-05,0.0116896629333496,0.0001527161948615,-0.0007635809597559,0.0
1772904268947837400,1.39283740234375,-0.0056610107421875,0.0093431770801544,-0.0029568523168563,0.0007635809597559,-0.0007635809597559,0.0006108647794462
1772904268966823000,1.411822998046875,-0.0054330825805664,-0.0166287720203399,-0.0050941556692123,0.0001527161948615,0.0010690133785828,0.0
1772904268985808400,1.430808349609375,0.0135679244995117,-0.0048164129257202,-0.0143427997827529,-0.0004581485991366,-0.0007635809597559,0.0
1772904269004793900,1.4497939453125,0.0087251663208007,-0.0045907199382781,-0.0068738758563995,0.0007635809597559,-0.0007635809597559,0.0006108647794462
1772904269023779300,1.468779296875,0.0156545639038085,-0.0042754411697387,0.000479519367218,0.0007635809597559,0.0004581485991366,0.0
1772904269042764800,1.487764892578125,-0.0175676345825195,0.0074615776538848,-0.0088837295770645,0.0013744457392022,0.0004581485991366,0.0
1772904269061750300,1.506750244140625,0.0063447952270507,0.0142237842082977,-0.0064565241336822,0.0001527161948615,-0.0007635809597559,0.0006108647794462
1772904269080735700,1.52573583984375,-0.0078649520874023,-0.0002789795398712,-0.0019177347421646,0.0001527161948615,0.0004581485991366,0.0
1772904269099721200,1.54472119140625,0.0134944915771484,-0.0028699338436126,-0.0229659080505371,0.0007635809597559,-0.0001527161948615,0.0006108647794462
1772904269118707000,1.56370703125,0.0037546157836914,-0.0123381614685058,0.0055453777313232,0.0007635809597559,0.0004581485991366,0.0
1772904269137692200,1.582692138671875,-0.005746841430664,-0.0023808777332305,0.0078221559524536,0.0007635809597559,-0.0001527161948615,-0.0012217295588925
1772904269156678000,1.601677978515625,0.017857551574707,0.0138994753360748,0.0029793083667755,0.0007635809597559,0.0004581485991366,0.0
1772904269175663400,1.620663330078125,-0.0010499954223632,0.0066612064838409,-0.0137322098016738,0.0007635809597559,-0.0007635809597559,0.0
1772904269194648600,1.639648681640625,-0.0126628875732421,-0.0288855135440826,0.012303426861763,0.0007635809597559,0.0004581485991366,0.0006108647794462
1772904269213634300,1.65863427734375,-0.0032224655151367,-0.0119589567184448,0.0142603814601898,0.0001527161948615,-0.0001527161948615,0.0012217295588925
1772904269232619500,1.67761962890625,0.0108880996704101,-0.0073535740375518,-0.0306694060564041,0.0001527161948615,-0.0001527161948615,0.0
1772904269251605200,1.696605224609375,0.0081329345703125,0.0045420825481414,0.0050821602344512,0.0007635809597559,-0.0001527161948615,0.0
1772904269270590700,1.7155908203125,-0.0060577392578125,0.0091033577919006,-0.0045678168535232,0.0007635809597559,-0.0007635809597559,0.0
1772904269289576200,1.734576171875,-0.0035028457641601,-0.0051289796829223,0.0239085704088211,0.0001527161948615,0.0004581485991366,0.0
1772904269308561700,1.753561767578125,-0.0104885101318359,-0.000443160533905,-0.0003009140491485,0.0013744457392022,-0.0001527161948615,-0.0006108647794462
1772904269327547100,1.772547119140625,0.006134033203125,-0.0003053247928619,0.0020494163036346,0.0007635809597559,0.0004581485991366,0.0
1772904269346532600,1.79153271484375,-0.0009727478027343,-0.0071381628513336,-0.0052505731582641,0.0019853105768561,-0.0001527161948615,0.0
1772904269365518000,1.81051806640625,-0.0218429565429687,0.0139901340007781,0.0018206238746643,0.0001527161948615,-0.0001527161948615,0.0006108647794462
1772904269384503600,1.829503662109375,0.0139369964599609,-0.0077609419822692,0.0066314190626144,0.0007635809597559,-0.0007635809597559,0.0
1772904269403489000,1.848489013671875,0.0089673995971679,-0.0027526319026947,-0.005089059472084,0.0001527161948615,0.0004581485991366,0.0
1772904269422474500,1.867474609375,-0.0030555725097656,0.0138929188251495,-0.0028898864984512,0.0007635809597559,-0.0007635809597559,0.0
1772904269441460000,1.8864599609375,0.0039453506469726,0.008637249469757,0.0066468119621276,0.0013744457392022,-0.0007635809597559,0.0
1772904269460445400,1.905445556640625,0.0016193389892578,-0.0197996497154235,0.0159264802932739,0.0007635809597559,-0.0001527161948615,0.0
1772904269479431000,1.924430908203125,0.0085477828979492,0.001567393541336,0.0061897784471511,0.0001527161948615,0.0004581485991366,0.0
1772904269498416600,1.943416748046875,-0.0082035064697265,0.0058958232402801,0.001326709985733,0.0007635809597559,-0.0007635809597559,0.0006108647794462
1772904269517401900,1.96240185546875,-0.0036220550537109,-0.0057456195354461,-0.0009221136569976,0.0013744457392022,-0.0001527161948615,0.0
1772904269536387300,1.98138720703125,-0.0058193206787109,-0.0030848085880279,-0.0032188892364501,0.0007635809597559,-0.0001527161948615,-0.0006108647794462
1772904269555373000,2.000373046875,-0.0011148452758789,-0.0053302645683288,-0.0170693397521972,0.0007635809597559,0.0004581485991366,0.0
1772904269574358300,2.019358154296875,0.0034294128417968,-0.003046303987503,-0.0049598067998886,0.0001527161948615,-0.0007635809597559,0.0
1772904269593343700,2.03834375,0.0151605606079101,0.0062518417835235,3.01152467727e-05,0.0013744457392022,0.0004581485991366,0.0
1772904269612329500,2.05732958984375,0.0031299591064453,0.0108340978622436,0.0047781467437744,0.0007635809597559,0.0004581485991366,0.0006108647794462
1772904269631315000,2.07631494140625,-0.0086574554443359,0.0036198496818542,0.0117454528808593,0.0001527161948615,-0.0001527161948615,0.0
1772904269650300400,2.095300537109375,0.0079011917114257,-0.0057657361030578,-0.0024942606687545,0.0007635809597559,-0.0007635809597559,0.0
1772904269669286000,2.114285888671875,0.0124635696411132,-0.0055684745311737,8.4787607192e-06,0.0007635809597559,0.0004581485991366,0.0
1772904269688271400,2.133271240234375,-0.0064964294433593,0.0040734410285949,0.0072299093008041,0.0001527161948615,-0.0001527161948615,0.0006108647794462
1772904269707256800,2.1522568359375,0.0006971359252929,-0.0051145255565643,0.0092179179191589,0.0007635809597559,-0.0007635809597559,0.0
1772904269726242300,2.1712421875,-0.0040693283081054,0.0090589821338653,-0.0119645744562149,0.0013744457392022,-0.0001527161948615,0.0
1772904269745227800,2.190227783203125,0.0006923675537109,0.0090180337429046,-0.0045997351408004,0.0001527161948615,0.0004581485991366,0.0
1772904269764213200,2.209213134765625,0.0007076263427734,0.0041970610618591,-0.0046526491641998,0.0013744457392022,-0.0001527161948615,0.0006108647794462
1772904269783198700,2.22819873046875,-0.0087671279907226,-0.0006017088890075,-1.75833702087e-05,0.0007635809597559,-0.0001527161948615,0.0
1772904269802184200,2.24718408203125,-0.0016508102416992,-0.0008465349674224,0.0049106478691101,0.0007635809597559,-0.0001527161948615,0.0012217295588925
1772904269821169700,2.266169677734375,-0.0064573287963867,0.0063264966011047,-0.0068700313568115,0.0001527161948615,-0.0001527161948615,0.0
1772904269840155100,2.285155029296875,-0.0156164169311523,0.0156348645687103,-0.0233562141656875,0.0007635809597559,-0.0001527161948615,0.0006108647794462
1772904269859140600,2.304140625,0.0033721923828125,0.0058913230895996,0.0076777786016464,0.0007635809597559,0.0004581485991366,0.0
1772904269878126000,2.3231259765625,0.0243988037109375,-0.0082348883152008,-0.011428102850914,0.0007635809597559,-0.0001527161948615,0.0
1772904269897111600,2.342111572265625,-0.0114707946777343,0.0059787034988403,0.0050394535064697,0.0013744457392022,-0.0007635809597559,0.0
1772904269916097000,2.361096923828125,-0.0136804580688476,-0.017922356724739,0.0141151994466781,0.0007635809597559,0.0004581485991366,0.0
1772904269935082500,2.38008251953125,-0.0015792846679687,-0.0012252926826477,-0.004758596420288,0.0007635809597559,-0.0001527161948615,0.0006108647794462
1772904269954068000,2.39906787109375,0.0034160614013671,0.0081364810466766,-0.0047949403524398,0.0013744457392022,0.0004581485991366,0.0
1772904269973053400,2.418053466796875,0.005620002746582,0.00074103474617,0.0098999738693237,0.0007635809597559,0.0004581485991366,0.0006108647794462
1772904269992039000,2.437038818359375,-0.0015850067138671,-0.008611261844635,-0.0044398456811904,0.0001527161948615,0.0004581485991366,0.0
1772904270011024600,2.456024658203125,0.0077247619628906,0.0008998215198516,-0.0160320848226547,0.0007635809597559,-0.0001527161948615,0.0006108647794462
1772904270030009900,2.475009765625,0.0099058151245117,-0.0133916437625885,0.0054270029067993,0.0007635809597559,-0.0001527161948615,0.0
1772904270048995600,2.49399560546875,-0.0020313262939453,-0.0131560564041137,0.0027295053005218,0.0007635809597559,-0.0007635809597559,0.0
1772904270067981000,2.51298095703125,-0.0020418167114257,0.0033278465270996,-0.0094073116779327,0.0007635809597559,-0.0001527161948615,0.0012217295588925
1772904270086966500,2.531966552734375,0.009714126586914,0.0030717551708221,0.0048344284296035,0.0001527161948615,-0.0001527161948615,0.0006108647794462
1772904270105952000,2.550951904296875,0.0072298049926757,0.0100520551204681,0.0024154335260391,0.0007635809597559,-0.0001527161948615,-0.0006108647794462
1772904270124937500,2.5699375,0.0024442672729492,0.0002602040767669,0.0192295163869857,0.0001527161948615,0.0004581485991366,0.0006108647794462
1772904270143923000,2.5889228515625,0.0118541717529296,-0.0044084191322326,-0.0021240413188934,0.0001527161948615,-0.0001527161948615,0.0
1772904270162908400,2.607908447265625,-0.0002603530883789,-0.0022963881492614,0.0072050392627716,0.0007635809597559,0.0004581485991366,0.0
1772904270181894000,2.626893798828125,-0.0027217864990234,-5.91874122619e-05,-0.0070481747388839,0.0007635809597559,-0.0001527161948615,0.0
1772904270200879400,2.64587939453125,-0.0121212005615234,0.016480803489685,-6.0960650444e-05,0.0007635809597559,-0.0001527161948615,0.0
1772904270219864800,2.66486474609375,-0.0024623870849609,-0.0118798613548278,0.0022587180137634,0.0007635809597559,0.0004581485991366,0.0006108647794462
1772904270238850300,2.683850341796875,0.0140132904052734,-0.0161482989788055,-0.0211453288793563,0.0007635809597559,0.0004581485991366,0.0
1772904270257835800,2.702835693359375,0.009352684020996,0.0006428360939025,-0.0162018984556198,0.0007635809597559,-0.0001527161948615,0.0
1772904270276821200,2.7218212890625,0.0044164657592773,-0.0087227225303649,0.0031455755233764,0.0007635809597559,0.0010690133785828,0.0
1772904270295806700,2.740806640625,-0.0098085403442382,0.0102566480636596,0.0005047768354415,0.0001527161948615,-0.0001527161948615,0.0
1772904270314792200,2.759792236328125,0.0068683624267578,0.0081987679004669,0.0050652772188186,0.0001527161948615,0.0004581485991366,0.0
1772904270333777700,2.778777587890625,-0.0005760192871093,-0.0178967118263244,-0.0068230032920837,0.0013744457392022,-0.0001527161948615,0.0
1772904270352763100,2.79776318359375,-0.0079278945922851,0.0012124478816986,0.0266478955745697,0.0001527161948615,0.0004581485991366,0.0
1772904270371748600,2.81674853515625,-0.0244121551513671,0.0058837831020355,-0.0047118961811065,0.0007635809597559,-0.0007635809597559,0.0
1772904270390734000,2.835734130859375,0.0042371749877929,0.0078743994235992,0.0117100477218627,0.0007635809597559,-0.0007635809597559,0.0
1772904270409719600,2.854719482421875,-0.0075511932373046,-0.0038313865661621,-0.0003541409969329,0.0007635809597559,-0.0001527161948615,0.0
1772904270428705000,2.873705078125,0.0208549499511718,-0.0133070647716522,0.0020196884870529,0.0007635809597559,-0.0001527161948615,0.0
1772904270447690500,2.8926904296875,0.0061206817626953,-0.0061165690422058,-0.0193051099777221,0.0007635809597559,-0.0013744457392022,0.0
1772904270466676000,2.911676025390625,-0.0102777481079101,-0.0130852758884429,0.0138510465621948,0.0007635809597559,-0.0007635809597559,0.0
1772904270485661400,2.930661376953125,-0.0029191970825195,0.0107645690441131,-0.0075771063566207,0.0007635809597559,0.0004581485991366,0.0
1772904270504647000,2.94964697265625,0.004277229309082,-0.0037578344345092,-0.0100038051605224,0.0001527161948615,-0.0001527161948615,0.0006108647794462
1772904270523632400,2.96863232421875,-0.0028839111328125,-0.0153143405914306,0.0136301815509796,0.0007635809597559,-0.0001527161948615,0.0
1772904270542617900,2.987617919921875,0.0019178390502929,0.008632093667984,-0.0009665638208389,0.0001527161948615,-0.0001527161948615,0.0006108647794462
1772904270561603300,3.006603271484375,-0.0004987716674804,-0.0055062472820281,0.0012948215007781,0.0001527161948615,-0.0001527161948615,0.0
1772904270580588800,3.0255888671875,-0.002873420715332,-0.0031760931015014,0.0037347972393035,0.0001527161948615,-0.0001527161948615,0.0
1772904270599574300,3.04457421875,-0.002781867980957,-0.0079500675201416,-0.0008883774280548,0.0007635809597559,0.0004581485991366,-0.0006108647794462
1772904270618559700,3.063559814453125,-0.0002985000610351,0.0060285329818725,-0.0008633732795715,0.0001527161948615,-0.0001527161948615,0.0006108647794462
1772904270637545500,3.08254541015625,-0.0001697540283203,-0.0081413984298706,-0.0294515937566757,0.0001527161948615,-0.0001527161948615,0.0
1772904270656530700,3.10153076171875,-0.0025558471679687,0.0085493922233581,0.001708447933197,0.0007635809597559,0.0004581485991366,0.0006108647794462
1772904270675516400,3.120516357421875,-0.0024318695068359,0.0060619711875915,-0.0145319402217864,0.0001527161948615,-0.0001527161948615,0.0
1772904270694501600,3.139501708984375,-0.0047416687011718,0.0036710202693939,0.0044622123241424,0.0007635809597559,0.0004581485991366,0.0
1772904270713487400,3.1584873046875,-3.33786010742e-05,0.0106924772262573,-0.0167576223611831,0.0007635809597559,-0.0001527161948615,0.0
1772904270732472800,3.177472900390625,-0.0023097991943359,0.0058739483356475,-0.0095051676034927,0.0007635809597559,-0.0001527161948615,0.0
1772904270751458300,3.196458251953125,0.0023117065429687,-0.012947529554367,0.011836290359497,0.0013744457392022,-0.0001527161948615,-0.0012217295588925
1772904270770443800,3.21544384765625,0.0093317031860351,0.0107779204845428,-0.0001164823770523,0.0013744457392022,0.0004581485991366,0.0
1772904270789429000,3.234428955078125,0.0045928955078125,-0.0034323036670684,0.0043904036283493,0.0001527161948615,-0.0007635809597559,0.0006108647794462
1772904270808414700,3.253414794921875,-0.005126953125,-0.0057993233203887,-0.0026068240404129,0.0007635809597559,-0.0001527161948615,0.0
1772904270827400000,3.27239990234375,0.0136709213256835,0.0035755038261413,-0.0117474198341369,0.0007635809597559,0.0004581485991366,0.0
1772904270846385700,3.2913857421875,-0.0052881240844726,0.0081283748149871,-0.0044938921928405,0.0013744457392022,0.0004581485991366,0.0
1772904270865371100,3.31037109375,0.0089263916015625,-0.0060148835182189,-0.0044735223054885,0.0001527161948615,-0.0001527161948615,0.0
1772904270884356600,3.329356689453125,0.0016489028930664,-0.0081231296062469,-0.0067628771066665,0.0007635809597559,-0.0001527161948615,0.0
1772904270903342000,3.348342041015625,0.0039482116699218,0.0060899853706359,-0.0019863545894622,0.0007635809597559,0.0004581485991366,-0.0006108647794462
1772904270922327600,3.36732763671875,-0.0103797912597656,-0.0035731494426727,0.0007400661706924,0.0007635809597559,-0.0001527161948615,0.0006108647794462
1772904270941313000,3.38631298828125,-0.0052089691162109,-0.0105815529823303,0.0054254382848739,0.0013744457392022,0.0004581485991366,0.0006108647794462
1772904270960298500,3.405298583984375,0.0160989761352539,0.0013423860073089,-0.0109016150236129,0.0007635809597559,-0.0001527161948615,0.0
1772904270979284000,3.424283935546875,0.0042743682861328,-0.0128306150436401,-0.001355618238449,0.0007635809597559,-0.0001527161948615,0.0
1772904270998269400,3.44326953125,-0.0171585083007812,-0.0054348409175872,-0.01302932202816,0.0007635809597559,0.0004581485991366,0.0
1772904271017255000,3.4622548828125,-0.0027484893798828,-0.0031258463859558,0.0010627508163452,0.0007635809597559,-0.0007635809597559,0.0
1772904271036240400,3.481240478515625,-0.0003814697265625,-0.0008590221405029,-0.0011412501335144,0.0007635809597559,-0.0001527161948615,0.0
1772904271055225900,3.500225830078125,0.0090398788452148,0.0110770165920257,-0.0224813818931579,0.0001527161948615,-0.0007635809597559,-0.0006108647794462
1772904271074211300,3.51921142578125,0.0088577270507812,-0.0054952800273895,-0.0012533217668533,0.0007635809597559,-0.0007635809597559,-0.0006108647794462
1772904271093196800,3.53819677734375,0.0038576126098632,0.0202357769012451,0.0131652504205703,0.0013744457392022,-0.0001527161948615,0.0006108647794462
1772904271112182300,3.557182373046875,0.0156497955322265,0.0008284449577331,-0.0083738267421722,0.0001527161948615,-0.0001527161948615,0.0
1772904271131167700,3.576167724609375,-0.0032997131347656,-0.0155669450759887,0.0056948810815811,0.0007635809597559,-0.0001527161948615,-0.0006108647794462
1772904271150153200,3.5951533203125,0.0062990188598632,0.0080337226390838,-0.0084440559148788,0.0007635809597559,0.0004581485991366,0.0006108647794462
1772904271169138700,3.614138671875,-0.0031986236572265,0.0055034160614013,-0.0132590383291244,0.0007635809597559,0.0004581485991366,0.0012217295588925
1772904271188124200,3.633124267578125,-0.0126552581787109,0.0055665671825408,0.0082193613052368,0.0007635809597559,0.0004581485991366,0.0012217295588925
1772904271207109600,3.652109619140625,-0.0127458572387695,-0.0038811266422271,-0.0062527954578399,0.0007635809597559,-0.0001527161948615,0.0
1772904271226095000,3.67109521484375,-0.0007543563842773,0.0007624924182891,0.0008815377950668,0.0007635809597559,-0.0001527161948615,0.0
1772904271245080600,3.69008056640625,-0.0031232833862304,0.0009565651416778,0.0059384107589721,0.0007635809597559,-0.0001527161948615,0.0
1772904271264066000,3.709066162109375,-0.0031795501708984,0.0032441914081573,0.0009112060070037,0.0007635809597559,-0.0001527161948615,0.0
1772904271283051500,3.728051513671875,0.0179071426391601,0.0078495144844055,0.0055759251117706,0.0001527161948615,0.0004581485991366,0.0
1772904271302037000,3.747037109375,-0.0080947875976562,-0.0091495215892791,0.0053388774394989,0.0007635809597559,-0.0001527161948615,0.0
1772904271321022500,3.7660224609375,-0.0008840560913085,-0.0112871825695037,-0.0066737234592437,-0.0004581485991366,0.0004581485991366,0.0
1772904271340008000,3.785008056640625,-0.0173597335815429,-0.0040013492107391,-0.0020962208509445,0.0007635809597559,0.0004581485991366,0.0006108647794462
1772904271358993400,3.803993408203125,-0.0054130554199218,-0.0064517855644226,-0.0064718276262283,0.0007635809597559,-0.0001527161948615,0.0
1772904271377979000,3.822978759765625,0.0016679763793945,-0.0042330026626586,0.0079638808965682,0.0007635809597559,-0.0001527161948615,0.0
1772904271396964400,3.84196435546875,-0.0078029632568359,-0.0088780224323272,-0.001444011926651,0.0007635809597559,-0.0001527161948615,0.0
1772904271415949800,3.86094970703125,0.0019874572753906,-0.0089897513389587,0.0057826787233352,0.0001527161948615,0.0004581485991366,0.0006108647794462
1772904271434935300,3.879935302734375,-0.0028247833251953,0.0006462633609771,0.0031702667474746,0.0007635809597559,0.0004581485991366,0.0
1772904271453920800,3.898920654296875,0.0066785812377929,-0.0086637139320373,0.0078990906476974,0.0007635809597559,0.0004581485991366,0.0
1772904271472906200,3.91790625,0.0065383911132812,0.0126303732395172,0.019506812095642,0.0007635809597559,-0.0001527161948615,0.0006108647794462
1772904271491891700,3.9368916015625,0.0018167495727539,-0.0016205012798309,-0.0113858729600906,0.0007635809597559,0.0004581485991366,0.0012217295588925
1772904271510877200,3.955877197265625,-0.0073776245117187,-0.0086705684661865,-0.0113073736429214,0.0007635809597559,-0.0007635809597559,0.0012217295588925
1772904271529862700,3.974862548828125,0.0020790100097656,-0.0039470493793487,0.003293365240097,0.0007635809597559,-0.0007635809597559,0.0
1772904271548848000,3.99384814453125,-0.000340461730957,-0.0013393461704254,0.0058566033840179,0.0007635809597559,0.0004581485991366,0.0
1772904271567833600,4.01283349609375,0.0067701339721679,0.0009849965572357,0.0057289153337478,0.0001527161948615,0.0004581485991366,0.0
1772904271586819000,4.031819091796875,-0.0050992965698242,0.008173644542694,-0.0038455724716186,0.0007635809597559,0.0004581485991366,0.0
1772904271605804500,4.050804443359375,-0.0002613067626953,-0.0013067424297332,0.0129521638154983,0.0007635809597559,0.0004581485991366,0.0
1772904271624790000,4.0697900390625,-0.0027246475219726,0.0011744797229766,-0.0157006084918975,0.0007635809597559,-0.0001527161948615,0.0
1772904271643775500,4.088775390625,0.0044260025024414,0.0035573542118072,-0.0036792606115341,0.0001527161948615,-0.0001527161948615,0.0006108647794462
1772904271662761200,4.10776123046875,0.0067110061645507,-0.0199272632598876,0.0036454796791076,0.0007635809597559,0.0004581485991366,0.0
1772904271681746400,4.126746337890625,-0.0071935653686523,0.0129722952842712,-0.0055908560752868,0.0007635809597559,0.0010690133785828,0.0
1772904271700732200,4.145732177734375,0.0001821517944335,0.0152952075004577,0.0085654407739639,0.0001527161948615,-0.0001527161948615,0.0
1772904271719717400,4.16471728515625,-0.0211191177368164,-0.0063636600971221,-0.0037122368812561,0.0001527161948615,0.0004581485991366,0.0
1772904271738702800,4.183702880859375,0.0122451782226562,0.0029491186141967,0.0032973885536193,0.0013744457392022,-0.0001527161948615,0.0
1772904271757688300,4.202688232421875,-0.0117692947387695,-0.008947879076004,0.0055707544088363,0.0007635809597559,-0.0007635809597559,0.0
1772904271776673800,4.221673828125,0.0049715042114257,0.0032192468643188,-0.0087785720825195,0.0007635809597559,-0.0007635809597559,0.0
1772904271795659300,4.2406591796875,-0.0164098739624023,-0.0133347511291503,-0.0040478706359863,0.0007635809597559,-0.0001527161948615,-0.0006108647794462
1772904271814644700,4.259644775390625,-0.004220962524414,-0.0225200653076171,-0.0087133795022964,0.0007635809597559,-0.0001527161948615,0.0
1772904271833630500,4.27863037109375,-0.001962661743164,-0.0008681714534759,0.010441318154335,0.0007635809597559,0.0004581485991366,0.0
1772904271852615700,4.29761572265625,0.007359504699707,-0.0077533721923828,0.0008286833763122,0.0007635809597559,0.0004581485991366,0.0006108647794462
1772904271871601400,4.316601318359375,0.0026826858520507,-0.0003367960453033,-0.0084269493818283,0.0007635809597559,0.0004581485991366,-0.0006108647794462
1772904271890586600,4.335586669921875,0.0049867630004882,0.0065818428993225,-0.0035736411809921,0.0007635809597559,-0.0001527161948615,0.0
1772904271909572400,4.354572265625,-0.0065069198608398,0.0157660245895385,0.0014111399650573,0.0007635809597559,0.0004581485991366,-0.0006108647794462
1772904271928557600,4.3735576171875,0.0242958068847656,-0.0103194117546081,-0.0032552778720855,0.0007635809597559,-0.0001527161948615,0.0
1772904271947543300,4.392543212890625,0.0096101760864257,-0.0195032954216003,-0.0056497454643249,0.0001527161948615,-0.0001527161948615,0.0
1772904271966528500,4.411528564453125,0.0072145462036132,-0.0026776194572448,0.0132875740528106,0.0007635809597559,0.0004581485991366,-0.0006108647794462
1772904271985514200,4.43051416015625,0.0023469924926757,0.0087901353836059,-0.0081222802400588,0.0001527161948615,-0.0007635809597559,0.0
1772904272004499500,4.44949951171875,-0.0072259902954101,-0.0173369050025939,-0.0011093169450759,0.0001527161948615,-0.0007635809597559,0.0
1772904272023485000,4.46848486328125,0.007124900817871,-0.0148593783378601,-0.01282300055027,0.0007635809597559,-0.0007635809597559,0.0
1772904272042470400,4.487470458984375,-0.0072689056396484,0.0040294826030731,0.0083386301994323,0.0007635809597559,-0.0001527161948615,0.0
1772904272061456000,4.506455810546875,0.0092840194702148,-0.0006709992885589,-0.0225166380405426,0.0007635809597559,0.0004581485991366,0.0
1772904272080441600,4.525441650390625,0.0209007263183593,0.0159449875354766,0.0038787126541137,0.0007635809597559,0.0004581485991366,0.0
1772904272099426800,4.5444267578125,0.0065603256225585,0.0110312700271606,0.0037039071321487,0.0007635809597559,-0.0001527161948615,0.0
1772904272118412500,4.56341259765625,0.0065021514892578,-0.0010926127433776,0.017663836479187,0.0013744457392022,0.0004581485991366,0.0
1772904272137397800,4.582397705078125,-0.0146875381469726,-0.015415221452713,-0.0130729526281356,0.0007635809597559,0.0004581485991366,0.0006108647794462
1772904272156383500,4.601383544921875,0.0020723342895507,0.008252590894699,-0.0127168148756027,0.0007635809597559,0.0004581485991366,0.0
1772904272175368700,4.62036865234375,-0.0001897811889648,0.0104962885379791,-0.0053105652332305,0.0001527161948615,0.0004581485991366,0.0
1772904272194354400,4.6393544921875,-0.0071620941162109,-0.0038377046585083,0.0111681669950485,0.0007635809597559,-0.0001527161948615,0.0006108647794462
1772904272213339600,4.658339599609375,-0.0046911239624023,-0.0060024857521057,0.006079614162445,0.0007635809597559,-0.0001527161948615,0.0
1772904272232325400,4.677325439453125,0.0003261566162109,0.0058702528476715,-0.0106002688407897,0.0007635809597559,-0.0007635809597559,0.0006108647794462
1772904272251310600,4.696310546875,0.004866600036621,0.0033527910709381,0.0061719715595245,0.0001527161948615,0.0004581485991366,0.0006108647794462
1772904272270296300,4.71529638671875,-0.011488914489746,0.0010917484760284,0.017878457903862,0.0001527161948615,0.0004581485991366,0.0
1772904272289281500,4.734281494140625,-0.0089921951293945,-0.0082544982433319,0.0224746167659759,0.0007635809597559,-0.0001527161948615,0.0
1772904272308267300,4.753267333984375,0.0007553100585937,0.0176546573638916,0.0077825337648391,0.0001527161948615,0.0004581485991366,0.0006108647794462
1772904272327252700,4.772252685546875,0.0028495788574218,-0.0087273716926574,-0.0041570663452148,0.0007635809597559,0.0004581485991366,0.0
1772904272346238000,4.791238037109375,0.0005197525024414,0.0034676194190979,0.0097939670085906,0.0007635809597559,-0.0007635809597559,-0.0006108647794462
1772904272365223700,4.8102236328125,-0.0160465240478515,0.0006743669509887,-0.0022069066762924,0.0007635809597559,-0.0001527161948615,0.0006108647794462
1772904272384209000,4.829208984375,-0.010807991027832,0.0100757777690887,-0.0232038348913192,0.0001527161948615,0.0004581485991366,0.0006108647794462
1772904272403194600,4.848194580078125,-0.0011940002441406,-0.0041318833827972,-0.001880869269371,0.0001527161948615,0.0004581485991366,0.0
1772904272422179800,4.867179931640625,0.0057106018066406,-0.0018100142478942,0.0120526105165481,0.0001527161948615,0.0004581485991366,0.0006108647794462
1772904272441165600,4.88616552734375,0.0031690597534179,-0.0065454542636871,-0.0021797865629196,0.0007635809597559,-0.0001527161948615,0.0
1772904272460150800,4.90515087890625,0.0171432495117187,0.0102254748344421,0.0025463700294494,0.0007635809597559,0.0004581485991366,0.0
1772904272479136500,4.924136474609375,-0.0018930435180664,-0.0016364455223083,0.0214517712593078,0.0007635809597559,-0.0001527161948615,0.0
1772904272498121700,4.943121826171875,0.0166387557983398,-0.0133816599845886,-0.0212647169828414,0.0007635809597559,-0.0001527161948615,0.0006108647794462
1772904272517107500,4.962107421875,-0.0003414154052734,-0.0108542740345001,0.0045643895864486,0.0007635809597559,0.0004581485991366,0.0
1772904272536092700,4.9810927734375,-0.0003681182861328,0.0010993182659149,-0.0097574591636657,0.0013744457392022,0.0004581485991366,0.0006108647794462
1772904272555078400,5.000078369140625,-0.005101203918457,0.0199879705905914,0.0019075721502304,0.0007635809597559,-0.0001527161948615,-0.0006108647794462
1772904272574063600,5.019063720703125,-0.0143814086914062,0.0079819560050964,-0.0005829036235809,0.0007635809597559,0.0004581485991366,0.0006108647794462
1772904272593049300,5.03804931640625,-0.004648208618164,0.0032911300659179,0.0018309503793716,0.0013744457392022,0.0004581485991366,0.0
1772904272612034600,5.05703466796875,-0.0068464279174804,0.0173447728157043,-0.0050893276929855,0.0007635809597559,-0.0001527161948615,0.0
1772904272631020000,5.07602001953125,0.0002450942993164,-0.0088701248168945,-0.0027995109558105,0.0007635809597559,0.0004581485991366,0.0
1772904272650005500,5.095005615234375,0.0072546005249023,0.0076258480548858,0.0089333057403564,0.0001527161948615,-0.0007635809597559,0.0
1772904272668991000,5.113990966796875,0.0119581222534179,0.0095196664333343,-0.0030443519353866,0.0013744457392022,0.0004581485991366,0.0
1772904272687976400,5.1329765625,0.0141973495483398,0.0093953013420104,0.0163935869932174,0.0007635809597559,0.0004581485991366,0.0006108647794462
1772904272706962000,5.1519619140625,-7.91549682617e-05,0.0092623829841613,0.0066421031951904,0.0013744457392022,-0.0001527161948615,-0.0006108647794462
1772904272725947400,5.170947509765625,-0.0049781799316406,0.0019637048244476,0.0041556656360626,0.0007635809597559,-0.0001527161948615,0.0
1772904272744932900,5.189932861328125,0.0116195678710937,-0.0003876686096191,0.0088849663734436,0.0007635809597559,0.0004581485991366,0.0006108647794462
1772904272763918300,5.20891845703125,-0.0122137069702148,-0.0002909004688262,0.0039110630750656,0.0007635809597559,-0.0001527161948615,0.0
1772904272782903800,5.22790380859375,-4.4822692871e-05,-0.0003716647624969,-0.010131612420082,0.0007635809597559,-0.0007635809597559,0.0006108647794462
1772904272801889500,5.2468896484375,-0.0185136795043945,0.0017463266849517,-0.0075697600841522,0.0007635809597559,-0.0007635809597559,0.0006108647794462
1772904272820874800,5.265874755859375,0.0150041580200195,-0.0098683238029479,0.0064708292484283,0.0007635809597559,-0.0001527161948615,0.0
1772904272839860500,5.284860595703125,0.0054445266723632,-0.0025829374790191,-0.0287137627601623,0.0001527161948615,-0.0007635809597559,-0.0006108647794462
1772904272858845700,5.303845703125,-0.00885009765625,0.0256474018096923,0.0117687135934829,0.0007635809597559,0.0004581485991366,0.0006108647794462
1772904272877831400,5.32283154296875,0.0055999755859375,0.0041003823280334,-0.0096736997365951,0.0001527161948615,0.0004581485991366,0.0
1772904272896816600,5.341816650390625,0.0007095336914062,0.0015400946140289,0.018790915608406,0.0007635809597559,-0.0001527161948615,0.0
1772904272915802400,5.36080224609375,0.0028800964355468,0.0063813030719757,-0.0099154859781265,0.0001527161948615,-0.0007635809597559,0.0
1772904272934787600,5.37978759765625,0.0005092620849609,-0.0102956593036651,0.004342034459114,0.0007635809597559,-0.0007635809597559,0.0006108647794462
1772904272953773000,5.39877294921875,-0.0113115310668945,-0.0052840709686279,-0.0051866769790649,0.0007635809597559,0.0004581485991366,0.0006108647794462
1772904272972758500,5.417758544921875,0.002943992614746,-0.0120232701301574,0.0066636502742767,0.0013744457392022,-0.0001527161948615,0.0006108647794462
1772904272991744000,5.436743896484375,0.0170059204101562,-0.018910139799118,0.0085919201374053,0.0007635809597559,-0.0007635809597559,0.0012217295588925
1772904273010729500,5.4557294921875,-0.0020675659179687,0.0005222558975219,-0.0055085867643356,0.0007635809597559,0.0004581485991366,-0.0006108647794462
1772904273029715000,5.47471484375,0.0145483016967773,0.0029026865959167,-0.0101965963840484,0.0007635809597559,-0.0001527161948615,0.0
1772904273048700400,5.493700439453125,0.0168113708496093,-0.001872032880783,-0.002927228808403,0.0007635809597559,-0.0001527161948615,0.0
1772904273067686000,5.512685791015625,-0.004486083984375,-0.0090595185756683,-0.0051010251045227,0.0007635809597559,0.0004581485991366,0.0
1772904273086671400,5.53167138671875,0.0074234008789062,-0.0017349123954772,-0.0006661862134933,0.0007635809597559,-0.0007635809597559,0.0
1772904273105656800,5.55065673828125,0.0028285980224609,0.0053702890872955,0.0088116973638534,0.0007635809597559,0.0010690133785828,0.0
1772904273124642300,5.569642333984375,-0.0018138885498046,0.0006906986236572,-0.0030989050865173,0.0007635809597559,-0.0007635809597559,0.0
1772904273143627800,5.588627685546875,0.005228042602539,-0.00161874294281,0.0041659474372863,0.0007635809597559,0.0004581485991366,0.0
1772904273162613200,5.60761328125,0.00042724609375,-0.020500898361206,0.0040374100208282,0.0007635809597559,-0.0001527161948615,0.0
1772904273181598700,5.6265986328125,0.0002985000610351,0.0197736322879791,-0.0102097690105438,0.0007635809597559,0.0004581485991366,0.0
1772904273200584200,5.645584228515625,0.0004034042358398,-0.0063481628894805,0.0063948631286621,0.0007635809597559,-0.0001527161948615,0.0
1772904273219569700,5.664569580078125,0.0096845626831054,0.0009260177612304,-0.0054152011871337,0.0007635809597559,-0.0001527161948615,0.0
1772904273238555100,5.68355517578125,0.0023021697998046,0.0125666558742523,-0.0147332102060318,0.0001527161948615,-0.0007635809597559,-0.0006108647794462
1772904273257540600,5.70254052734375,0.0093250274658203,-0.0043540000915527,-0.0100626796483993,0.0007635809597559,0.0004581485991366,0.0006108647794462
1772904273276526000,5.721526123046875,-0.002669334411621,0.0074817538261413,-0.0055475085973739,0.0013744457392022,-0.0001527161948615,0.0
1772904273295511600,5.740511474609375,0.0068693161010742,0.0052007436752319,0.0133509039878845,0.0007635809597559,-0.0001527161948615,0.0
1772904273314497000,5.7594970703125,0.0022096633911132,0.0075061023235321,0.00345179438591,0.0007635809597559,-0.0007635809597559,0.0
1772904273333482500,5.778482421875,0.0116682052612304,0.0147537589073181,0.0007368773221969,0.0007635809597559,0.0004581485991366,0.0
1772904273352468000,5.797468017578125,-0.0027551651000976,-0.0066087841987609,0.000541552901268,0.0013744457392022,0.0004581485991366,0.0
1772904273371453400,5.816453369140625,-0.0001554489135742,0.0026555061340332,-0.004269540309906,0.0007635809597559,-0.0001527161948615,0.0006108647794462
1772904273390439000,5.83543896484375,0.0043220520019531,0.0099066495895385,0.0003678798675537,0.0007635809597559,-0.0001527161948615,0.0
1772904273409424400,5.85442431640625,0.0017862319946289,0.0027219951152801,-0.0091253221035003,0.0007635809597559,-0.0001527161948615,0.0
1772904273428409900,5.873409912109375,-0.012430191040039,0.0028740167617797,-0.0068923979997634,0.0001527161948615,-0.0007635809597559,0.0
1772904273447395300,5.892395263671875,-0.0097818374633789,0.0049414634704589,-0.0091869086027145,0.0007635809597559,0.0004581485991366,0.0
1772904273466380800,5.911380859375,-0.0073423385620117,-0.0043918192386627,0.0099669396877288,0.0007635809597559,0.0004581485991366,-0.0006108647794462
1772904273485366300,5.9303662109375,0.0070953369140625,0.0029506683349609,0.0072514712810516,0.0013744457392022,-0.0001527161948615,-0.0006108647794462
1772904273504351700,5.949351806640625,-0.0047101974487304,0.0078959763050079,-0.0023118257522583,0.0001527161948615,-0.0007635809597559,0.0
1772904273523337200,5.968337158203125,-0.0021238327026367,-0.0134749710559844,0.0003837496042251,0.0007635809597559,-0.0007635809597559,0.0006108647794462
1772904273542322700,5.98732275390625,0.0005359649658203,-0.0014161467552185,0.0048290640115737,0.0007635809597559,0.0004581485991366,0.0
1772904273561308200,6.00630810546875,0.005263328552246,-0.0035979747772216,-0.016383945941925,0.0007635809597559,0.0004581485991366,0.0
1772904273580293600,6.025293701171875,-0.0018501281738281,-0.0129779875278472,0.0004608184099197,0.0007635809597559,-0.0001527161948615,0.0
1772904273599279000,6.044279052734375,0.0052709579467773,-0.0150448679924011,0.0052255541086196,0.0001527161948615,-0.0001527161948615,0.0
1772904273618264600,6.0632646484375,0.0075311660766601,0.0227521657943725,0.0053251087665557,0.0007635809597559,0.0004581485991366,0.0
1772904273637250000,6.08225,-0.0022459030151367,0.0078487992286682,0.005213975906372,0.0007635809597559,-0.0001527161948615,0.0
1772904273656235300,6.1012353515625,-0.0023689270019531,-0.0019551217555999,0.0194610059261322,0.0001527161948615,-0.0001527161948615,-0.0006108647794462
1772904273675221000,6.120220947265625,0.004770278930664,-0.006566971540451,-0.0066051334142684,0.0001527161948615,0.0004581485991366,0.0
1772904273694206200,6.139206298828125,-0.0095453262329101,-0.0136221051216125,-0.0113604515790939,0.0007635809597559,-0.0007635809597559,-0.0006108647794462
1772904273713191700,6.158191650390625,-0.0001354217529296,-0.0065016150474548,0.0048710852861404,0.0007635809597559,-0.0007635809597559,0.0006108647794462
1772904273732177200,6.17717724609375,-0.0002899169921875,0.0006580650806427,0.0139168947935104,0.0007635809597559,-0.0001527161948615,0.0006108647794462
1772904273751163000,6.196162841796875,-0.0001592636108398,0.0121001601219177,0.004268392920494,0.0001527161948615,-0.0001527161948615,0.0
1772904273770148000,6.215148193359375,-0.0071725845336914,0.0045521259307861,-0.0052563101053237,0.0001527161948615,0.0004581485991366,0.0006108647794462
1772904273789133800,6.2341337890625,-0.0003480911254882,-0.0142986476421356,0.0161021202802658,0.0007635809597559,-0.0007635809597559,0.0
1772904273808119000,6.253119140625,-0.0004129409790039,-0.0043467283248901,0.0132827758789062,0.0007635809597559,0.0004581485991366,0.0
1772904273827104500,6.2721044921875,-0.002634048461914,-0.0066647827625274,-0.0056750774383544,-0.0004581485991366,-0.0001527161948615,0.0
1772904273846090000,6.291090087890625,0.0067090988159179,0.0260761678218841,-0.0172204226255416,0.0013744457392022,-0.0001527161948615,0.0006108647794462
1772904273865075500,6.310075439453125,0.001779556274414,0.0069060623645782,0.0017718970775604,0.0001527161948615,-0.0007635809597559,0.0
1772904273884061000,6.32906103515625,-0.0099220275878906,0.0020228326320648,-0.0027925819158554,0.0013744457392022,0.0004581485991366,0.0
1772904273903046400,6.34804638671875,0.0044050216674804,-0.0142157971858978,-0.0048274546861648,0.0001527161948615,0.0004581485991366,0.0
1772904273922031900,6.367031982421875,-0.0004072189331054,0.0094743072986602,-0.0071299225091934,0.0013744457392022,0.0004581485991366,0.0
1772904273941017300,6.386017333984375,0.0044670104980468,0.0162266194820404,0.0050370544195175,0.0007635809597559,-0.0007635809597559,0.0
1772904273960002800,6.4050029296875,-0.0073270797729492,0.0180879831314086,0.0098374038934707,0.0007635809597559,-0.0001527161948615,0.0
1772904273978988300,6.42398828125,0.0046024322509765,0.0036939084529876,-0.0021671205759048,0.0007635809597559,0.0004581485991366,0.0
1772904273997973800,6.442973876953125,-0.0144481658935546,-0.0197537541389465,0.000264436006546,0.0001527161948615,0.0004581485991366,0.0
1772904274016959200,6.461959228515625,0.0022230148315429,-0.0075832307338714,-0.020984873175621,0.0007635809597559,-0.0007635809597559,0.0006108647794462
1772904274035944700,6.48094482421875,0.0069761276245117,-0.0028183162212371,0.0076720118522644,0.0007635809597559,0.0004581485991366,0.0
1772904274054930200,6.49993017578125,0.0043163299560546,0.016244351863861,0.0004027336835861,0.0007635809597559,0.0004581485991366,0.0
1772904274073915600,6.51891552734375,-0.0099830627441406,0.0159471631050109,0.0237861573696136,0.0007635809597559,-0.0001527161948615,0.0
1772904274092901000,6.537901123046875,-0.0001659393310546,-0.0051069259643554,-0.0047722309827804,0.0007635809597559,-0.0001527161948615,0.0
1772904274111886600,6.556886474609375,0.0021162033081054,-0.0005373358726501,0.0138394981622695,0.0019853105768561,-0.0001527161948615,0.0006108647794462
1772904274130872000,6.5758720703125,0.004399299621582,-0.0100290477275848,-0.0168689042329788,0.0007635809597559,0.0004581485991366,0.0
1772904274149857500,6.594857421875,-0.0096673965454101,-0.0072594881057739,-0.0025751292705535,0.0001527161948615,-0.0001527161948615,0.0
1772904274168843000,6.613843017578125,-0.0143661499023437,-0.0024412870407104,0.004729613661766,0.0007635809597559,0.0004581485991366,-0.0006108647794462
1772904274187828500,6.632828369140625,0.006819725036621,-0.0165860056877136,-0.0113670229911804,0.0007635809597559,0.0004581485991366,0.0012217295588925
1772904274206814000,6.65181396484375,0.0067510604858398,-0.0118918418884277,-0.0229046493768692,0.0007635809597559,-0.0007635809597559,0.0
1772904274225799400,6.67079931640625,0.0112762451171875,0.0002157986164093,-0.0132416039705276,0.0007635809597559,0.0004581485991366,0.0
1772904274244784600,6.68978466796875,-0.0075263977050781,-0.013980746269226,0.0128321051597595,0.0007635809597559,0.0004581485991366,0.0
1772904274263770400,6.708770263671875,0.0116653442382812,-0.0188018977642059,0.0008083134889602,0.0007635809597559,-0.0007635809597559,0.0006108647794462
1772904274282755600,6.727755615234375,0.0021038055419921,-0.001915693283081,0.0170110315084457,0.0001527161948615,-0.0001527161948615,0.0
1772904274301741300,6.7467412109375,-0.0028276443481445,0.0143885314464569,0.0098871290683746,0.0007635809597559,0.0004581485991366,0.0
1772904274320726500,6.7657265625,0.0020103454589843,-0.0001206994056701,0.0072557479143142,0.0001527161948615,-0.0001527161948615,0.0
1772904274339712300,6.784712158203125,0.0020637512207031,0.0070149898529052,-0.0068340450525283,0.0001527161948615,-0.0007635809597559,0.0012217295588925
1772904274358697500,6.803697509765625,0.0091352462768554,-0.0028736889362335,0.0050510764122009,0.0007635809597559,-0.0001527161948615,0.0006108647794462
1772904274377683000,6.822682861328125,-0.0122642517089843,0.0063881278038024,0.007483571767807,0.0001527161948615,-0.0007635809597559,0.0006108647794462
1772904274396668400,6.84166845703125,-0.0025653839111328,-0.0126575231552124,0.0144043564796447,0.0007635809597559,-0.0007635809597559,0.0
1772904274415654000,6.86065380859375,-0.0070695877075195,0.0040017664432525,0.0022912323474884,0.0007635809597559,0.0004581485991366,0.0
1772904274434639400,6.879639404296875,0.0094385147094726,-0.0055934190750122,0.0019326508045196,0.0007635809597559,-0.0007635809597559,0.0006108647794462
1772904274453624800,6.898624755859375,-0.0022850036621093,-0.0149334669113159,-0.0048904716968536,0.0013744457392022,0.0004581485991366,0.0
1772904274472610300,6.9176103515625,0.0049285888671875,0.008725881576538,0.0115955919027328,0.0001527161948615,-0.0001527161948615,0.0006108647794462
1772904274491595800,6.936595703125,0.0071191787719726,-0.0055746734142303,-0.0005448162555694,0.0013744457392022,-0.0001527161948615,0.0
1772904274510581200,6.955581298828125,0.0091199874877929,0.0040269792079925,-0.0191451162099838,0.0007635809597559,-0.0001527161948615,0.0
1772904274529566700,6.974566650390625,-0.0005912780761718,0.004118412733078,0.0117110162973403,0.0001527161948615,-0.0001527161948615,0.0006108647794462
1772904274548552200,6.99355224609375,-0.0005693435668945,-0.0171657502651214,0.0067411214113235,0.0001527161948615,0.0004581485991366,0.0006108647794462
1772904274567537700,7.01253759765625,0.0041561126708984,0.0066066086292266,-0.0094720125198364,0.0007635809597559,-0.0007635809597559,0.0006108647794462
1772904274586523100,7.031523193359375,-0.0054302215576171,-0.0003513097763061,-0.0116203725337982,0.0007635809597559,-0.0001527161948615,0.0
1772904274605508600,7.050508544921875,0.0042781829833984,-0.0003712773323059,0.0098899155855178,0.0007635809597559,0.0004581485991366,-0.0006108647794462
1772904274624494000,7.069494140625,-0.0098247528076171,-0.0120004713535308,-0.0187415927648544,0.0007635809597559,-0.0001527161948615,0.0
1772904274643479600,7.0884794921875,-0.0027961730957031,-0.0094567537307739,-0.0044984072446823,0.0007635809597559,-0.0007635809597559,0.0
1772904274662465000,7.107465087890625,0.0089082717895507,-0.0092705488204956,-0.0021074265241622,0.0001527161948615,0.0004581485991366,0.0
1772904274681450200,7.1264501953125,-0.0077390670776367,-0.0044652819633483,0.0167391896247863,0.0007635809597559,-0.0001527161948615,0.0
1772904274700435700,7.145435791015625,0.0065174102783203,0.0050212442874908,-0.0069639682769775,0.0007635809597559,0.0004581485991366,0.0
1772904274719421200,7.164421142578125,0.0017127990722656,-0.0021554827690124,0.0048319846391677,0.0001527161948615,-0.0001527161948615,0.0
1772904274738406700,7.18340673828125,0.0017004013061523,-0.0067410469055175,0.0027154237031936,0.0007635809597559,0.0004581485991366,0.0012217295588925
1772904274757392100,7.20239208984375,-0.0101184844970703,-0.0045115649700164,0.0119861960411071,0.0007635809597559,-0.0001527161948615,0.0
1772904274776377600,7.221377685546875,-0.0028066635131835,-0.0023176372051239,-0.0048879832029342,0.0007635809597559,-0.0001527161948615,0.0
1772904274795363000,7.240363037109375,0.0019483566284179,0.0001113712787628,-0.0168741345405578,0.0007635809597559,-0.0001527161948615,0.0
1772904274814348500,7.2593486328125,0.008981704711914,0.009621113538742,-0.0139744728803634,0.0007635809597559,0.0004581485991366,0.0
1772904274833334000,7.278333984375,-0.0003337860107421,0.0048620104789733,-0.0209121406078338,0.0007635809597559,-0.0001527161948615,0.0006108647794462
1772904274852319500,7.297319580078125,0.0019121170043945,0.0046261847019195,0.0010968297719955,0.0013744457392022,0.0004581485991366,0.0
1772904274871305000,7.316304931640625,0.0065536499023437,-0.0052074193954467,0.0077581107616424,0.0007635809597559,-0.0007635809597559,0.0
1772904274890290400,7.33529052734375,-0.0076246261596679,-0.0049109756946563,-0.0066219121217727,0.0007635809597559,-0.0001527161948615,0.0
1772904274909276000,7.35427587890625,-0.0120372772216796,0.0094138085842132,0.0123068392276763,0.0007635809597559,0.0004581485991366,0.0
1772904274928261400,7.373261474609375,0.011733055114746,-0.002536654472351,0.0095767527818679,-0.0004581485991366,0.0004581485991366,0.0
1772904274947246800,7.392246826171875,0.0088768005371093,-0.002658873796463,0.0002279877662658,0.0007635809597559,0.0004581485991366,-0.0006108647794462
1772904274966232300,7.411232421875,-0.0102386474609375,-0.0025665163993835,-0.0070495158433914,0.0013744457392022,-0.0001527161948615,0.0
1772904274985217500,7.430217529296875,0.008610725402832,-0.0188279151916503,0.0239732861518859,0.0007635809597559,0.0004581485991366,0.0
1772904275004203000,7.449203125,-0.0078716278076171,-0.0136106312274932,0.004547506570816,0.0001527161948615,-0.0001527161948615,0.0
1772904275023188500,7.4681884765625,0.0037603378295898,-0.0088579058647155,-0.0120642483234405,0.0007635809597559,-0.0001527161948615,0.0
1772904275042174000,7.487174072265625,-0.0080089569091796,0.0102248191833496,-0.0023673772811889,0.0007635809597559,0.0004581485991366,0.0
1772904275061159400,7.506159423828125,0.0108442306518554,-0.001615434885025,0.0070126354694366,0.0013744457392022,-0.0001527161948615,0.0
1772904275080145000,7.525144775390625,0.010599136352539,-0.0040487349033355,0.0114226341247558,0.0007635809597559,-0.0007635809597559,-0.0006108647794462
1772904275099130400,7.54413037109375,0.0011882781982421,-0.0112034380435943,0.0042131841182708,0.0007635809597559,-0.0007635809597559,0.0
1772904275118115800,7.56311572265625,-0.0013198852539062,-0.0135867595672607,0.0065355002880096,-0.0004581485991366,-0.0001527161948615,0.0006108647794462
1772904275137101300,7.582101318359375,-0.0033550262451171,-0.0040328800678253,0.0040957629680633,0.0007635809597559,0.0004581485991366,0.0
1772904275156086800,7.601086669921875,-0.0148906707763671,-0.0252490639686584,0.0043957084417343,0.0007635809597559,0.0004581485991366,-0.0006108647794462
1772904275175072300,7.620072265625,0.0019950866699218,0.0032763481140136,0.0020010471343994,0.0007635809597559,0.0004581485991366,0.0
1772904275194057700,7.6390576171875,-0.000345230102539,-0.0082597136497497,-0.0144125819206237,0.0001527161948615,0.0004581485991366,0.0
1772904275213043200,7.658043212890625,0.0020179748535156,0.0108021199703216,-0.009615734219551,0.0013744457392022,-0.0007635809597559,0.0
1772904275232028700,7.677028564453125,0.0113239288330078,0.0035889744758605,0.0069481134414672,0.0001527161948615,-0.0001527161948615,0.0
1772904275251014000,7.696013916015625,0.0064010620117187,-0.0106406211853027,0.0047465711832046,0.0007635809597559,0.0004581485991366,0.0
1772904275269999400,7.714999267578125,0.0040760040283203,-0.0128737390041351,0.0073522180318832,0.0013744457392022,0.0004581485991366,0.0
1772904275288984800,7.73398486328125,-0.0029630661010742,-0.0010297298431396,-0.0092113316059112,0.0001527161948615,-0.0007635809597559,0.0
1772904275307970300,7.75297021484375,0.0065879821777343,-0.0035545229911804,-0.0112325996160507,0.0007635809597559,-0.0001527161948615,0.0
1772904275326955800,7.771955810546875,0.0063724517822265,0.0012755393981933,-0.0087164640426635,0.0007635809597559,-0.0001527161948615,0.0
1772904275345941200,7.790941162109375,0.0038881301879882,0.0082966685295104,-0.0202071368694305,0.0013744457392022,0.0004581485991366,0.0
1772904275364926700,7.8099267578125,0.0037565231323242,-0.0014055967330932,-0.0129035264253616,0.0007635809597559,-0.0007635809597559,-0.0006108647794462
1772904275383912200,7.828912109375,0.0036725997924804,-0.008154422044754,0.0201430767774581,0.0007635809597559,-0.0001527161948615,0.0
1772904275402897700,7.847897705078125,-0.0033521652221679,0.0111797451972961,0.0053310245275497,0.0007635809597559,-0.0001527161948615,0.0006108647794462
1772904275421883100,7.866883056640625,0.0013484954833984,-0.0032019019126892,-0.0086239725351333,0.0007635809597559,0.0004581485991366,0.0
1772904275440868600,7.88586865234375,0.0128755569458007,-0.0126540958881378,0.0078647881746292,0.0013744457392022,-0.0001527161948615,0.0
1772904275459854000,7.90485400390625,-0.0086879730224609,-0.005093902349472,-0.0064469575881958,0.0007635809597559,0.0004581485991366,0.0006108647794462
1772904275478839600,7.923839599609375,0.0080318450927734,-0.0049591660499572,0.0077526420354843,0.0007635809597559,-0.0001527161948615,0.0
1772904275497825000,7.942824951171875,-0.0017271041870117,0.0021701157093048,0.0097433030605316,0.0001527161948615,0.0004581485991366,-0.0006108647794462
1772904275516810200,7.961810302734375,0.0171155929565429,0.0066353380680084,0.0027239620685577,0.0013744457392022,0.0004581485991366,0.0
1772904275535795700,7.980795654296875,0.0027065277099609,-0.000637263059616,0.0072312951087951,0.0007635809597559,-0.0001527161948615,0.0
1772904275554781200,7.99978125,0.0050487518310546,-0.0126663744449615,0.009432777762413,0.0007635809597559,-0.0001527161948615,0.0
1772904275573766700,8.0187666015625,-0.0046100616455078,0.0039159059524536,0.0189582556486129,0.0001527161948615,-0.0001527161948615,0.0
1772904275592752000,8.037752197265625,-0.0043001174926757,-0.0172275751829147,0.0046719163656234,0.0007635809597559,0.0004581485991366,0.0
1772904275611737600,8.056737548828124,-0.0042724609375,0.0302699208259582,0.0141262859106063,0.0019853105768561,0.0004581485991366,0.0
1772904275630723000,8.07572314453125,-0.004094123840332,0.0063132643699646,-0.0071520507335662,0.0001527161948615,-0.0001527161948615,0.0
1772904275649708500,8.09470849609375,-0.0135707855224609,0.0063010454177856,-0.0045927762985229,0.0007635809597559,-0.0001527161948615,-0.0006108647794462
1772904275668694000,8.113694091796875,-0.0133142471313476,0.0034378170967102,0.0003298372030258,0.0007635809597559,-0.0001527161948615,0.0
1772904275687679500,8.132679443359375,-0.0033836364746093,0.0127818882465362,0.000347077846527,0.0001527161948615,0.0004581485991366,0.0
1772904275706665000,8.1516650390625,0.0059022903442382,-0.0087330937385559,0.0026018023490905,0.0007635809597559,-0.0007635809597559,0.0
1772904275725650200,8.170650146484375,0.0079050064086914,-0.001536875963211,0.004721000790596,0.0007635809597559,-0.0001527161948615,0.0
1772904275744636000,8.189635986328126,-0.0014925003051757,0.0056545734405517,-0.0070585161447525,0.0013744457392022,0.0004581485991366,0.0
1772904275763621000,8.20862109375,-0.0015239715576171,-0.0113110840320587,-0.0094992369413375,0.0007635809597559,-0.0001527161948615,0.0
1772904275782606600,8.227606689453125,-0.0016708374023437,-0.0063662230968475,-0.0074530690908432,0.0013744457392022,-0.0007635809597559,-0.0006108647794462
1772904275801592000,8.246592041015624,-0.0109138488769531,-0.0038973689079284,-0.0192315429449081,0.0007635809597559,-0.0007635809597559,-0.0006108647794462
1772904275820577500,8.26557763671875,0.0127439498901367,-0.0135037302970886,6.12586736679e-05,0.0001527161948615,0.0004581485991366,0.0006108647794462
1772904275839563000,8.28456298828125,0.0100126266479492,0.0056210756301879,0.0051612257957458,0.0007635809597559,0.0004581485991366,0.0
1772904275858548500,8.303548583984375,0.0027828216552734,0.0007752776145935,-0.0091215521097183,0.0001527161948615,0.0004581485991366,0.0
1772904275877534000,8.322533935546875,-0.0116252899169921,-0.0039723813533782,0.0118940472602844,0.0007635809597559,-0.0007635809597559,-0.0006108647794462
1772904275896519400,8.34151953125,0.0144844055175781,-0.0039354860782623,-0.002375990152359,0.0001527161948615,0.0004581485991366,0.0
1772904275915504600,8.360504638671875,0.0117702484130859,-0.0108183026313781,-0.0024445950984954,0.0001527161948615,-0.0007635809597559,0.0
1772904275934490000,8.379489990234376,0.0022449493408203,0.0010742843151092,-0.0188479125499725,0.0007635809597559,-0.0001527161948615,0.0
1772904275953475600,8.3984755859375,0.0093860626220703,-0.0015438795089721,-0.0233137905597686,0.0007635809597559,-0.0001527161948615,0.0
1772904275972461000,8.4174609375,0.0046415328979492,-0.0039828121662139,0.0098385959863662,0.0013744457392022,-0.0001527161948615,0.0
1772904275991446500,8.436446533203124,-0.0024127960205078,0.0031740665435791,-0.0042247176170349,0.0007635809597559,0.0004581485991366,0.0
1772904276010432000,8.455431884765625,0.009744644165039,-0.004235953092575,0.0002430081367492,0.0007635809597559,-0.0007635809597559,0.0
1772904276029417500,8.47441748046875,-0.0022640228271484,0.0029303729534149,0.0142456442117691,0.0001527161948615,-0.0001527161948615,0.0
1772904276048403000,8.49340283203125,0.0095367431640625,0.0051539242267608,0.0021166056394577,0.0001527161948615,0.0004581485991366,0.0
1772904276067388200,8.51238818359375,0.0025577545166015,-0.0161418914794921,-0.0144534558057785,0.0007635809597559,-0.0007635809597559,0.0006108647794462
1772904276086374000,8.531373779296874,0.0119218826293945,0.0076129734516143,-0.0025320947170257,0.0007635809597559,-0.0001527161948615,0.0
1772904276105359000,8.550359130859375,0.0094470977783203,0.011993259191513,0.0070092380046844,0.0013744457392022,-0.0007635809597559,0.0
1772904276124344600,8.569344482421876,-0.000157356262207,-0.0092996060848236,-0.0045910626649856,0.0007635809597559,0.0004581485991366,0.0
1772904276143330000,8.588330078125,0.0094127655029296,0.0118391513824462,0.0050290375947952,0.0001527161948615,-0.0007635809597559,0.0
1772904276162315500,8.6073154296875,0.0021600723266601,-0.0026240050792694,0.0093666762113571,0.0007635809597559,-0.0001527161948615,0.0
1772904276181301000,8.626301025390624,0.0117368698120117,-0.0072745978832244,-0.0047398954629898,0.0001527161948615,0.0004581485991366,0.0
1772904276200286500,8.645286376953125,0.0022897720336914,-0.0070274472236633,-0.0047128796577453,0.0007635809597559,-0.0001527161948615,0.0
1772904276219272000,8.66427197265625,0.0138206481933593,0.0026220679283142,-0.0069416463375091,0.0007635809597559,-0.0001527161948615,-0.0006108647794462
1772904276238257400,8.68325732421875,0.0088939666748046,0.0097936689853668,-0.0020620822906494,0.0013744457392022,-0.0001527161948615,0.0
1772904276257243000,8.702242919921876,-0.0054779052734375,0.0097717642784118,9.36537981033e-05,0.0007635809597559,-0.0001527161948615,0.0006108647794462
1772904276276228000,8.72122802734375,-0.002943992614746,0.0049456059932708,0.0141796618700027,0.0001527161948615,-0.0001527161948615,0.0
1772904276295213600,8.740213623046875,0.0158624649047851,-0.0113866627216339,-8.90344381332e-05,0.0007635809597559,0.0004581485991366,0.0006108647794462
1772904276314199000,8.759198974609374,-0.0030527114868164,-0.0090831220149993,-0.0001605302095413,0.0007635809597559,0.0004581485991366,0.0
1772904276333184500,8.7781845703125,0.0088100433349609,-0.0135998725891113,0.0116805136203765,0.0007635809597559,-0.0001527161948615,-0.0006108647794462
1772904276352170000,8.797169921875,-0.0032463073730468,-0.0061455965042114,-0.0145365893840789,0.0001527161948615,-0.0001527161948615,0.0
1772904276371155500,8.816155517578125,-0.0055704116821289,-0.0178976655006408,0.0071068853139877,0.0007635809597559,-0.0001527161948615,0.0
1772904276390141000,8.835140869140625,-0.010171890258789,-0.0106564462184906,0.0022371262311935,0.0001527161948615,-0.0001527161948615,0.0
1772904276409126400,8.85412646484375,-0.0028581619262695,-0.0008487105369567,0.0115650743246078,0.0007635809597559,-0.0007635809597559,0.0
1772904276428111600,8.873111572265625,0.0112771987915039,0.0013242959976196,-0.0216708332300186,0.0007635809597559,-0.0001527161948615,0.0006108647794462
1772904276447097000,8.89209716796875,0.0018072128295898,0.0156618952751159,-0.0026702582836151,0.0001527161948615,-0.0007635809597559,0.0006108647794462
1772904276466082600,8.91108251953125,0.020726203918457,-0.0055561363697052,0.0044302195310592,0.0007635809597559,-0.0001527161948615,0.0
1772904276485068000,8.930068115234375,-0.0102729797363281,0.0017311573028564,-0.0122570395469665,0.0007635809597559,-0.0007635809597559,0.0
1772904276504053500,8.949053466796874,0.0041828155517578,0.0273265838623046,-0.0051926225423812,0.0007635809597559,-0.0001527161948615,0.0
1772904276523039000,8.9680390625,-0.016937255859375,0.0247425734996795,-0.0003834515810012,0.0007635809597559,0.0004581485991366,0.0
1772904276542024400,8.9870244140625,-0.0023727416992187,-0.0136114358901977,0.0045020431280136,0.0007635809597559,0.0004581485991366,0.0012217295588925
1772904276561009700,9.006009765625,-0.0072736740112304,-0.0066450536251068,-0.0118147283792495,0.0007635809597559,0.0004581485991366,0.0
1772904276579995100,9.0249951171875,-0.0073089599609375,0.0075028836727142,-0.0116497874259948,0.0007635809597559,-0.0007635809597559,0.0
1772904276598980600,9.043980712890624,-0.0097360610961914,0.0003582835197448,0.0001154690980911,0.0013744457392022,-0.0001527161948615,-0.0006108647794462
1772904276617966000,9.062966064453123,0.0044317245483398,-0.0093723833560943,-0.01625756919384,0.0007635809597559,0.0010690133785828,0.0
1772904276636951600,9.08195166015625,0.0065603256225585,-0.0071291923522949,0.0050573199987411,0.0007635809597559,-0.0007635809597559,0.0006108647794462
1772904276655937000,9.10093701171875,0.0041065216064453,0.0117611289024353,-0.004649132490158,0.0007635809597559,-0.0007635809597559,0.0
1772904276674922500,9.119922607421875,-0.007674217224121,0.0138081908226013,0.0001953840255737,0.0007635809597559,-0.0001527161948615,0.0
1772904276693908000,9.138907958984374,-0.0102863311767578,-0.0051762759685516,0.0047289878129959,0.0013744457392022,-0.0001527161948615,0.0
1772904276712893200,9.15789306640625,0.0110340118408203,-0.0049014687538146,0.0069160312414169,0.0007635809597559,0.0004581485991366,-0.0006108647794462
1772904276731878700,9.176878662109376,-0.0009765625,0.0113118588924407,-0.000376746058464,-0.0004581485991366,-0.0007635809597559,0.0012217295588925
1772904276750864100,9.195864013671876,0.0059194564819335,-0.0077614486217498,0.0069172084331512,0.0007635809597559,0.0004581485991366,-0.0006108647794462
1772904276769849600,9.214849609375,-0.0128602981567382,-0.0006085634231567,-0.002735212445259,0.0001527161948615,-0.0001527161948615,0.0012217295588925
1772904276788835000,9.2338349609375,0.0012922286987304,0.0182633101940155,-0.0072631239891052,0.0007635809597559,-0.0001527161948615,0.0
1772904276807820500,9.252820556640623,-0.0149488449096679,0.0015878677368164,-0.0120887160301208,0.0001527161948615,-0.0007635809597559,0.0
1772904276826805800,9.2718056640625,-0.0123758316040039,-0.0101431310176849,0.0022053718566894,0.0007635809597559,-0.0001527161948615,0.0
1772904276845791200,9.290791259765625,-0.0074949264526367,-0.0029168426990509,0.0207463502883911,0.0007635809597559,-0.0001527161948615,0.0
1772904276864776700,9.309776611328124,0.0067138671875,-0.0169717371463775,-0.0100479871034622,0.0007635809597559,-0.0001527161948615,0.0
1772904276883762200,9.32876220703125,-0.0050382614135742,-0.0170097649097442,-0.0051902383565902,0.0007635809597559,-0.0007635809597559,0.0006108647794462
1772904276902747600,9.34774755859375,0.0160341262817382,-0.0025937557220458,-0.0075808465480804,0.0007635809597559,0.0010690133785828,0.0
1772904276921733000,9.366733154296876,0.001779556274414,-0.0096573233604431,0.0161057114601135,0.0007635809597559,-0.0001527161948615,0.0
1772904276940718600,9.385718505859376,0.0109748840332031,0.0044889152050018,-0.0098685622215271,0.0007635809597559,-0.0001527161948615,-0.0006108647794462
1772904276959703800,9.404703857421875,-0.0079345703125,-0.0048696100711822,0.0166184902191162,0.0007635809597559,0.0004581485991366,0.0
1772904276978689500,9.423689453125,-0.0007705688476562,0.0092980861663818,-0.0071184188127517,0.0001527161948615,0.0004581485991366,0.0
1772904276997674800,9.4426748046875,-0.0079574584960937,-0.0118436217308044,-0.0022903382778167,0.0007635809597559,-0.0001527161948615,0.0006108647794462
1772904277016660200,9.46166015625,0.011052131652832,-0.004871517419815,0.0071891099214553,-0.0004581485991366,0.0004581485991366,0.0
1772904277035645700,9.480645751953125,-0.0055084228515625,-0.011763721704483,-0.0047091245651245,0.0007635809597559,-0.0001527161948615,0.0
1772904277054631200,9.499631103515624,0.0015363693237304,0.0001397132873535,0.0163163393735885,-0.0004581485991366,0.0004581485991366,0.0
1772904277073616600,9.51861669921875,-0.0103950500488281,-7.28964805603e-05,0.0044518560171127,0.0007635809597559,-0.0007635809597559,0.0006108647794462
1772904277092601900,9.537601806640623,-0.0149917602539062,-0.0046139359474182,-0.007237285375595,0.0007635809597559,0.0004581485991366,0.0
1772904277111587300,9.55658740234375,0.0109567642211914,0.0023285150527954,-0.0024450719356536,0.0007635809597559,0.0004581485991366,0.0
1772904277130572800,9.57557275390625,0.0035362243652343,-0.0096644461154937,0.0023115426301956,0.0007635809597559,-0.0001527161948615,0.0
1772904277149558300,9.594558349609375,0.0033397674560546,-0.0168708264827728,-0.0096004158258438,0.0013744457392022,-0.0001527161948615,0.0006108647794462
1772904277168543700,9.613543701171874,-0.0201425552368164,-0.009582906961441,0.0001357197761535,-0.0004581485991366,0.0004581485991366,0.0
1772904277187529200,9.632529296875,-0.0054378509521484,0.0191141068935394,-0.0139947682619094,0.0007635809597559,-0.0007635809597559,0.0006108647794462
1772904277206514400,9.651514404296876,-0.0006723403930664,-0.0096134543418884,-0.0068569332361221,0.0013744457392022,0.0004581485991366,-0.0006108647794462
1772904277225500000,9.6705,-0.0006885528564453,-0.0048184394836425,-0.0020923614501953,0.0007635809597559,0.0004581485991366,0.0
1772904277244485400,9.6894853515625,0.0015716552734375,0.0070161819458007,0.0006133913993835,0.0007635809597559,-0.0001527161948615,0.0
