time,seconds_elapsed,acc_z,acc_y,acc_x,gyro_z,gyro_y,gyro_x
1772904255648478500,0.101478515625,0.0293130874633789,0.0048031508922576,0.0269092470407485,0.0007635809597559,-0.009315688163042,0.0006108647794462
1772904255667464200,0.120464111328125,-0.0410776138305664,0.0143056213855743,0.026954635977745,0.0007635809597559,0.0059559317305684,-0.0006108647794462
1772904255686449700,0.13944970703125,0.0035963058471679,-0.0172025859355926,-0.0215626806020736,0.0007635809597559,-0.0013744457392022,-0.0006108647794462
1772904255705435400,0.158435302734375,-0.0136518478393554,-0.0181524455547332,0.0233151763677597,-0.0010690133785828,-0.0038179049734026,0.0
1772904255724420900,0.1774208984375,-0.0009946823120117,0.0139439702033996,0.0267426073551177,0.0007635809597559,0.0059559317305684,-0.0012217295588925
1772904255743406600,0.196406494140625,0.0093936920166015,-0.004743218421936,-0.0186583548784255,0.0001527161948615,-0.0025961752980947,0.0
1772904255762392000,0.21539208984375,-0.0037412643432617,-0.0214932113885879,-0.018235296010971,0.0013744457392022,0.0016798780998215,0.0
1772904255781377500,0.23437744140625,0.0224552154541015,0.0133329629898071,0.0129024684429168,0.0007635809597559,-0.0025961752980947,0.0006108647794462
1772904255800363300,0.25336328125,-0.0071773529052734,-0.0301087647676467,0.0042264312505722,0.0007635809597559,0.0041233371011912,0.0
1772904255819348700,0.2723486328125,0.0135889053344726,0.0012387335300445,-0.0133753567934036,0.0013744457392022,-0.0038179049734026,0.0
1772904255838334200,0.291334228515625,-0.0002040863037109,0.0074688494205474,0.0103496462106704,0.0007635809597559,0.0016798780998215,0.0
1772904255857320000,0.31031982421875,0.0047883987426757,-0.0020285546779632,-0.0063897222280502,0.0013744457392022,0.0010690133785828,0.0
1772904255876305400,0.329305419921875,-0.018712043762207,-0.0198469907045364,-0.0132805109024047,0.0001527161948615,-0.0007635809597559,0.0006108647794462
1772904255895291000,0.348290771484375,-0.002232551574707,0.0081486999988555,-0.003040999174118,0.0007635809597559,-0.0007635809597559,0.0
1772904255914276600,0.367276611328125,-7.62939453125e-05,-0.0105446279048919,0.0265101045370101,0.0007635809597559,0.0010690133785828,-0.0006108647794462
1772904255933262000,0.386261962890625,-0.0075950622558593,0.0055651664733886,0.0004628151655197,0.0001527161948615,0.0010690133785828,0.0
1772904255952247600,0.40524755859375,0.0063133239746093,0.003015786409378,0.016963317990303,0.0001527161948615,-0.0013744457392022,0.0
1772904255971233300,0.4242333984375,-0.0057287216186523,-0.0022368431091308,0.00267094373703,0.0001527161948615,0.0010690133785828,0.0
1772904255990218800,0.44321875,-0.0123786926269531,0.0012329220771789,0.0048291087150573,0.0007635809597559,-0.0001527161948615,0.0006108647794462
1772904256009204500,0.46220458984375,-0.0023870468139648,0.0149691402912139,-0.0135474354028701,0.0001527161948615,0.0004581485991366,0.0
1772904256028190000,0.48118994140625,-0.0024480819702148,0.0192452073097229,-0.0015452951192855,0.0001527161948615,-0.0019853105768561,0.0
1772904256047175400,0.500175537109375,-0.0023918151855468,-0.0115970969200134,-0.0041492283344268,0.0007635809597559,0.0016798780998215,-0.0006108647794462
1772904256066161200,0.5191611328125,0.0069293975830078,-0.0182304084300994,-0.0112303644418716,0.0007635809597559,-0.0007635809597559,-0.0006108647794462
1772904256085146600,0.538146728515625,-0.0075654983520507,0.0195464193820953,0.0029490888118743,0.0007635809597559,-0.0001527161948615,-0.0006108647794462
1772904256104132000,0.557132080078125,-0.0100831985473632,0.0051096379756927,-0.0042588710784912,0.0001527161948615,-0.0001527161948615,-0.0006108647794462
1772904256123117800,0.576117919921875,-0.007582664489746,-0.0278079807758331,-0.0203684270381927,0.0001527161948615,0.0004581485991366,0.0
1772904256142103300,0.595103271484375,0.0090503692626953,-0.0035655796527862,-0.0104117393493652,-0.0004581485991366,0.0004581485991366,-0.0006108647794462
1772904256161088800,0.6140888671875,0.0111608505249023,-0.0152144134044647,0.0036424994468688,-0.0004581485991366,-0.0007635809597559,-0.0012217295588925
1772904256180074500,0.633074462890625,-0.0195236206054687,-0.0287056863307952,0.0194471180438995,0.0007635809597559,0.0004581485991366,0.0
1772904256199060000,0.65206005859375,-0.0049934387207031,-0.02498459815979,0.02837535738945,0.0013744457392022,0.0004581485991366,0.0
1772904256218045400,0.67104541015625,-0.009531021118164,0.0155690014362335,0.0020023435354232,0.0019853105768561,0.0004581485991366,0.0
1772904256237031200,0.69003125,0.0093269348144531,-0.0036307275295257,-0.0052081942558288,0.0013744457392022,-0.0019853105768561,-0.0006108647794462
1772904256256016600,0.7090166015625,-0.0288610458374023,0.0132046341896057,0.0228709280490875,0.0007635809597559,0.0010690133785828,0.0
1772904256275002000,0.728002197265625,0.0188798904418945,0.041065514087677,-0.0080073773860931,0.0007635809597559,-0.0001527161948615,-0.0012217295588925
1772904256293987800,0.74698779296875,0.0092735290527343,-0.0277559906244277,-0.0101404190063476,0.0007635809597559,-0.0019853105768561,0.0006108647794462
1772904256312973300,0.765973388671875,0.0352411270141601,-0.0271807312965393,0.0600547939538955,0.0032070400193333,-0.0001527161948615,0.002443459117785
1772904256331958800,0.784958740234375,-0.0003070831298828,0.0458544790744781,-0.05112786591053,0.0013744457392022,0.0022907429374754,-0.0006108647794462
1772904256350944500,0.803944580078125,0.0279712677001953,-0.0598952770233154,-0.0249006301164627,0.0019853105768561,-0.0025961752980947,0.0018325943965464
1772904256369930000,0.822929931640625,0.0043220520019531,0.0441524684429168,-0.0376649498939514,-0.0004581485991366,0.0059559317305684,-0.0006108647794462
1772904256388915500,0.84191552734375,-0.005528450012207,0.0500275790691375,-0.007328063249588,0.0013744457392022,-0.0068722288124263,0.0006108647794462
1772904256407901200,0.860901123046875,-0.0122442245483398,-0.0287234038114547,0.0330853909254074,-0.0010690133785828,0.0035124723799526,-0.0012217295588925
1772904256426886700,0.87988671875,-0.0142269134521484,-0.0170327574014663,0.005867376923561,0.0013744457392022,-0.0007635809597559,0.0012217295588925
1772904256445872400,0.898872314453125,-0.0045766830444335,0.0901385843753814,-0.0123423188924789,0.0001527161948615,0.0016798780998215,-0.0012217295588925
1772904256464857900,0.91785791015625,-0.0188751220703125,-0.0731905102729797,0.0087258517742156,0.0013744457392022,-0.0050396346487104,0.0006108647794462
1772904256483843600,0.936843505859375,0.0077571868896484,-0.0010015964508056,0.0438567548990249,-0.0004581485991366,0.0041233371011912,-0.0006108647794462
1772904256502829000,0.9558291015625,0.0239372253417968,0.0481977760791778,0.000621810555458,0.0025961752980947,-0.0007635809597559,0.0006108647794462
1772904256521814500,0.974814453125,0.0142459869384765,0.0115639567375183,-0.0266972482204437,-0.0004581485991366,0.0010690133785828,0.0
1772904256540800300,0.99380029296875,0.0021543502807617,-0.063132494688034,0.0199072957038879,0.0013744457392022,-0.0050396346487104,0.0018325943965464
1772904256559785700,1.01278564453125,0.0048065185546875,0.0768762230873107,0.0456669479608535,0.0013744457392022,0.0071776611730456,-0.0012217295588925
1772904256578771200,1.031771240234375,0.0142126083374023,0.0044602453708648,-0.0303014516830444,0.0019853105768561,-0.0044287694618105,0.0012217295588925
1772904256597756700,1.050756591796875,-0.0024967193603515,-0.0066958367824554,-0.0248844176530838,-0.0004581485991366,0.0010690133785828,-0.0006108647794462
1772904256616742400,1.069742431640625,0.011819839477539,0.0051223635673522,0.0129102170467376,0.0013744457392022,-0.0007635809597559,0.0
1772904256635728000,1.088727783203125,-0.0193071365356445,0.0162103772163391,-0.0010428726673126,0.0001527161948615,0.0041233371011912,-0.0012217295588925
1772904256654713300,1.10771337890625,0.0093250274658203,-0.0286085903644561,-0.0221602916717529,-0.0004581485991366,-0.0050396346487104,0.0006108647794462
1772904256673699000,1.126698974609375,-0.0027542114257812,0.0308721959590911,0.0112033784389495,0.0001527161948615,0.0010690133785828,-0.0006108647794462
1772904256692684500,1.1456845703125,0.0043573379516601,-0.0405792593955993,-0.0033028274774551,0.0013744457392022,-0.0001527161948615,0.0
1772904256711670000,1.164669921875,-0.0004167556762695,-0.0505996495485305,0.0009837299585342,0.0007635809597559,-0.0007635809597559,0.0006108647794462
1772904256730655700,1.18365576171875,-0.0027894973754882,-0.0111662745475769,0.0168207436800003,0.0019853105768561,-0.0007635809597559,0.0012217295588925
1772904256749641200,1.20264111328125,0.001739501953125,0.0986574590206146,-0.025412693619728,-0.0004581485991366,0.002901607658714,-0.0012217295588925
1772904256768626700,1.221626708984375,0.0156326293945312,-0.0378344058990478,-0.0388780534267425,0.0007635809597559,-0.0038179049734026,0.0
1772904256787612400,1.2406123046875,-0.003396987915039,-0.031861737370491,0.0111012309789657,-0.0004581485991366,-0.0001527161948615,0.0
1772904256806598000,1.259597900390625,-0.003122329711914,0.0250237882137298,0.0224217325448989,0.0013744457392022,0.0016798780998215,0.0006108647794462
1772904256825583400,1.278583251953125,0.0109825134277343,0.024141252040863,-0.0222432166337966,0.0007635809597559,0.0004581485991366,-0.0006108647794462
1772904256844569000,1.297569091796875,-0.0079364776611328,-0.0513671487569808,-0.019706979393959,0.0001527161948615,-0.0044287694618105,0.0012217295588925
1772904257717904600,2.170904541015625,-0.012038230895996,-0.0060523450374603,-0.0017482340335845,0.0001527161948615,-0.0001527161948615,0.0006108647794462
1772904257736890000,2.18989013671875,-0.0238809585571289,0.0194104313850402,-0.0018464475870132,-0.0004581485991366,-0.0007635809597559,0.0
1772904257755875800,2.208875732421875,0.0067920684814453,-0.0202452838420867,0.0006518065929412,0.0007635809597559,0.0016798780998215,0.0
1772904257774861300,2.227861328125,0.009078025817871,-0.0105509161949157,0.0101277530193328,0.0001527161948615,-0.0013744457392022,0.0
1772904257793846800,2.2468466796875,-0.0054569244384765,0.017764002084732,0.0075455009937286,0.0007635809597559,0.0016798780998215,-0.0006108647794462
1772904257812832500,2.26583251953125,0.0018243789672851,-0.00613334774971,0.0004317164421081,0.0001527161948615,-0.0001527161948615,0.0
1772904257831818000,2.28481787109375,0.0113306045532226,-0.0053936541080474,0.0119049698114395,0.0001527161948615,-0.0001527161948615,0.0
1772904257850803500,2.303803466796875,0.0209589004516601,0.0153772830963134,0.0001351535320281,0.0013744457392022,0.0004581485991366,0.0
1772904257869789200,2.3227890625,-0.0005245208740234,0.0081470906734466,-0.0098865628242492,0.0013744457392022,-0.0007635809597559,0.0
1772904257888774700,2.341774658203125,-0.0168962478637695,-0.0155284702777862,0.0234968811273574,0.0007635809597559,0.0004581485991366,0.0
1772904257907760000,2.360760009765625,-0.0191621780395507,0.0153267681598663,-0.0007155090570449,0.0007635809597559,-0.0001527161948615,0.0
1772904257926745900,2.379745849609375,-0.0047245025634765,-0.00143364071846,-0.0049106329679489,0.0019853105768561,-0.0001527161948615,-0.0006108647794462
1772904257945731300,2.3987314453125,-0.0211572647094726,-0.0128076672554016,0.0066591054201126,0.0001527161948615,-0.0001527161948615,0.0006108647794462
1772904257964716800,2.417716796875,0.0076189041137695,0.0250744819641113,0.0206070989370346,0.0001527161948615,-0.0007635809597559,0.0
1772904257983702300,2.436702392578125,-0.0254201889038085,0.019798070192337,0.003408744931221,0.0007635809597559,-0.0001527161948615,-0.0006108647794462
1772904258002688000,2.45568798828125,0.0103235244750976,-0.022849828004837,-0.0177772343158721,0.0007635809597559,-0.0007635809597559,-0.0006108647794462
1772904258021673500,2.474673583984375,0.0056285858154296,-0.0105131864547729,0.0033579915761947,0.0013744457392022,-0.0013744457392022,0.0012217295588925
1772904258040659000,2.493658935546875,0.012420654296875,0.0291494727134704,-0.0108072459697723,0.0007635809597559,-0.0001527161948615,0.0
1772904258059644700,2.512644775390625,-0.0186176300048828,-0.0091964900493621,-0.0036096423864364,0.0001527161948615,-0.0001527161948615,0.0
1772904258078630100,2.531630126953125,0.0149002075195312,-0.0160458981990814,-0.0219971239566802,0.0007635809597559,-0.0001527161948615,-0.0006108647794462
1772904258097615600,2.55061572265625,-0.0112819671630859,0.0057480931282043,-0.0171115845441818,0.0007635809597559,-0.0013744457392022,0.0012217295588925
1772904258116601300,2.569601318359375,0.0028572082519531,0.0219723284244537,0.0069037526845932,0.0007635809597559,0.0010690133785828,0.0
1772904258135586800,2.5885869140625,-0.0133171081542968,-0.0204347670078277,-0.0070582777261734,0.0007635809597559,-0.0007635809597559,0.0
1772904258154572300,2.607572265625,0.001164436340332,-0.0011036098003387,0.0238466262817382,0.0007635809597559,0.0010690133785828,0.0
1772904258173557800,2.626557861328125,-0.0009918212890625,0.0061769783496856,0.0139936655759811,0.0007635809597559,-0.0001527161948615,0.0006108647794462
1772904258192543500,2.64554345703125,0.001631736755371,-0.0128627121448516,0.0070252120494842,0.0007635809597559,0.0004581485991366,0.0006108647794462
1772904258211529000,2.664529052734375,0.0087919235229492,-0.0007838010787963,-0.0023902654647827,0.0001527161948615,-0.0007635809597559,0.0
1772904258230514400,2.683514404296875,0.0013637542724609,0.0156169831752777,-1.160800457e-05,0.0007635809597559,0.0004581485991366,-0.0006108647794462
1772904258249500200,2.702500244140625,-0.0105228424072265,-0.0105822682380676,-0.0070081204175949,0.0007635809597559,-0.0001527161948615,0.0
1772904258268485600,2.721485595703125,-0.005629539489746,0.0017120838165283,-0.0114897191524505,0.0007635809597559,-0.0001527161948615,-0.0006108647794462
1772904258287471000,2.74047119140625,-0.0077943801879882,0.0059572756290435,0.0148373395204544,0.0007635809597559,-0.0001527161948615,0.0006108647794462
1772904258306456600,2.75945654296875,-0.0057325363159179,0.0152137875556945,-0.0088241398334503,0.0001527161948615,0.0004581485991366,-0.0012217295588925
1772904258325442300,2.7784423828125,-0.0011548995971679,-0.0252051949501037,-0.0060266703367233,0.0007635809597559,-0.0019853105768561,0.0
1772904258344427800,2.797427734375,0.0108823776245117,-0.0012519359588623,0.0294375568628311,0.0007635809597559,0.0004581485991366,0.0
1772904258363413200,2.816413330078125,0.0131912231445312,0.0008518397808074,-0.0015362799167633,0.0007635809597559,0.0004581485991366,0.0
1772904258382399000,2.83539892578125,0.0081653594970703,-0.0016425251960754,-0.0060452669858932,0.0007635809597559,-0.0013744457392022,0.0
1772904258401384400,2.854384521484375,0.0033798217773437,-0.0274650752544403,0.0102143287658691,0.0007635809597559,-0.0007635809597559,0.0
1772904258420370000,2.873369873046875,0.0034704208374023,0.008194625377655,0.0051677227020263,0.0001527161948615,0.002901607658714,0.0
1772904258439355600,2.892355712890625,0.0009994506835937,-0.0039922893047332,0.000129148364067,0.0007635809597559,-0.0025961752980947,0.0
1772904258458339300,2.91133935546875,-0.0038232803344726,-0.0082448720932006,0.01132433116436,0.0007635809597559,-0.0001527161948615,-0.0006108647794462
1772904258477324800,2.93032470703125,-0.0156927108764648,-0.0031246542930603,0.0132195502519607,0.0001527161948615,0.0016798780998215,-0.0006108647794462
1772904258496310300,2.949310302734375,-0.0177211761474609,0.0388130843639373,-0.0294240117073059,-0.0004581485991366,-0.0001527161948615,0.0
1772904258515295700,2.968295654296875,-0.0223169326782226,-0.0205961763858795,-0.0007201731204986,0.0001527161948615,-0.0025961752980947,0.0006108647794462
1772904258534281500,2.987281494140625,0.0062665939331054,0.0288942158222198,0.0108768194913864,0.0001527161948615,0.002901607658714,-0.0006108647794462
1772904258553267000,3.006266845703125,0.0135488510131835,-0.0721182525157928,-0.0337387025356292,0.0013744457392022,-0.0007635809597559,0.0006108647794462
1772904258572252400,3.02525244140625,0.0133695602416992,0.0305564105510711,0.0088260918855667,0.0001527161948615,-0.0025961752980947,0.0018325943965464
1772904258591238100,3.044238037109375,0.0013666152954101,0.0297065079212188,0.0274078845977783,0.0019853105768561,0.0041233371011912,0.0
1772904258610223600,3.0632236328125,0.0249757766723632,-0.0202285647392272,-0.0102525353431701,0.0001527161948615,-0.0001527161948615,0.0006108647794462
1772904258629209000,3.082208984375,-0.0155038833618164,-0.0449216961860656,-0.0290992707014083,0.0007635809597559,-0.0025961752980947,0.0006108647794462
1772904258648194600,3.101194580078125,0.0201501846313476,0.0473007261753082,0.0233003199100494,-0.0004581485991366,0.0010690133785828,0.0
1772904258667180300,3.12018017578125,-0.0034990310668945,-0.0338105261325836,0.0015564411878585,0.0013744457392022,-0.0007635809597559,0.0
1772904258686165800,3.139165771484375,-0.0013036727905273,-0.0167594403028488,-0.0124285817146301,0.0001527161948615,-0.0001527161948615,0.0006108647794462
1772904258705151200,3.158151123046875,-0.0107946395874023,0.0307225286960601,0.001511737704277,0.0019853105768561,-0.0013744457392022,0.0
1772904258724136700,3.17713671875,-0.0152568817138671,0.0247899293899536,0.0111038088798522,0.0007635809597559,0.0016798780998215,-0.0006108647794462
1772904258743122400,3.196122314453125,0.0013999938964843,-0.0462158322334289,-0.0080846399068832,0.0007635809597559,-0.0019853105768561,0.0012217295588925
1772904258762108000,3.21510791015625,0.013162612915039,0.0134806632995605,-0.0173796117305755,0.0001527161948615,0.0010690133785828,0.0006108647794462
1772904258781093400,3.23409326171875,0.0011196136474609,0.0080046355724334,0.0109919905662536,0.0007635809597559,-0.0007635809597559,0.0006108647794462
1772904258800079000,3.2530791015625,-0.0013465881347656,-0.0109603703022003,-0.0218989700078964,0.0007635809597559,0.0010690133785828,0.0
1772904258819064600,3.272064697265625,-0.0034608840942382,-0.0079269707202911,0.0091113746166229,0.0007635809597559,-0.0013744457392022,0.0
1772904258838050000,3.291050048828125,0.0082988739013671,0.0368451476097106,-0.0050105899572372,0.0007635809597559,0.0016798780998215,-0.0006108647794462
1772904258857035800,3.310035888671875,0.0034742355346679,0.0054965019226074,0.0068140029907226,0.0013744457392022,-0.0013744457392022,0.0006108647794462
1772904258876021200,3.329021240234375,-0.003697395324707,-0.0175774991512298,-0.0051673501729965,0.0013744457392022,0.0004581485991366,0.0006108647794462
1772904258895006700,3.3480068359375,0.0126972198486328,0.0085788369178771,-0.0004935413599014,0.0001527161948615,-0.0007635809597559,0.0
1772904258913992400,3.366992431640625,0.0007476806640625,-0.0010368227958679,-0.0051564872264862,0.0007635809597559,0.0004581485991366,-0.0012217295588925
1772904258932978000,3.38597802734375,0.0053882598876953,-0.007954716682434,0.0041821300983428,0.0007635809597559,-0.0007635809597559,0.0
1772904258951963400,3.40496337890625,0.0030117034912109,0.0157647728919982,-0.0124950259923934,0.0001527161948615,0.0004581485991366,0.0
1772904258970949000,3.42394921875,0.0031490325927734,0.0151304602622985,0.0021165460348129,0.0007635809597559,0.0004581485991366,0.0
1772904258989934600,3.4429345703125,-0.0040531158447265,-0.006148487329483,-0.0053942948579788,0.0007635809597559,0.0004581485991366,0.0
1772904259008920000,3.461920166015625,0.0004739761352539,0.0226711928844451,-0.0121707022190094,0.0007635809597559,-0.0001527161948615,0.0
1772904259027905500,3.480905517578125,0.0098686218261718,0.0009439885616302,-0.004955381155014,0.0001527161948615,-0.0001527161948615,-0.0006108647794462
1772904259046891300,3.499891357421875,-0.0066986083984375,-0.0202416181564331,-0.002345860004425,0.0007635809597559,-0.0007635809597559,0.0
1772904259065876700,3.518876708984375,-0.0017290115356445,0.0152390897274017,0.0024807155132293,0.0007635809597559,0.0004581485991366,0.0006108647794462
1772904259084862200,3.5378623046875,-0.0018301010131835,0.0099957883358001,0.0236453115940094,0.0007635809597559,-0.0007635809597559,0.0
1772904259103847700,3.55684765625,-0.0063591003417968,0.0072612464427948,-0.0116534829139709,0.0007635809597559,-0.0001527161948615,0.0006108647794462
1772904259122833400,3.57583349609375,-0.0039529800415039,-0.0020928680896759,-0.0019861757755279,0.0007635809597559,-0.0001527161948615,0.0
1772904259141819000,3.59481884765625,0.0032358169555664,0.0098021328449249,-0.0088200569152832,0.0007635809597559,0.0004581485991366,-0.0006108647794462
1772904259160804400,3.613804443359375,-0.0016994476318359,0.0025993585586547,0.0005854219198226,0.0001527161948615,-0.0007635809597559,0.0
1772904259179789800,3.632789794921875,-0.0110511779785156,0.0073477625846862,0.0032759010791778,0.0001527161948615,0.0004581485991366,0.0006108647794462
1772904259198775600,3.651775634765625,0.0008010864257812,-0.0118471384048461,-0.0135398507118225,0.0007635809597559,-0.0013744457392022,0.0006108647794462
1772904259217761000,3.670760986328125,0.0009717941284179,-0.0069401860237121,-0.0038107484579086,0.0007635809597559,0.0004581485991366,0.0
1772904259236746500,3.68974658203125,-0.0038003921508789,0.0025920271873474,-0.0083272904157638,0.0007635809597559,-0.0001527161948615,0.0012217295588925
1772904259255732200,3.708732177734375,0.0031099319458007,-0.0001917481422424,-0.0009252727031707,-0.0004581485991366,-0.0001527161948615,0.0
1772904259274717700,3.7277177734375,0.0102624893188476,-0.0100001394748687,-0.0032142698764801,0.0007635809597559,-0.0001527161948615,0.0006108647794462
1772904259293703200,3.746703125,-0.0135259628295898,-0.009662926197052,-0.0056908279657363,0.0001527161948615,0.0004581485991366,0.0
1772904259312689000,3.76568896484375,0.003270149230957,0.0237177014350891,0.0201715230941772,0.0007635809597559,-0.0001527161948615,-0.0012217295588925
1772904259331674400,3.78467431640625,-0.0037775039672851,0.0043913722038269,-0.0035651922225952,0.0001527161948615,0.0004581485991366,0.0
1772904259350659800,3.803659912109375,-0.0153789520263671,-0.0120785236358642,0.0012511610984802,0.0007635809597559,-0.0001527161948615,0.0
1772904259369645600,3.8226455078125,0.0037155151367187,-0.0165188312530517,-0.0079550594091415,0.0001527161948615,0.0004581485991366,0.0
1772904259388631000,3.841631103515625,0.0153989791870117,-0.0094760656356811,0.0013516545295715,0.0013744457392022,-0.0001527161948615,0.0006108647794462
1772904259407616500,3.860616455078125,0.0079469680786132,0.0095259249210357,0.0154730081558227,0.0007635809597559,-0.0001527161948615,0.0
1772904259426602000,3.87960205078125,0.007878303527832,0.0114529728889465,0.0220711529254913,0.0007635809597559,0.0004581485991366,0.0
1772904259445587700,3.898587646484375,0.012521743774414,0.0019022524356842,-0.0064590275287628,0.0013744457392022,0.0010690133785828,0.0
1772904259464573200,3.9175732421875,-0.0089111328125,-0.0310147106647491,0.0003338158130645,0.0007635809597559,-0.0001527161948615,0.0012217295588925
1772904259483558700,3.93655859375,0.0076551437377929,0.0209964215755462,-0.0116463154554367,0.0007635809597559,-0.0007635809597559,0.0
1772904259502544100,3.955544189453125,-0.0042037963867187,-0.0078272223472595,-0.0255877077579498,0.0007635809597559,0.0004581485991366,0.0006108647794462
1772904259521529900,3.97452978515625,0.0194616317749023,0.0111975967884063,-0.0063430368900299,0.0007635809597559,-0.0007635809597559,0.0
1772904259540515300,3.993515380859375,0.0027017593383789,0.0062447190284729,0.0103019177913665,0.0007635809597559,0.0004581485991366,0.0
1772904259559500800,4.012500732421875,-0.0114688873291015,0.0154970586299896,-0.0043741762638092,0.0001527161948615,-0.0007635809597559,0.0
1772904259578486500,4.031486572265625,0.0031042098999023,-0.0011676549911499,-0.0066707879304885,0.0007635809597559,-0.0007635809597559,0.0
1772904259597472000,4.050471923828125,0.007669448852539,0.0034647285938262,0.00753615796566,0.0007635809597559,-0.0001527161948615,0.0
1772904259616457500,4.06945751953125,-0.0207805633544921,-0.0015267431735992,-1.75237655639e-05,0.0013744457392022,-0.0001527161948615,0.0006108647794462
1772904259635443200,4.088443115234375,-0.0037775039672851,0.0030619800090789,-0.0047565996646881,0.0001527161948615,0.0004581485991366,0.0006108647794462
1772904259654428700,4.1074287109375,-0.0013380050659179,-0.0089160501956939,0.0117017328739166,0.0007635809597559,0.0004581485991366,0.0
1772904259673414100,4.1264140625,-0.0107812881469726,0.0031552910804748,0.0044236183166503,0.0007635809597559,-0.0001527161948615,0.0006108647794462
1772904259692399600,4.145399658203125,-0.0013275146484375,0.0173920094966888,0.0066437423229217,0.0007635809597559,-0.0013744457392022,0.0006108647794462
1772904259711385000,4.164385009765625,-0.0038709640502929,0.0007061064243316,0.0157681554555892,0.0001527161948615,-0.0001527161948615,0.0
1772904259730370800,4.183370849609375,-0.0251550674438476,0.0074748992919921,0.0038865655660629,0.0001527161948615,-0.0001527161948615,0.0
1772904259749356300,4.202356201171875,-0.0013017654418945,0.0073510110378265,-0.0193970054388046,0.0001527161948615,0.0010690133785828,0.0
1772904259768341800,4.221341796875,-0.0036954879760742,-0.0045539438724517,0.001988261938095,0.0001527161948615,-0.0019853105768561,0.0
1772904259787327200,4.2403271484375,0.003448486328125,0.0264474153518676,0.0114001035690307,0.0007635809597559,0.0004581485991366,0.0006108647794462
1772904259806313000,4.25931298828125,0.0079193115234375,0.0051246583461761,-0.0076517760753631,0.0007635809597559,-0.0007635809597559,0.0
1772904259825298400,4.27829833984375,0.0100107192993164,-0.0021361410617828,-0.0003685802221298,0.0001527161948615,-0.0001527161948615,0.0
1772904259844284000,4.297283935546875,-0.0040493011474609,-0.0140042603015899,0.0089685916900634,0.0007635809597559,-0.0007635809597559,0.0
1772904259863269600,4.31626953125,-0.00634765625,-0.0089680254459381,-0.0052424818277359,0.0001527161948615,0.0004581485991366,0.0
1772904259882255000,4.335255126953125,0.0032329559326171,-0.0016867816448211,0.0017827004194259,0.0013744457392022,-0.0013744457392022,0.0
1772904259901240600,4.354240478515625,-0.0064430236816406,-0.0156078040599823,-0.0028145760297775,0.0001527161948615,-0.0001527161948615,0.0
1772904259920226300,4.373226318359375,-0.0017595291137695,-0.0080667436122894,-0.0028135478496551,0.0007635809597559,-0.0001527161948615,0.0
1772904259939211800,4.392211669921875,0.0077877044677734,0.0155573785305023,0.0020134598016738,0.0007635809597559,0.0004581485991366,-0.0006108647794462
1772904259958197200,4.411197265625,-0.00164794921875,-0.0012651085853576,0.0158601403236389,0.0007635809597559,-0.0007635809597559,0.0
1772904259977182700,4.4301826171875,-0.0017518997192382,-0.0250205397605896,-0.0150621533393859,0.0001527161948615,-0.0001527161948615,0.0
1772904259996168200,4.449168212890625,0.014622688293457,0.0059916377067565,-0.0122466385364532,0.0007635809597559,0.0004581485991366,0.0
1772904260015154000,4.46815380859375,-0.0091924667358398,0.0105517208576202,0.0041703879833221,0.0001527161948615,-0.0001527161948615,0.0006108647794462
1772904260034139400,4.487139404296875,-0.0042982101440429,-0.005868911743164,0.0159203112125396,0.0007635809597559,0.0004581485991366,0.0
1772904260053124900,4.506124755859375,0.000706672668457,0.0012729167938232,0.013304516673088,0.0007635809597559,0.0004581485991366,0.0
1772904260072110600,4.525110595703125,0.0006065368652343,-0.0034064948558807,0.0082819312810897,0.0001527161948615,0.0004581485991366,0.0
1772904260091096000,4.544095947265625,0.0051345825195312,-0.008229523897171,0.005922332406044,0.0007635809597559,-0.0001527161948615,0.0
1772904260110081500,4.56308154296875,0.0026140213012695,0.0059697031974792,0.0175518840551376,0.0007635809597559,0.0010690133785828,0.0
1772904260129067300,4.5820673828125,0.0237846374511718,0.0057779550552368,-0.0083978921175003,0.0007635809597559,-0.0001527161948615,0.0
1772904260148052700,4.601052734375,0.0117044448852539,0.0125554502010345,-0.0080728828907012,0.0001527161948615,-0.0007635809597559,0.0006108647794462
1772904260167038200,4.6200380859375,-0.00750732421875,0.0170871615409851,0.0130101144313812,0.0007635809597559,-0.0001527161948615,0.0
1772904260186023700,4.639023681640625,0.0018386840820312,-0.0043740570545196,0.0127625614404678,0.0007635809597559,-0.0001527161948615,0.0
1772904260205009200,4.658009033203125,0.0041666030883789,-0.0136004984378814,-0.0084721744060516,0.0001527161948615,-0.0001527161948615,-0.0006108647794462
1772904260223995000,4.676994873046875,-0.003148078918457,-0.0133392512798309,0.0032327324151992,0.0007635809597559,0.0004581485991366,0.0
1772904260242980400,4.69598046875,0.0015878677368164,-0.0012621879577636,-0.0130889564752578,0.0007635809597559,0.0004581485991366,0.0
1772904260261965800,4.7149658203125,0.001413345336914,-0.0103790760040283,-0.0080579817295074,0.0007635809597559,0.0004581485991366,-0.0012217295588925
1772904260280951300,4.733951416015625,-0.0011825561523437,-0.0010893046855926,0.0042567253112792,0.0007635809597559,-0.0001527161948615,0.0
1772904260299937000,4.75293701171875,-0.0060043334960937,0.0014444291591644,0.0062804669141769,0.0007635809597559,-0.0001527161948615,0.0
1772904260318922500,4.771922607421875,-0.003570556640625,0.0085220038890838,0.0107651799917221,0.0007635809597559,-0.0001527161948615,0.0006108647794462
1772904260337908000,4.790907958984375,0.0154504776000976,-0.0269077718257904,-0.0032880157232284,0.0001527161948615,0.0004581485991366,0.0006108647794462
1772904260356893400,4.8098935546875,0.0059614181518554,-0.0076598823070526,-0.0032930374145507,0.0007635809597559,0.0004581485991366,0.0
1772904260375879200,4.828879150390625,0.0035715103149414,0.0088940560817718,0.0040565729141235,0.0013744457392022,0.0004581485991366,0.0006108647794462
1772904260394864600,4.84786474609375,0.0037660598754882,-0.0194345861673355,-0.0007185190916061,0.0007635809597559,-0.0001527161948615,0.0006108647794462
1772904260413850000,4.86685009765625,-0.0033807754516601,0.0021391510963439,-0.0032837092876434,0.0007635809597559,-0.0007635809597559,0.0
1772904260432835600,4.885835693359375,-0.0057373046875,-0.0071013569831848,-0.0009343922138214,0.0001527161948615,0.0004581485991366,0.0
1772904260451821300,4.9048212890625,0.0039005279541015,8.23438167572e-05,-0.008415549993515,0.0001527161948615,-0.0007635809597559,0.0
1772904260470806800,4.923806884765625,-0.001011848449707,0.0072616934776306,-0.0012489408254623,0.0007635809597559,-0.0001527161948615,0.0
1772904260489792300,4.942792236328125,-0.0128583908081054,-0.0089686810970306,0.0175233334302902,0.0013744457392022,0.0004581485991366,0.0006108647794462
1772904260508778000,4.961778076171875,-0.0031747817993164,-0.0016862452030181,-0.0200994610786438,0.0007635809597559,0.0010690133785828,0.0
1772904260527763500,4.980763427734375,0.0040245056152343,0.0028291046619415,0.0036816000938415,0.0007635809597559,-0.0019853105768561,0.0
1772904260546749000,4.9997490234375,0.0041275024414062,-0.0090224742889404,-0.0078629553318023,0.0007635809597559,0.0004581485991366,0.0
1772904260565734700,5.018734619140625,0.0017957687377929,0.0003401339054107,-0.0005577355623245,0.0007635809597559,-0.0001527161948615,0.0
1772904260584720100,5.03772021484375,-0.0099925994873046,0.0142179429531097,-0.0050724893808364,0.0007635809597559,-0.0007635809597559,0.0
1772904260603705600,5.05670556640625,0.0138654708862304,0.0116916000843048,0.0184603482484817,0.0007635809597559,-0.0001527161948615,0.0
1772904260622691000,5.075691162109375,0.0017204284667968,0.0091537833213806,-0.0006722807884216,0.0007635809597559,0.0004581485991366,0.0
1772904260641676500,5.094676513671875,0.015665054321289,-0.0122186541557312,-0.0124448537826538,0.0007635809597559,-0.0001527161948615,0.0
1772904260660662000,5.113662109375,0.0083169937133789,-0.0049907267093658,-0.0031548887491226,0.0007635809597559,-0.0007635809597559,0.0
1772904260679647700,5.132647705078125,-0.0011720657348632,-0.0049356520175933,-0.005238801240921,0.0007635809597559,0.0010690133785828,0.0
1772904260698633200,5.15163330078125,0.0058479309082031,0.025825560092926,-0.0212318003177642,0.0007635809597559,-0.0013744457392022,0.0012217295588925
1772904260717618700,5.17061865234375,-0.0012063980102539,0.0019969940185546,0.00239859521389,0.0007635809597559,0.0004581485991366,0.0
1772904260736604400,5.1896044921875,0.0036144256591796,-0.019241064786911,-0.0097463130950927,0.0007635809597559,-0.0007635809597559,0.0
1772904260755590000,5.20858984375,-0.0127830505371093,-0.0069338381290435,-0.0004321336746215,0.0001527161948615,0.0004581485991366,-0.0006108647794462
1772904260774575400,5.227575439453125,-0.0033397674560546,0.0116001367568969,0.0016326606273651,0.0019853105768561,-0.0007635809597559,0.0012217295588925
1772904260793560800,5.246560791015625,-0.0031099319458007,0.0020065009593963,0.0132688879966735,0.0007635809597559,0.0004581485991366,0.0
1772904260812546300,5.26554638671875,-0.0080270767211914,-0.0188778042793273,0.0011522024869918,0.0001527161948615,-0.0007635809597559,0.0
1772904260831532000,5.284531982421875,0.0062761306762695,0.0075165033340454,-0.0083442479372024,0.0007635809597559,-0.0001527161948615,0.0
1772904260850517500,5.303517578125,0.011087417602539,9.82284545898e-05,-0.0128430277109146,0.0001527161948615,-0.0007635809597559,0.0
1772904260869503000,5.3225029296875,-0.0102596282958984,-0.0025051832199096,0.0061004757881164,0.0007635809597559,-0.0001527161948615,0.0006108647794462
1772904260888488700,5.34148876953125,0.0041217803955078,-0.0098036229610443,0.0083981454372406,0.0001527161948615,-0.0001527161948615,0.0
1772904260907474200,5.36047412109375,-0.0031156539916992,0.0139770209789276,-0.0013378411531448,0.0007635809597559,-0.0001527161948615,0.0
1772904260926459600,5.379459716796875,-0.0170507431030273,0.0111336410045623,0.0079538524150848,0.0013744457392022,-0.0001527161948615,0.0006108647794462
1772904260945445000,5.398445068359375,-0.0002527236938476,0.0130241215229034,-0.004084825515747,0.0001527161948615,0.0004581485991366,0.0
1772904260964430600,5.4174306640625,0.0020694732666015,-0.0132387578487396,-0.0110169649124145,0.0001527161948615,-0.0007635809597559,0.0006108647794462
1772904260983416300,5.436416259765625,-0.0025482177734375,0.029561847448349,0.0032055675983428,-0.0004581485991366,-0.0001527161948615,0.0
1772904261002401800,5.45540185546875,-7.15255737304e-05,-0.0086853206157684,-0.015858843922615,0.0007635809597559,0.0004581485991366,-0.0006108647794462
1772904261021387300,5.47438720703125,7.6293945312e-06,-0.001216173171997,-0.0110684335231781,0.0007635809597559,-0.0007635809597559,0.0
1772904261040373000,5.493373046875,-0.0045452117919921,-0.0008163750171661,-0.0018003284931182,0.0007635809597559,-0.0001527161948615,0.0
1772904261059358500,5.5123583984375,0.0003938674926757,0.0036670565605163,0.01941479742527,0.0013744457392022,0.0010690133785828,0.0006108647794462
1772904261078344000,5.531343994140625,0.0168886184692382,-0.0008593201637268,0.0187073945999145,0.0013744457392022,-0.0007635809597559,0.0006108647794462
1772904261097329400,5.550329345703125,0.009592056274414,0.0061528980731964,-0.0026264041662216,0.0007635809597559,0.0016798780998215,0.0
1772904261116315000,5.56931494140625,0.004683494567871,-0.003140777349472,-0.0213868170976638,0.0001527161948615,-0.0019853105768561,0.0
1772904261135300600,5.588300537109375,-5.91278076171e-05,-0.0028672516345977,0.0137300640344619,0.0007635809597559,0.0004581485991366,0.0
1772904261154286000,5.6072861328125,0.006927490234375,0.0018028020858764,-0.0103509873151779,0.0013744457392022,0.0010690133785828,0.0006108647794462
1772904261173271600,5.626271484375,-0.0145187377929687,-0.000681459903717,-0.0078979879617691,0.0001527161948615,-0.0007635809597559,0.0
1772904261192257000,5.645257080078125,0.0090570449829101,-0.0077657103538513,-0.012263536453247,0.0001527161948615,-0.0007635809597559,0.0
1772904261211242800,5.66424267578125,-0.000615119934082,-0.0028356611728668,-0.0003955662250518,0.0001527161948615,0.0004581485991366,0.0
1772904261230228200,5.683228271484375,-0.0006732940673828,-0.0070892572402954,-0.0076107829809188,0.0007635809597559,0.0004581485991366,0.0
1772904261249213700,5.702213623046875,0.0131511688232421,-0.002356082201004,0.0090463459491729,0.0013744457392022,-0.0013744457392022,0.0
1772904261268199200,5.72119921875,-0.010420799255371,-0.0001322925090789,0.0111896693706512,0.0013744457392022,0.0010690133785828,0.0
1772904261287184600,5.7401845703125,-0.0102672576904296,0.0139015018939971,0.0015084445476531,0.0001527161948615,0.0004581485991366,0.0
1772904261306170400,5.75917041015625,-0.0029544830322265,0.028014063835144,-0.0080347657203674,0.0007635809597559,-0.0013744457392022,-0.0006108647794462
1772904261325155800,5.77815576171875,0.0086727142333984,0.0039171278476715,0.0039262473583221,0.0007635809597559,-0.0001527161948615,0.0
1772904261344141300,5.797141357421875,-0.0057306289672851,0.0065307915210723,0.0087544620037078,0.0019853105768561,0.0010690133785828,-0.0012217295588925
1772904261363127000,5.816126953125,-0.0125989913940429,0.008789986371994,-0.0239256024360656,0.0007635809597559,-0.0001527161948615,0.0
1772904261382112500,5.835112548828125,0.0135784149169921,-0.0007106959819793,-0.002352625131607,0.0007635809597559,-0.0007635809597559,0.0
1772904261401098000,5.854097900390625,-0.0029506683349609,0.0133132338523864,-0.0071553885936737,0.0007635809597559,0.0010690133785828,-0.0006108647794462
1772904261420083500,5.87308349609375,-0.0030899047851562,-0.0032781958580017,-0.0330066084861755,0.0007635809597559,-0.0013744457392022,0.0
1772904261439069000,5.89206884765625,-0.0005970001220703,0.0016026198863983,-0.0020571202039718,0.0007635809597559,-0.0001527161948615,0.0006108647794462
1772904261458054700,5.9110546875,-0.0124568939208984,0.0063839852809906,-0.0021193772554397,0.0007635809597559,0.0004581485991366,0.0006108647794462
1772904261477040000,5.9300400390625,-0.0005178451538085,0.0015066862106323,-0.0119844228029251,0.0007635809597559,-0.0001527161948615,-0.0006108647794462
1772904261496025600,5.949025634765625,0.0065555572509765,0.0205201804637908,-0.0119737833738327,0.0013744457392022,-0.0007635809597559,0.0
1772904261515011300,5.96801123046875,-0.0121326446533203,0.0037287175655364,0.0044915229082107,0.0007635809597559,-0.0001527161948615,0.0
1772904261533996800,5.986996826171875,-0.0071792602539062,0.0085338354110717,0.0114450305700302,0.0007635809597559,0.0004581485991366,0.0012217295588925
1772904261552982300,6.005982177734375,-0.0047006607055664,-0.0107592940330505,-0.0189551413059234,0.0019853105768561,0.0004581485991366,0.0006108647794462
1772904261571967700,6.0249677734375,-3.91006469726e-05,-0.0014176666736602,-0.0024318695068359,0.0007635809597559,-0.0007635809597559,0.0
1772904261590953200,6.043953125,-0.0118408203125,0.0034748613834381,-0.0023300796747207,0.0007635809597559,0.0010690133785828,0.0
1772904261609938700,6.062938720703125,0.0025510787963867,-0.0033947825431823,-0.0094967037439346,0.0001527161948615,-0.0007635809597559,0.0006108647794462
1772904261628924400,6.08192431640625,0.0025453567504882,0.0202143192291259,-0.0187407732009887,0.0007635809597559,-0.0001527161948615,0.0
1772904261647910000,6.100909912109375,0.0002298355102539,0.0198119282722473,0.0123562812805175,-0.0004581485991366,0.0004581485991366,0.0
1772904261666895400,6.119895263671875,-0.0212316513061523,-0.0230715870857238,0.0002948939800262,0.0007635809597559,-0.0001527161948615,0.0
1772904261685880800,6.138880859375,-0.0021352767944335,0.0077433288097381,0.0025893300771713,0.0001527161948615,0.0004581485991366,0.0006108647794462
1772904261704866300,6.1578662109375,0.0044851303100585,0.0006301999092102,-1.96248292922e-05,0.0007635809597559,-0.0001527161948615,0.0
1772904261723852000,6.17685205078125,-0.014373779296875,0.0054384768009185,0.0187621563673019,0.0013744457392022,-0.0013744457392022,0.0
1772904261742837500,6.19583740234375,-5.14984130859e-05,-0.003614991903305,0.0107927024364471,0.0007635809597559,0.0022907429374754,0.0
1772904261761823000,6.214822998046875,0.0047378540039062,0.0130757093429565,-0.0240822583436965,0.0007635809597559,0.0004581485991366,0.0
1772904261780808700,6.23380859375,-0.0047645568847656,-0.0084161162376403,-0.007336214184761,0.0013744457392022,-0.0025961752980947,-0.0006108647794462
1772904261799794200,6.252794189453125,-0.0089569091796875,-0.0128380060195922,0.0254399925470352,-0.0004581485991366,0.0016798780998215,0.0006108647794462
1772904261818779600,6.271779541015625,-0.0087337493896484,0.025084376335144,0.0180281400680542,0.0001527161948615,0.0004581485991366,0.0
1772904261837765000,6.29076513671875,0.0079784393310546,-0.0202139019966125,-0.003078281879425,0.0007635809597559,-0.0007635809597559,-0.0006108647794462
1772904261856750600,6.30975048828125,-0.0014667510986328,-0.014543205499649,0.013257548213005,0.0007635809597559,-0.0001527161948615,0.0
1772904261875736300,6.328736328125,0.007843017578125,0.0233311355113983,-0.0011712461709976,0.0007635809597559,0.0022907429374754,0.0
1772904261894721800,6.3477216796875,0.007699966430664,-0.0029422044754028,-0.0337073653936386,0.0007635809597559,-0.0013744457392022,0.0006108647794462
1772904261913707300,6.366707275390625,-0.0114641189575195,-0.0171094536781311,0.018653392791748,-0.0004581485991366,-0.0019853105768561,0.0
1772904261932692700,6.385692626953125,-0.0089607238769531,0.0140880644321441,-0.0072861611843109,0.0013744457392022,0.002901607658714,0.0
1772904261951678200,6.40467822265625,0.0077266693115234,-0.0143533051013946,-0.0306272804737091,-0.0004581485991366,-0.0019853105768561,0.0
1772904261970663700,6.42366357421875,-0.0017108917236328,-0.0023602545261383,0.0096672773361206,0.0007635809597559,-0.0013744457392022,0.0006108647794462
1772904261989649400,6.4426494140625,0.0079574584960937,-0.0070806741714477,0.0142281502485275,0.0007635809597559,0.0016798780998215,-0.0012217295588925
1772904262008635000,6.461634765625,-0.0157537460327148,-0.0096024572849273,-0.0093522369861602,0.0001527161948615,-0.0001527161948615,0.0006108647794462
1772904262027620400,6.480620361328125,-0.0060606002807617,0.0140767395496368,-0.0092355161905288,0.0001527161948615,-0.0019853105768561,0.0006108647794462
1772904262046606000,6.499606201171875,0.0011568069458007,-0.0048166215419769,0.0328032374382019,0.0019853105768561,0.0010690133785828,0.0
1772904262065591600,6.518591552734375,0.0059108734130859,0.0068537890911102,-0.01447394490242,0.0013744457392022,0.0022907429374754,0.0
1772904262084577000,6.537576904296875,0.0173568725585937,-0.0096417367458343,-0.0305074900388717,0.0007635809597559,-0.0007635809597559,0.0
1772904262103562500,6.5565625,-0.0066308975219726,-0.0071606338024139,0.0078486502170562,0.0013744457392022,-0.0007635809597559,0.0
1772904262122548000,6.5755478515625,-0.0062932968139648,-0.0069040358066558,0.0360564589500427,0.0007635809597559,0.0016798780998215,0.0
1772904262141533700,6.59453369140625,0.0032463073730468,-0.0047661364078521,-0.0185729563236236,0.0007635809597559,-0.0013744457392022,0.0006108647794462
1772904262160519200,6.613519287109375,0.0032939910888671,0.0192019045352935,-0.0065928995609283,0.0007635809597559,0.0004581485991366,-0.0006108647794462
1772904262179504600,6.632504638671875,-0.0038709640502929,-0.0001145303249359,-0.0135347247123718,0.0007635809597559,0.0010690133785828,-0.0006108647794462
1772904262198490000,6.651489990234375,0.012648582458496,-0.0071347653865814,-0.0086560100317001,0.0001527161948615,-0.0013744457392022,0.0012217295588925
1772904262217475600,6.6704755859375,-0.0014944076538085,-0.0072474479675292,-0.0037948340177536,0.0013744457392022,0.0010690133785828,0.0
1772904262236461300,6.68946142578125,0.0172252655029296,0.0001349747180938,0.0054490864276885,0.0007635809597559,0.0004581485991366,0.0
1772904262255446800,6.70844677734375,-0.0091075897216796,-0.0114859044551849,0.0029864162206649,-0.0004581485991366,0.0004581485991366,0.0006108647794462
1772904262274432300,6.727432373046875,0.0076618194580078,-0.0065124332904815,-0.0182196050882339,0.0007635809597559,-0.0013744457392022,0.0
1772904262293417700,6.746417724609375,-0.0161209106445312,-0.0042523443698883,0.014941781759262,0.0007635809597559,0.0004581485991366,0.0
1772904262312403200,6.7654033203125,-0.0019388198852539,-0.0063426196575164,-0.0042773485183715,0.0007635809597559,0.0010690133785828,0.0
1772904262331389000,6.784388916015625,-0.0043859481811523,0.0053485333919525,-0.0132567286491394,-0.0004581485991366,-0.0013744457392022,0.0
1772904262350374400,6.80337451171875,0.0074415206909179,-0.0158020257949829,0.0078876614570617,0.0007635809597559,-0.0001527161948615,0.0
1772904262369360000,6.82235986328125,-0.0042905807495117,0.0103152096271514,-0.0133902728557586,0.0013744457392022,0.0004581485991366,0.0006108647794462
1772904262388345300,6.841345458984375,-0.0206212997436523,0.0125658214092254,-0.0015288293361663,0.0019853105768561,0.0004581485991366,0.0
1772904262407330800,6.860330810546875,0.0125293731689453,0.0192302465438842,0.0057615637779235,0.0013744457392022,-0.0001527161948615,0.0
1772904262426316300,6.87931640625,0.0121927261352539,0.0048189163208007,0.0031148940324783,0.0007635809597559,-0.0007635809597559,0.0
1772904262445302000,6.898302001953125,-0.0066413879394531,0.0095106363296508,0.0004726350307464,0.0007635809597559,-0.0007635809597559,0.0012217295588925
1772904262464287500,6.91728759765625,0.000248908996582,0.0116330683231353,-0.0065398812294006,0.0007635809597559,0.002901607658714,-0.0006108647794462
1772904262483273000,6.93627294921875,0.0239238739013671,-0.0284537822008132,-0.0364127308130264,0.0001527161948615,-0.0032070400193333,0.0
1772904262502258700,6.9552587890625,0.0044593811035156,-0.0020111203193664,0.0226911008358001,0.0001527161948615,-0.0007635809597559,0.0006108647794462
1772904262521244200,6.974244140625,-0.0045785903930664,-0.0189586728811264,0.0128034055233001,0.0007635809597559,0.002901607658714,0.0
1772904262540229600,6.993229736328125,0.0119218826293945,-0.0045625865459442,-0.0320160388946533,0.0007635809597559,-0.0019853105768561,0.0006108647794462
1772904262559215000,7.012215087890625,0.0001497268676757,-0.008898377418518,0.0061788856983184,0.0007635809597559,-0.0007635809597559,0.0
1772904262578200600,7.03120068359375,0.0024652481079101,0.0097987353801727,0.0267988145351409,0.0007635809597559,0.0022907429374754,0.0006108647794462
1772904262597186300,7.050186279296875,7.91549682617e-05,0.0069356560707092,-0.0181903839111328,0.0007635809597559,0.0004581485991366,0.0012217295588925
1772904262616171800,7.069171875,-0.0186748504638671,-0.0003263652324676,-0.0179594755172729,0.0007635809597559,-0.0019853105768561,0.0
1772904262635157200,7.0881572265625,-0.0066852569580078,-0.0121354758739471,0.0270161926746368,0.0007635809597559,0.0010690133785828,0.0
1772904262654142700,7.107142822265625,-0.0066175460815429,0.0073074102401733,-0.0157831907272338,0.0007635809597559,0.0010690133785828,0.0
1772904262673128200,7.126128173828125,0.0003442764282226,0.0023273825645446,-0.0338348001241683,0.0007635809597559,-0.0013744457392022,0.0
1772904262692114000,7.145114013671875,0.0049514770507812,-0.0045478343963623,0.0044269859790802,0.0001527161948615,-0.0013744457392022,-0.0006108647794462
1772904262711099400,7.164099365234375,0.0027151107788085,0.0002529621124267,0.0092337429523468,0.0007635809597559,0.002901607658714,-0.0006108647794462
1772904262730084900,7.1830849609375,-0.0090532302856445,-0.0090954601764678,-0.0073430091142654,0.0007635809597559,-0.0001527161948615,0.0012217295588925
1772904262749070300,7.2020703125,0.0027694702148437,-0.0184744149446487,-0.0069832503795623,0.0001527161948615,-0.0007635809597559,0.0
1772904262768055800,7.221055908203125,-0.00885009765625,-0.0063124299049377,0.0047576874494552,0.0007635809597559,0.0010690133785828,-0.0006108647794462
1772904262787041500,7.24004150390625,0.009953498840332,-0.0156298577785491,-0.0144418627023696,0.0007635809597559,-0.0001527161948615,0.0
1772904262806027000,7.259027099609375,0.0094661712646484,0.0057004690170288,0.0117995887994766,0.0001527161948615,-0.0007635809597559,0.0
1772904262825012500,7.278012451171875,0.0067195892333984,-0.0087217986583709,-0.0073300898075103,0.0007635809597559,0.0004581485991366,-0.0006108647794462
1772904262843998000,7.296998046875,0.0090875625610351,-0.0036631226539611,0.0161906331777572,0.0001527161948615,0.0004581485991366,-0.0006108647794462
1772904262862983400,7.3159833984375,-0.0148639678955078,0.0081293582916259,-0.0098958313465118,0.0001527161948615,-0.0007635809597559,0.0
1772904262881969000,7.334968994140625,0.0066862106323242,0.0034347772598266,0.0068108737468719,0.0007635809597559,0.0004581485991366,0.0
1772904262900954600,7.35395458984375,0.0088577270507812,-0.0060099065303802,-0.0052135586738586,0.0019853105768561,-0.0001527161948615,0.0
1772904262919940000,7.372940185546875,0.0038976669311523,-0.0081586837768554,-0.0097979754209518,0.0007635809597559,0.0010690133785828,0.0
1772904262938925600,7.391925537109375,0.0014562606811523,0.0035282969474792,-0.016860157251358,0.0007635809597559,-0.0001527161948615,0.0
1772904262957911000,7.4109111328125,0.0037612915039062,-0.0057581365108489,0.0115892142057418,0.0007635809597559,-0.0007635809597559,0.0
1772904262976896500,7.429896484375,0.0105752944946289,0.0013571679592132,-0.0097651034593582,0.0007635809597559,-0.0001527161948615,-0.0006108647794462
1772904262995882200,7.44888232421875,0.010502815246582,-0.0030906796455383,-0.0121994465589523,0.0007635809597559,-0.0001527161948615,0.0006108647794462
1772904263014867700,7.46786767578125,0.0008211135864257,-0.0122782289981842,0.0137408524751663,0.0013744457392022,-0.0001527161948615,0.0
1772904263033853200,7.486853271484375,0.0033464431762695,0.0022900402545928,0.0041925907135009,0.0007635809597559,0.0004581485991366,0.0
1772904263052838700,7.505838623046875,0.0080585479736328,0.0070826113224029,-0.0077416896820068,0.0007635809597559,-0.0007635809597559,0.0
1772904263071824100,7.52482421875,0.005594253540039,0.0022090673446655,0.0130950510501861,0.0013744457392022,-0.0001527161948615,0.0006108647794462
1772904263090809900,7.543809814453125,-0.0157279968261718,0.0070218741893768,0.015354573726654,0.0007635809597559,-0.0001527161948615,-0.0006108647794462
1772904263109795300,7.56279541015625,0.0033817291259765,-0.0142646431922912,-0.0107749253511428,0.0013744457392022,0.0004581485991366,0.0
1772904263128780800,7.58178076171875,-0.0085783004760742,-0.0116306543350219,-0.0176592767238616,0.0007635809597559,-0.0007635809597559,0.0
1772904263147766300,7.600766357421875,-0.0016279220581054,-0.0043965280055999,0.0013077408075332,0.0013744457392022,-0.0001527161948615,0.0006108647794462
1772904263166751700,7.619751708984375,-0.0065507888793945,-0.0021620392799377,-0.0080256015062332,0.0001527161948615,0.0004581485991366,0.0006108647794462
1772904263185737500,7.638737548828125,-0.0110445022583007,-0.0234575867652893,0.0035864561796188,0.0007635809597559,-0.0013744457392022,0.0
1772904263204723000,7.657722900390625,-0.0015029907226562,0.0123811364173889,0.0060038119554519,0.0013744457392022,0.0010690133785828,0.0
1772904263223708400,7.67670849609375,0.0008211135864257,0.0077792704105377,0.0104962140321731,0.0013744457392022,-0.0001527161948615,0.0006108647794462
1772904263242694000,7.69569384765625,-0.0134429931640625,0.0006671249866485,0.0127331018447875,0.0007635809597559,-0.0001527161948615,0.0
1772904263261679400,7.714679443359375,-0.0104904174804687,-0.0040922462940216,-0.0040852427482604,-0.0004581485991366,-0.0007635809597559,0.0
1772904263280664800,7.733664794921875,-0.0054378509521484,-0.0065178573131561,-0.0019585043191909,0.0007635809597559,-0.0007635809597559,0.0006108647794462
1772904263299650600,7.752650634765625,-0.0054168701171875,-0.0040223002433776,-0.0089816749095916,0.0007635809597559,0.0004581485991366,0.0
1772904263318636000,7.771635986328125,-0.0004911422729492,0.0173155963420867,-0.0137948393821716,0.0007635809597559,-0.0001527161948615,0.0006108647794462
1772904263337621500,7.79062158203125,0.003997802734375,0.0100254118442535,0.0078652501106262,0.0007635809597559,0.0010690133785828,0.0006108647794462
1772904263356607000,7.80960693359375,-0.0053081512451171,0.0167561471462249,-0.004119262099266,0.0013744457392022,0.0004581485991366,0.0
1772904263375592400,7.828592529296875,0.0039663314819335,0.0116030871868133,-0.0156984478235244,0.0007635809597559,0.0004581485991366,0.0
1772904263394578200,7.847578125,-0.005812644958496,0.0160486698150634,-0.0106605440378189,0.0007635809597559,-0.0001527161948615,0.0
1772904263413563600,7.866563720703125,-0.0031509399414062,0.0112514495849609,-0.0081792771816253,0.0001527161948615,-0.0007635809597559,0.0
1772904263432549000,7.885549072265625,-0.0150861740112304,-0.0098611712455749,0.0132752656936645,0.0007635809597559,-0.0001527161948615,0.0
1772904263451534600,7.90453466796875,-0.0194911956787109,0.0089812874794006,-0.0012889504432678,0.0001527161948615,-0.0013744457392022,0.0
1772904263470520000,7.92352001953125,0.0043277740478515,0.0040223896503448,0.0030382573604583,0.0007635809597559,0.0004581485991366,0.0006108647794462
1772904263489505800,7.942505859375,0.00677490234375,0.008522480726242,-0.0016464442014694,0.0007635809597559,0.0004581485991366,0.0
1772904263508491300,7.9614912109375,0.0138063430786132,0.0154415965080261,-0.0087005198001861,-0.0004581485991366,-0.0001527161948615,0.0
1772904263527476700,7.980476806640625,0.0063724517822265,0.0035693943500518,0.0033557415008544,0.0007635809597559,0.0004581485991366,0.0006108647794462
1772904263546462200,7.999462158203125,-0.0030593872070312,0.0203547477722167,0.0127668380737304,0.0007635809597559,-0.0001527161948615,-0.0012217295588925
1772904263565447700,8.01844775390625,0.0109634399414062,0.0199619829654693,-0.003785416483879,0.0007635809597559,0.0004581485991366,0.0
1772904263584433400,8.037433349609374,0.0039691925048828,0.0054242014884948,-0.0090199708938598,0.0007635809597559,-0.0007635809597559,0.0
1772904263603419000,8.0564189453125,0.0110158920288085,-0.0085285305976867,0.0074481964111328,-0.0004581485991366,0.0004581485991366,0.0
1772904263622404400,8.075404296875,-0.0031929016113281,-0.0084371268749237,-0.0162800103425979,0.0007635809597559,-0.0007635809597559,0.0
1772904263641389800,8.094389892578125,0.0085182189941406,0.0079815685749053,-0.0089422315359115,0.0007635809597559,-0.0001527161948615,0.0
1772904263660375300,8.113375244140625,-0.003645896911621,0.0009555518627166,0.0077102482318878,0.0007635809597559,0.0004581485991366,0.0
1772904263679360800,8.13236083984375,0.0105533599853515,0.024341344833374,-0.010832667350769,0.0007635809597559,-0.0001527161948615,0.0
1772904263698346500,8.151346435546875,0.0059690475463867,-0.0044969320297241,0.0130247473716735,0.0007635809597559,-0.0001527161948615,0.0
1772904263717331700,8.170331787109374,-0.0034074783325195,-0.0141444206237792,-0.0059766918420791,0.0001527161948615,-0.0007635809597559,0.0
1772904263736317400,8.1893173828125,-0.0079631805419921,-0.0093575417995452,-0.001314952969551,0.0007635809597559,0.0004581485991366,0.0
1772904263755303000,8.208302978515626,-0.0052309036254882,-0.0090818703174591,-0.0200249105691909,0.0007635809597559,-0.0007635809597559,0.0
1772904263774288400,8.227288330078125,0.0039634704589843,0.0004230439662933,0.0035089403390884,0.0007635809597559,-0.0001527161948615,0.0
1772904263793273900,8.24627392578125,-0.0126733779907226,-0.0162293016910552,-0.0059983283281326,0.0007635809597559,0.0004581485991366,0.0
1772904263812259300,8.26525927734375,-0.0031185150146484,-0.0160021483898162,-0.0175580382347106,0.0007635809597559,-0.0007635809597559,0.0
1772904263831245000,8.2842451171875,-0.003366470336914,0.017042189836502,0.0113008171319961,0.0007635809597559,0.0004581485991366,0.0
1772904263850230500,8.30323046875,-0.0079984664916992,0.0049941837787628,0.0109312087297439,0.0007635809597559,0.0004581485991366,0.0
1772904263869216000,8.322216064453125,-0.0029850006103515,0.000308483839035,0.0156114846467971,0.0007635809597559,0.0004581485991366,0.0006108647794462
1772904263888201500,8.341201416015625,-0.0005693435668945,0.0023276805877685,-0.0128206610679626,0.0001527161948615,0.0004581485991366,0.0
1772904263907187000,8.36018701171875,0.0063486099243164,0.0071997046470642,0.0061478167772293,-0.0004581485991366,-0.0001527161948615,0.0
1772904263926172700,8.379172607421875,0.0134754180908203,-0.0023835599422454,-0.017227903008461,0.0007635809597559,0.0004581485991366,0.0006108647794462
1772904263945158100,8.398158203125,0.0204782485961914,0.0072137117385864,-0.0194283872842788,0.0001527161948615,-0.0007635809597559,0.0
1772904263964143600,8.4171435546875,0.0014142990112304,0.0117682516574859,0.0045103728771209,0.0013744457392022,0.0004581485991366,0.0012217295588925
1772904263983129000,8.436129150390625,0.0013256072998046,0.0069348216056823,0.0041780173778533,0.0007635809597559,-0.0007635809597559,0.0006108647794462
1772904264002114600,8.455114501953124,0.0106163024902343,-0.0118771493434906,0.0064194500446319,0.0007635809597559,0.0004581485991366,0.0
1772904264021100000,8.47410009765625,-0.0154228210449218,-0.0070650875568389,-0.0055823028087615,0.0007635809597559,-0.0007635809597559,0.0006108647794462
1772904264040085800,8.493085693359374,-0.0034608840942382,0.0047796070575714,-0.0006125718355178,0.0013744457392022,0.0004581485991366,0.0
1772904264059071200,8.5120712890625,0.0035171508789062,0.0208221077919006,-0.0122926980257034,0.0007635809597559,0.0004581485991366,0.0
1772904264078056700,8.531056640625,-0.0012273788452148,-0.0075861513614654,-0.0051321387290954,0.0007635809597559,-0.0001527161948615,0.0
1772904264097042200,8.550042236328125,-0.0105562210083007,0.0039706230163574,-0.0096960216760635,0.0007635809597559,0.0004581485991366,0.0006108647794462
1772904264116027600,8.569027587890625,0.0155582427978515,-0.0098794102668762,-0.0021708905696868,-0.0004581485991366,0.0004581485991366,0.0
1772904264135013000,8.58801318359375,-0.0083265304565429,0.006986528635025,0.0001823455095291,0.0007635809597559,0.0004581485991366,0.0006108647794462
1772904264153998600,8.60699853515625,-0.0175399780273437,-0.0095134377479553,-0.0021901875734329,0.0007635809597559,-0.0001527161948615,0.0
1772904264172984300,8.625984375,0.0085306167602539,0.0094381868839263,0.0049095004796981,0.0001527161948615,-0.0001527161948615,0.0006108647794462
1772904264191969800,8.6449697265625,0.0010366439819335,0.0047611594200134,-0.0141523033380508,0.0007635809597559,0.0004581485991366,0.0
1772904264210955300,8.663955322265625,-0.0060138702392578,-0.0118014812469482,-0.0115644335746765,0.0013744457392022,0.0004581485991366,0.0006108647794462
1772904264229940700,8.682940673828124,0.0014009475708007,-0.0067164599895477,-0.0091328620910644,0.0007635809597559,0.0004581485991366,0.0
1772904264248926200,8.70192626953125,-0.0009984970092773,-0.013412594795227,0.007274106144905,0.0007635809597559,0.0004581485991366,-0.0006108647794462
1772904264267912000,8.720911865234376,0.0038204193115234,0.0033096969127655,-0.0002754926681518,0.0007635809597559,-0.0001527161948615,0.0
1772904264286897400,8.7398974609375,-0.0033655166625976,0.0032441020011901,0.0137985199689865,0.0007635809597559,-0.0001527161948615,0.0006108647794462
1772904264305883000,8.7588828125,0.0039625167846679,0.0173385143280029,-0.0027495771646499,0.0007635809597559,-0.0001527161948615,0.0
1772904264324868400,8.777868408203124,0.004185676574707,-0.0089131593704223,-0.0049828886985778,0.0001527161948615,-0.0001527161948615,0.0
1772904264343853800,8.796853759765625,0.0064783096313476,-0.0035530626773834,0.0136465281248092,0.0007635809597559,-0.0001527161948615,0.0
1772904264362839600,8.815839599609374,-0.0053043365478515,-0.0128427743911743,-0.016934797167778,0.0007635809597559,0.0004581485991366,0.0006108647794462
1772904264381824800,8.83482470703125,0.0042028427124023,-0.0082155168056488,-0.0116201937198638,0.0001527161948615,-0.0007635809597559,0.0
1772904264400810200,8.853810302734376,-0.0004081726074218,0.0154330134391784,-0.004208818078041,0.0013744457392022,-0.0001527161948615,0.0
1772904264419796000,8.8727958984375,0.0113716125488281,0.001125544309616,0.0055828243494033,0.0007635809597559,0.0004581485991366,0.0
1772904264438781400,8.891781494140625,0.0018157958984375,-0.0197523236274719,-0.0182178914546966,0.0007635809597559,-0.0007635809597559,0.0
1772904264457767000,8.910766845703124,-0.0030269622802734,-0.0003879964351654,0.0174698084592819,0.0007635809597559,0.0004581485991366,0.0
1772904264476752400,8.92975244140625,0.0039749145507812,-0.011609137058258,-0.0042982101440429,0.0007635809597559,0.0004581485991366,0.0
1772904264495737900,8.94873779296875,-0.0147829055786132,-0.0159649401903152,-0.0040684938430786,0.0007635809597559,-0.0001527161948615,0.0
1772904264514723600,8.9677236328125,-0.0143718719482421,0.0220966041088104,-0.0042617619037628,0.0013744457392022,0.0004581485991366,0.0
1772904264533709000,8.986708984375,-5.53131103515e-05,-0.0088862776756286,-0.004273772239685,0.0007635809597559,0.0004581485991366,0.0
1772904264552694500,9.005694580078124,0.0024147033691406,-0.013510525226593,0.0029762089252471,0.0007635809597559,-0.0001527161948615,0.0
1772904264571680000,9.024679931640623,0.0023727416992187,-0.0107662081718444,0.0050855576992034,0.0001527161948615,0.0004581485991366,0.0
1772904264590665500,9.04366552734375,-0.0022535324096679,-0.0011271834373474,-0.0094655305147171,0.0007635809597559,-0.0001527161948615,0.0
1772904264609651000,9.06265087890625,0.0071535110473632,0.0154254138469696,-0.0049071758985519,0.0007635809597559,0.0004581485991366,0.0
1772904264628636400,9.081636474609375,-0.0139436721801757,-0.0013523697853088,0.0001067370176315,0.0001527161948615,0.0004581485991366,0.0
1772904264647622100,9.1006220703125,-0.004500389099121,-0.0157715827226638,0.0118341743946075,0.0001527161948615,0.0004581485991366,0.0
1772904264666607600,9.119607666015623,-0.0045051574707031,-0.003794640302658,-0.0047316551208496,0.0007635809597559,0.0010690133785828,0.0006108647794462
1772904264685593000,9.138593017578126,-0.0092964172363281,0.0104757249355316,0.0094514340162277,0.0007635809597559,0.0004581485991366,0.0006108647794462
1772904264704578600,9.15757861328125,0.0096778869628906,0.0032711029052734,-0.0072846710681915,0.0013744457392022,-0.0001527161948615,0.0
1772904264723564000,9.17656396484375,-0.016209602355957,-0.0087292492389678,0.0095725208520889,0.0007635809597559,0.0004581485991366,0.0
1772904264742549800,9.1955498046875,0.0030298233032226,0.0058001279830932,0.0234056562185287,0.0007635809597559,-0.0001527161948615,0.0
1772904264761535200,9.21453515625,0.0172834396362304,0.0127274394035339,-0.0263852030038833,0.0013744457392022,0.0004581485991366,0.0
1772904264780520700,9.233520751953124,0.005218505859375,0.0005878508090972,-0.0165167450904846,0.0007635809597559,-0.0007635809597559,0.0
1772904264799506200,9.252506103515625,-0.0137748718261718,-0.0182268917560577,0.0187390893697738,0.0007635809597559,0.0004581485991366,0.0
1772904264818491600,9.27149169921875,-0.0110836029052734,-0.0014620423316955,-0.0004428923130035,0.0007635809597559,-0.0001527161948615,0.0
1772904264837477000,9.29047705078125,0.0008878707885742,-0.0109167098999023,0.0064874291419982,-0.0004581485991366,-0.0001527161948615,-0.0006108647794462
1772904264856462600,9.309462646484375,0.0032129287719726,0.0104334354400634,-0.0150519460439682,0.0001527161948615,0.0004581485991366,0.0
1772904264875448000,9.328447998046874,0.0172643661499023,-0.0179070532321929,-0.0102155059576034,0.0013744457392022,0.0004581485991366,0.0
1772904264894433800,9.347433837890623,0.0005350112915039,-0.0150339752435684,-0.0127071738243103,0.0001527161948615,-0.0001527161948615,0.0
1772904264913419300,9.366419189453126,-0.0016794204711914,0.015861839056015,-0.0007853209972381,0.0007635809597559,0.0004581485991366,0.0
1772904264932404700,9.38540478515625,0.0007686614990234,0.0134618282318115,-0.0169674158096313,0.0001527161948615,-0.0001527161948615,0.0
1772904264951390200,9.40439013671875,0.0030593872070312,0.0107859671115875,-0.011619746685028,0.0007635809597559,0.0004581485991366,0.0
1772904264970375700,9.423375732421874,0.0030736923217773,-0.0057828724384307,0.0073617994785308,0.0007635809597559,-0.0001527161948615,-0.0006108647794462
1772904264989361200,9.442361083984377,-0.0040798187255859,0.0035716891288757,0.0099392384290695,0.0007635809597559,0.0010690133785828,0.0006108647794462
1772904265008346600,9.4613466796875,0.0055456161499023,0.0056006610393524,0.0265800505876541,0.0001527161948615,0.0004581485991366,0.0
1772904265027332400,9.480332275390625,0.0125789642333984,0.0220712423324584,0.0022997856140136,0.0007635809597559,0.0004581485991366,0.0
1772904265046317800,9.49931787109375,-0.0063447952270507,0.0122741162776947,0.0047240108251571,0.0001527161948615,0.0004581485991366,0.0
1772904265065303300,9.51830322265625,0.0053529739379882,-0.0090495944023132,0.0001079589128494,0.0001527161948615,-0.0001527161948615,0.0
1772904265084288800,9.537288818359375,0.0075664520263671,-0.0063343346118927,-0.0022393465042114,0.0007635809597559,-0.0001527161948615,-0.0012217295588925
1772904265103274200,9.556274169921876,0.0097084045410156,0.0032708048820495,0.0070950537919998,0.0001527161948615,0.0004581485991366,0.0
1772904265122260000,9.575260009765625,9.25064086914e-05,0.0029318332672119,-0.0050533562898635,0.0007635809597559,-0.0001527161948615,0.0
1772904265141245200,9.5942451171875,-0.0092420578002929,0.0214504599571228,0.0067699700593948,0.0007635809597559,-0.0001527161948615,0.0006108647794462
1772904265160231000,9.61323095703125,0.0051040649414062,-7.66217708587e-05,-0.0074890553951263,0.0007635809597559,0.0004581485991366,0.0
1772904265179216400,9.63221630859375,-0.0044746398925781,0.018480509519577,-0.0121961832046508,0.0007635809597559,-0.0001527161948615,0.0
1772904265198201900,9.651201904296874,-0.0047197341918945,-0.0073427855968475,-0.0140603929758071,0.0013744457392022,0.0004581485991366,0.0
1772904265217187300,9.670187255859377,0.0046510696411132,0.0190242826938629,0.0049641132354736,0.0001527161948615,-0.0001527161948615,0.0
1772904265236172800,9.6891728515625,-0.0047168731689453,-0.014422595500946,0.0166688859462738,0.0007635809597559,-0.0001527161948615,0.0
1772904265255158300,9.708158203125,-0.0045595169067382,0.0233961641788482,0.0024775713682174,0.0007635809597559,-0.0007635809597559,0.0012217295588925
1772904265274144000,9.72714404296875,-0.0046854019165039,-0.0027670562267303,-0.0073230564594268,0.0007635809597559,-0.0007635809597559,-0.0006108647794462
1772904265293129200,9.746129150390624,-5.91278076171e-05,0.0205638706684112,-0.0003317892551422,0.0019853105768561,0.0004581485991366,0.0
1772904265312115000,9.765114990234377,-0.0047597885131835,0.0082425773143768,0.0136831402778625,0.0007635809597559,0.0004581485991366,0.0
1772904265331100400,9.784100341796876,0.0024528503417968,0.0032316744327545,0.0016171485185623,0.0001527161948615,-0.0001527161948615,0.0
1772904265350086000,9.8030859375,-0.0024137496948242,-0.0088304281234741,0.0108268111944198,0.0007635809597559,-0.0007635809597559,0.0
1772904265369071400,9.8220712890625,0.0068826675415039,-0.0063368678092956,-0.0082495361566543,0.0007635809597559,0.0004581485991366,0.0
1772904265388056800,9.841056884765624,0.0181865692138671,-0.0036306381225585,0.0013239830732345,0.0007635809597559,-0.0007635809597559,0.0006108647794462
1772904265407042600,9.86004248046875,-0.0197458267211914,-0.0154028236865997,-0.0198680907487869,0.0001527161948615,0.0004581485991366,0.0
1772904265426027800,9.87902783203125,0.0039272308349609,0.0037774443626403,-0.0029910802841186,0.0007635809597559,-0.0001527161948615,0.0
1772904265445013500,9.898013427734377,-0.0055370330810546,0.0033484995365142,-0.0031146556138992,0.0013744457392022,-0.0007635809597559,0.0006108647794462
1772904265463999000,9.9169990234375,-0.0219411849975585,0.0126596093177795,-0.0052937120199203,-0.0004581485991366,-0.0001527161948615,0.0
1772904265482984400,9.935984375,0.0020790100097656,-0.0158721208572387,-0.0098386853933334,0.0013744457392022,0.0004581485991366,0.0
1772904265501970000,9.954969970703123,-0.007516860961914,-0.0010632872581481,0.0161804854869842,0.0013744457392022,-0.0001527161948615,0.0006108647794462
1772904265520955400,9.973955322265626,0.0020294189453125,-0.0034071505069732,-0.0004810094833374,-0.0004581485991366,-0.0001527161948615,0.0012217295588925
1772904265539940900,9.99294091796875,0.0020427703857421,-0.003266304731369,0.0017174631357192,0.0007635809597559,-0.0001527161948615,0.0
1772904265558926300,10.01192626953125,0.0091524124145507,-0.0027595460414886,0.0013968646526336,0.0007635809597559,-0.0001527161948615,0.0
1772904265577911800,10.030911865234376,0.0043764114379882,0.0186552107334136,-0.0059667825698852,0.0001527161948615,-0.0007635809597559,0.0
1772904265596897500,10.0498974609375,0.0089788436889648,-0.005209743976593,-0.0009013265371322,0.0007635809597559,0.0004581485991366,0.0
1772904265615883000,10.068883056640624,-0.0028066635131835,-0.0027574896812438,0.0250540524721145,0.0007635809597559,0.0004581485991366,0.0
1772904265634868500,10.087868408203123,0.0043439865112304,0.0137717425823211,-0.0084476023912429,0.0007635809597559,-0.0007635809597559,0.0
1772904265653854000,10.10685400390625,0.0018482208251953,0.00881227850914,0.0011689215898513,0.0007635809597559,0.0004581485991366,0.0
1772904265672839400,10.12583935546875,0.004338264465332,-0.0075301527976989,-0.0245870351791381,0.0013744457392022,-0.0007635809597559,0.0006108647794462
1772904265691825200,10.1448251953125,0.0113334655761718,-0.0028012096881866,-0.0053532719612121,0.0013744457392022,-0.0001527161948615,0.0
1772904265710810400,10.163810302734374,-0.0054302215576171,-0.0100756287574768,0.0043178498744964,0.0007635809597559,0.0004581485991366,0.0
1772904265729796000,10.182796142578123,-0.0005455017089843,0.0020287930965423,-0.0100494772195816,0.0001527161948615,-0.0001527161948615,0.0
1772904265748781600,10.201781494140626,-0.0146808624267578,0.0068516135215759,-0.0100677460432052,0.0007635809597559,0.0004581485991366,0.0
1772904265767767000,10.22076708984375,-0.0005455017089843,0.0112012922763824,0.0041106641292572,0.0007635809597559,0.0004581485991366,0.0
1772904265786752500,10.23975244140625,-0.0078611373901367,-0.0010632872581481,-0.0053267329931259,0.0007635809597559,-0.0001527161948615,0.0006108647794462
1772904265805738000,10.258738037109374,0.0110635757446289,0.0037998259067535,0.0157991349697113,0.0013744457392022,0.0004581485991366,0.0
1772904265824723500,10.277723388671877,0.0086612701416015,0.0034837126731872,0.0154943913221359,0.0007635809597559,0.0010690133785828,0.0
1772904265843709000,10.296708984375,0.0064525604248046,0.0034917593002319,0.0037190169095993,0.0001527161948615,-0.0007635809597559,0.0
1772904265862694700,10.315694580078125,-0.005721092224121,0.0059916675090789,0.0011331290006637,0.0013744457392022,-0.0001527161948615,0.0
1772904265881680100,10.33468017578125,-0.0009822845458984,-0.0174949169158935,-0.0037021785974502,0.0007635809597559,-0.0001527161948615,0.0
1772904265900665600,10.35366552734375,0.0037574768066406,0.008618414402008,-0.003710001707077,0.0007635809597559,0.0004581485991366,0.0
1772904265919651000,10.372651123046875,0.0036725997924804,0.0085950195789337,-0.0081296563148498,0.0007635809597559,-0.0007635809597559,0.0006108647794462
1772904265938636500,10.391636474609374,-0.0102901458740234,0.0013360083103179,0.0107931345701217,0.0007635809597559,0.0004581485991366,0.0
1772904265957622000,10.4106220703125,-0.0029287338256835,0.0103780329227447,-0.0154193341732025,0.0007635809597559,0.0004581485991366,0.0006108647794462
1772904265976607500,10.429607421875,0.006500244140625,0.0007845163345336,-0.0012714862823486,0.0007635809597559,-0.0001527161948615,0.0
1772904265995593000,10.448593017578125,0.0112276077270507,-0.0015876591205596,0.0056780129671096,0.0001527161948615,0.0004581485991366,0.0
1772904266014578700,10.46757861328125,0.0181074142456054,0.0129183530807495,0.0031290501356124,0.0007635809597559,-0.0007635809597559,0.0
1772904266033564200,10.486564208984374,0.0059394836425781,0.0007723569869995,0.0055847316980361,0.0007635809597559,0.0004581485991366,-0.0006108647794462
1772904266052549600,10.505549560546877,-0.0058250427246093,0.0127120614051818,-0.0038863569498062,0.0013744457392022,-0.0001527161948615,0.0
1772904266071535000,10.52453515625,-0.0054349899291992,0.0004542768001556,0.0152090042829513,0.0007635809597559,-0.0001527161948615,0.0
1772904266090520600,10.5435205078125,-0.0125865936279296,0.0028989017009735,0.0008670687675476,0.0007635809597559,0.0004581485991366,0.0
1772904266109506000,10.562506103515624,0.0067310333251953,0.0143795013427734,-0.0039739310741424,0.0007635809597559,-0.0007635809597559,0.0
1772904266128491500,10.581491455078124,0.0090150833129882,-0.0048342943191528,0.010055661201477,0.0001527161948615,-0.0007635809597559,0.0
1772904266147477000,10.60047705078125,-0.0029325485229492,0.0047046244144439,-0.0111076682806015,0.0007635809597559,-0.0001527161948615,-0.0006108647794462
1772904266166462500,10.61946240234375,-0.007817268371582,-0.0071521997451782,-0.001474916934967,0.0001527161948615,-0.0001527161948615,-0.0006108647794462
1772904266185448200,10.6384482421875,-0.0075626373291015,-0.004421979188919,-0.0088839530944824,0.0007635809597559,-0.0007635809597559,0.0
1772904266204433700,10.65743359375,0.002058982849121,0.0102189779281616,0.0146700888872146,0.0007635809597559,0.0004581485991366,-0.0006108647794462
1772904266223419100,10.676419189453124,-0.002516746520996,0.0171645581722259,-0.0114729553461074,0.0001527161948615,0.0004581485991366,0.0006108647794462
1772904266242404600,10.695404541015623,-0.0139999389648437,-0.0118484199047088,-0.0041081458330154,0.0013744457392022,-0.0007635809597559,0.0006108647794462
1772904266261390000,10.71439013671875,0.0051307678222656,-0.0166614949703216,-0.0016479045152664,-0.0004581485991366,-0.0001527161948615,0.0012217295588925
1772904266280375600,10.73337548828125,-0.0019006729125976,0.0027574598789215,-0.0182969123125076,0.0007635809597559,0.0004581485991366,-0.0006108647794462
1772904266299361000,10.752361083984376,0.0027494430541992,-0.0043272674083709,0.0007279515266418,0.0013744457392022,-0.0007635809597559,0.0
1772904266318346500,10.771346435546874,-0.0349483489990234,0.0097440183162689,0.0078300684690475,0.0007635809597559,0.0004581485991366,0.0
1772904266337332200,10.790332275390623,0.0032272338867187,-0.0046508014202117,-0.0063623338937759,0.0007635809597559,-0.0001527161948615,0.0006108647794462
1772904266356317400,10.8093173828125,-0.001347541809082,-0.0021156668663024,-0.0153230726718902,0.0001527161948615,0.0004581485991366,0.0006108647794462
1772904266375303200,10.82830322265625,0.0150108337402343,-0.0282362550497055,0.0038593113422393,0.0001527161948615,-0.0001527161948615,0.0
1772904266394288600,10.84728857421875,0.0147504806518554,0.0075653791427612,-0.0102983117103576,0.0007635809597559,-0.0001527161948615,0.0
1772904266413274000,10.866274169921876,0.0048151016235351,0.0164860188961029,0.0087571591138839,0.0007635809597559,-0.0001527161948615,0.0006108647794462
1772904266432259600,10.885259521484375,-0.0070323944091796,-0.0098171830177307,0.0063983798027038,0.0007635809597559,-0.0001527161948615,-0.0006108647794462
1772904266451245000,10.9042451171875,-0.0022878646850585,-0.0094664692878723,0.0133091062307357,0.0007635809597559,-0.0001527161948615,0.0006108647794462
1772904266470230500,10.92323046875,0.0070419311523437,-4.99784946441e-05,0.031646117568016,0.0007635809597559,-0.0001527161948615,0.0
1772904266489216000,10.942216064453126,-0.0025253295898437,0.0166012942790985,-0.0089821219444274,0.0007635809597559,-0.0001527161948615,0.0
1772904266508201700,10.96120166015625,-0.0144567489624023,0.0016284883022308,-0.0034777075052261,0.0001527161948615,0.006566796451807,0.0054977829568088
1772904266527187200,10.980187255859375,-0.1059942245483398,0.0115149021148681,0.0075580328702926,0.0007635809597559,0.0945313274860382,0.0048869182355701
1772904266546172700,10.999172607421874,0.0605392456054687,0.0147668719291687,-0.02957084774971,0.0019853105768561,0.0468838736414909,0.0030543238390237
1772904266565158100,11.018158203125,0.0150508880615234,-0.0308773070573806,0.023727536201477,0.0050396346487104,-0.0459675751626491,-0.0073303775861859
1772904266584143600,11.0371435546875,0.0445919036865234,-0.0154621303081512,0.0156162232160568,-0.0010690133785828,-0.0930041596293449,-0.0042760535143315
1772904266603129000,11.056129150390625,-0.0664129257202148,0.023360788822174,-0.0194873213768005,-0.0035124723799526,-0.0056504993699491,-0.0042760535143315
