time,seconds_elapsed,acc_z,acc_y,acc_x,gyro_z,gyro_y,gyro_x
1772904280756786400,0.883786376953125,-0.0078563690185546,-0.008440762758255,0.0052728801965713,0.0007635809597559,-0.0007635809597559,0.0
1772904280775771600,0.902771728515625,0.0064458847045898,-0.0013088881969451,-0.0017979145050048,0.0007635809597559,0.0004581485991366,0.0
1772904280794757000,0.921757080078125,-0.010162353515625,-0.0173209756612777,0.0004100352525711,0.0007635809597559,-0.0007635809597559,-0.0006108647794462
1772904280813742300,0.940742431640625,0.0064449310302734,0.0017669796943664,0.0028979480266571,0.0007635809597559,-0.0007635809597559,0.0
1772904280832727800,0.959727783203125,-0.0007886886596679,0.0183992683887481,-0.0065437257289886,0.0001527161948615,0.0004581485991366,-0.0012217295588925
1772904280851713300,0.97871337890625,0.0015516281127929,0.0112442970275878,-0.0135611295700073,0.0019853105768561,-0.0001527161948615,0.0
1772904280870698500,0.997698486328125,-0.0006599426269531,0.0065046250820159,0.0103714615106582,0.0001527161948615,-0.0001527161948615,-0.0006108647794462
1772904280889684000,1.01668408203125,-0.000680923461914,-0.0102550089359283,0.0122375190258026,0.0013744457392022,-0.0007635809597559,0.0
1772904280908669400,1.03566943359375,-0.0101470947265625,0.0132268667221069,0.0028958171606063,0.0007635809597559,0.0004581485991366,0.0
1772904280927655000,1.054655029296875,0.0015602111816406,0.0084433853626251,-0.0087588131427764,0.0001527161948615,-0.0007635809597559,0.0
1772904280946640100,1.07364013671875,-0.0101842880249023,-0.0197569131851196,-0.0015137940645217,0.0007635809597559,-0.0007635809597559,-0.0006108647794462
1772904280965625600,1.09262548828125,0.0039997100830078,-0.0031094849109649,0.0126428604125976,0.0001527161948615,0.0004581485991366,0.0012217295588925
1772904280984611000,1.111611083984375,0.01092529296875,0.0179990231990814,-0.011136382818222,0.0001527161948615,-0.0007635809597559,-0.0006108647794462
1772904281003596300,1.13059619140625,-0.0222225189208984,-0.0084335207939147,-0.0157560557126998,0.0007635809597559,-0.0001527161948615,0.0
1772904281022581800,1.149581787109375,0.0113372802734375,0.0033029317855834,0.0105575919151306,0.0007635809597559,0.0004581485991366,0.0
1772904281041567200,1.168567138671875,0.0157861709594726,0.0079029500484466,-0.0085913240909576,0.0019853105768561,0.0004581485991366,0.0
1772904281060552400,1.187552490234375,0.0109071731567382,0.0052880644798278,-0.0178848803043365,0.0007635809597559,-0.0001527161948615,-0.0006108647794462
1772904281079538000,1.206537841796875,-0.0083961486816406,0.0052757263183593,0.0126596987247467,0.0007635809597559,-0.0001527161948615,0.0
1772904281098523400,1.2255234375,0.0034494400024414,-0.006658911705017,-0.006574660539627,0.0007635809597559,-0.0001527161948615,0.0
1772904281117508600,1.244508544921875,0.0009794235229492,0.0123511254787445,-0.0182253718376159,0.0007635809597559,-0.0007635809597559,0.0
1772904281136494000,1.263494140625,0.0125913619995117,-0.0115242898464202,-0.0110255628824234,0.0007635809597559,-0.0001527161948615,-0.0006108647794462
1772904281155479600,1.2824794921875,-0.0063734054565429,-0.0017652213573455,-0.0013578534126281,0.0007635809597559,-0.0001527161948615,0.0
1772904281174464800,1.30146484375,0.0077199935913085,0.0026527643203735,-0.0082661360502243,0.0001527161948615,-0.0001527161948615,0.0
1772904281193450200,1.3204501953125,0.0123262405395507,-0.0018596351146697,-0.0059831589460372,0.0001527161948615,-0.0007635809597559,0.0
1772904281212435700,1.339435791015625,-0.0046672821044921,-0.0183438509702682,0.0059637427330017,0.0007635809597559,0.0004581485991366,0.0
1772904281231421000,1.3584208984375,-0.0044746398925781,-0.0017319023609161,-0.012930154800415,0.0007635809597559,-0.0001527161948615,0.0
1772904281250406400,1.377406494140625,-0.0068006515502929,-0.0111996829509735,-0.0035095810890197,0.0013744457392022,-0.0007635809597559,0.0
1772904281269391600,1.3963916015625,-0.014103889465332,-0.008839339017868,0.0103435218334198,0.0007635809597559,0.0004581485991366,0.0
1772904281288377300,1.41537744140625,-0.006300926208496,-0.0016953945159912,-0.0040161311626434,0.0007635809597559,0.0010690133785828,0.0
1772904281307362600,1.434362548828125,-0.0060539245605468,-0.0182012170553207,-0.0088102519512176,0.0007635809597559,-0.0007635809597559,0.0012217295588925
1772904281326348000,1.45334814453125,0.0009679794311523,0.0123679339885711,-0.022917091846466,0.0007635809597559,-0.0001527161948615,0.0
1772904281345333200,1.472333251953125,-0.0014209747314453,-0.0116824209690094,0.0149920284748077,0.0007635809597559,-0.0007635809597559,0.0
1772904281364318700,1.491318603515625,0.003331184387207,0.0070810914039611,-0.0063768178224563,0.0001527161948615,-0.0001527161948615,0.0
1772904281383304200,1.51030419921875,0.0054950714111328,0.0093601942062377,0.0053293853998184,0.0007635809597559,-0.0007635809597559,0.0
1772904281402289400,1.529289306640625,0.0101356506347656,-0.002493679523468,0.0099264681339263,0.0001527161948615,0.0004581485991366,-0.0006108647794462
1772904281421275000,1.54827490234375,0.0027389526367187,0.0045366287231445,-0.0021339952945709,0.0001527161948615,-0.0007635809597559,0.0
1772904281440260400,1.56726025390625,-0.0067243576049804,0.0089412927627563,0.0027691721916198,0.0007635809597559,-0.0001527161948615,0.0
1772904281459245600,1.58624560546875,0.0028724670410156,-0.0028565824031829,-0.0183560848236084,0.0013744457392022,0.0004581485991366,0.0
1772904281478231000,1.60523095703125,0.0076799392700195,-0.0029679238796234,-0.0106381624937057,0.0001527161948615,0.0004581485991366,0.0006108647794462
1772904281497216500,1.624216552734375,-0.0019435882568359,-0.0241956412792205,0.0179539024829864,0.0019853105768561,-0.0007635809597559,0.0012217295588925
1772904281516201700,1.64320166015625,0.0005168914794921,0.0139822959899902,0.0058916807174682,0.0007635809597559,0.0010690133785828,0.0
1772904281535187200,1.662187255859375,0.000655174255371,-0.0028512179851531,0.0083086937665939,0.0019853105768561,0.0004581485991366,-0.0006108647794462
1772904281554172700,1.681172607421875,0.0075368881225585,-0.0006109178066253,0.003551423549652,0.0007635809597559,-0.0001527161948615,0.0006108647794462
1772904281573158000,1.700157958984375,-0.015848159790039,0.006534457206726,0.001144453883171,0.0013744457392022,-0.0001527161948615,0.0
1772904281592143400,1.719143310546875,0.0033435821533203,0.0085202455520629,0.003857210278511,0.0007635809597559,0.0004581485991366,0.0006108647794462
1772904281611128800,1.73812890625,-0.0156269073486328,-0.0011068880558013,-0.021932452917099,0.0013744457392022,-0.0001527161948615,0.0
1772904281630114000,1.757114013671875,-0.0056591033935546,0.0057218372821807,-0.0051560699939727,0.0001527161948615,-0.0001527161948615,0.0
1772904281649099500,1.776099609375,0.0155858993530273,0.0011449456214904,0.0043170154094696,0.0013744457392022,0.0004581485991366,0.0
1772904281668085000,1.7950849609375,-0.0013599395751953,-0.0152795314788818,0.0019037574529647,0.0007635809597559,0.0004581485991366,0.0
1772904281687070500,1.814070556640625,0.0104484558105468,0.0109577178955078,-0.0027533173561096,0.0001527161948615,-0.0001527161948615,0.0
1772904281706055700,1.8330556640625,-0.0110015869140625,-0.0008376240730285,0.013643056154251,0.0007635809597559,-0.0007635809597559,-0.0012217295588925
1772904281725041200,1.852041259765625,0.0150508880615234,-0.0054710507392883,-0.0126078873872756,0.0007635809597559,0.0004581485991366,0.0
1772904281744026600,1.871026611328125,0.0027894973754882,-0.0055581033229827,-0.0004767328500747,0.0007635809597559,0.0004581485991366,0.0
1772904281763011800,1.89001171875,-0.0017757415771484,0.0015495419502258,-0.0029632300138473,0.0013744457392022,-0.0001527161948615,-0.0006108647794462
1772904281781997300,1.908997314453125,-0.0111665725708007,-0.0075157880783081,0.0065896809101104,0.0007635809597559,0.0004581485991366,0.0
1772904281800982800,1.927982666015625,-0.0109148025512695,-0.0093783140182495,-0.002911627292633,0.0001527161948615,-0.0001527161948615,0.0
1772904281819968000,1.946968017578125,-0.0060462951660156,-0.0021823644638061,0.0065295547246932,0.0007635809597559,0.0004581485991366,0.0
1772904281838953500,1.965953369140625,0.0032100677490234,-6.4343214035e-05,-0.0077314376831054,0.0007635809597559,-0.0001527161948615,0.0
1772904281857938700,1.984938720703125,-0.0037574768066406,0.0044974982738494,-0.0029744356870651,0.0007635809597559,-0.0007635809597559,0.0006108647794462
1772904281876924200,2.003924072265625,0.0057411193847656,0.0281417369842529,0.0042702555656433,0.0007635809597559,-0.0001527161948615,0.0
1772904281895909600,2.02290966796875,-0.0134334564208984,-0.0027872323989868,0.0017285495996475,0.0007635809597559,-0.0007635809597559,-0.0012217295588925
1772904281914894800,2.041894775390625,-0.0064449310302734,-0.0234386622905731,-0.0029845982789993,0.0001527161948615,-0.0001527161948615,-0.0006108647794462
1772904281933880300,2.06088037109375,-0.0016422271728515,-0.0066758394241333,0.006474032998085,0.0007635809597559,0.0004581485991366,0.0006108647794462
1772904281952865800,2.07986572265625,0.0008831024169921,0.0123573839664459,0.0014839023351669,0.0013744457392022,-0.0007635809597559,0.0
1772904281971851000,2.09885107421875,-0.0038537979125976,0.0027138888835906,-0.0005807429552078,0.0013744457392022,0.0004581485991366,0.0
1772904281990836500,2.11783642578125,-0.0061569213867187,0.0003171265125274,-0.0102196633815765,0.0001527161948615,0.0004581485991366,0.0
1772904282009822000,2.136822021484375,0.0127506256103515,0.0050180554389953,-0.0146745294332504,0.0007635809597559,-0.0007635809597559,0.0
1772904282028807200,2.15580712890625,-0.0061407089233398,0.0006257593631744,-0.0117495656013488,0.0001527161948615,0.0004581485991366,0.0
1772904282047792600,2.174792724609375,0.0104560852050781,-0.0114461183547973,-0.0068422257900238,0.0007635809597559,-0.0001527161948615,0.0006108647794462
1772904282066777900,2.19377783203125,-0.0086355209350585,-0.0066483616828918,-0.0090949684381484,0.0001527161948615,-0.0007635809597559,0.0006108647794462
1772904282085763300,2.212763427734375,0.0127897262573242,-0.0087542533874511,0.0172323286533355,0.0007635809597559,0.0004581485991366,0.0006108647794462
1772904282104748800,2.231748779296875,-0.0015544891357421,0.0008513331413269,0.0052941143512725,0.0007635809597559,0.0004581485991366,0.0
1772904282123734000,2.250734130859375,-0.0013484954833984,0.0151207745075225,-0.0067550241947174,0.0007635809597559,-0.0007635809597559,-0.0006108647794462
1772904282142719500,2.269719482421875,-0.0178117752075195,-0.0178833305835723,0.0052420943975448,0.0007635809597559,-0.0001527161948615,0.0
1772904282161705000,2.288705078125,0.010817527770996,0.0177318453788757,0.0097771883010864,0.0007635809597559,0.0004581485991366,0.0
1772904282180690200,2.307690185546875,-0.0034637451171875,0.0078396201133728,-0.0117081701755523,0.0007635809597559,-0.0007635809597559,0.0006108647794462
1772904282199675600,2.326675537109375,0.0015153884887695,-0.0039434134960174,0.0097241699695587,0.0007635809597559,-0.0001527161948615,0.0
1772904282218660900,2.345660888671875,0.0016231536865234,-0.0034960806369781,0.0117400735616683,0.0007635809597559,0.0004581485991366,0.0
1772904282237646300,2.364646240234375,-0.0150566101074218,-0.0059013366699218,0.0067894607782363,0.0007635809597559,-0.0001527161948615,0.0
1772904282256631800,2.3836318359375,0.0042228698730468,0.0199071168899536,-0.0126188546419143,0.0007635809597559,-0.0001527161948615,0.0
1772904282275617000,2.402616943359375,0.0065164566040039,-0.0109972357749938,-0.0028592199087142,0.0001527161948615,-0.0001527161948615,0.0
1772904282294602500,2.4216025390625,-0.0007600784301757,-0.00819793343544,-0.0052068680524826,0.0007635809597559,-0.0013744457392022,0.0
1772904282313588000,2.440587890625,0.0015020370483398,-0.0127408504486083,0.0088788717985153,0.0007635809597559,0.0004581485991366,0.0006108647794462
1772904282332573200,2.4595732421875,-0.0007791519165039,0.0082792937755584,0.0018041431903839,0.0001527161948615,-0.0001527161948615,0.0006108647794462
1772904282351558700,2.47855859375,0.00128173828125,0.0079730451107025,0.006176084280014,0.0007635809597559,-0.0001527161948615,0.0
1772904282370544000,2.497544189453125,0.0081815719604492,0.0143992006778717,0.0014042258262634,0.0007635809597559,0.0004581485991366,-0.0006108647794462
1772904282389529300,2.516529296875,-0.0013084411621093,-0.0163674652576446,-0.005648449063301,0.0007635809597559,-0.0013744457392022,-0.0006108647794462
1772904282408514800,2.535514892578125,-0.0153436660766601,0.0001587271690368,0.0086454153060913,0.0001527161948615,-0.0001527161948615,0.0
1772904282427500300,2.554500244140625,0.001321792602539,-0.011215716600418,-0.0104010552167892,0.0007635809597559,0.0004581485991366,0.0
1772904282446485500,2.573485595703125,0.0083789825439453,0.0148685872554779,0.0039457976818084,0.0007635809597559,-0.0001527161948615,0.0006108647794462
1772904282465471000,2.592470947265625,-0.0037040710449218,0.0078335702419281,-0.0005842149257659,0.0007635809597559,-0.0001527161948615,0.0
1772904282484456200,2.611456298828125,0.0128917694091796,0.0004265010356903,-0.0004809945821762,0.0007635809597559,0.0004581485991366,0.0006108647794462
1772904282503441700,2.630441650390625,-0.0108699798583984,-0.0018968880176544,0.0112340003252029,0.0007635809597559,-0.0007635809597559,0.0
1772904282522427100,2.64942724609375,0.001296043395996,-0.0020258724689483,-0.0027087032794952,0.0013744457392022,0.0010690133785828,0.0
1772904282541412400,2.668412353515625,0.0107078552246093,-0.0070235729217529,0.004548966884613,0.0007635809597559,-0.0007635809597559,0.0006108647794462
1772904282560397800,2.687397705078125,-0.0034513473510742,-0.0210594534873962,-0.0167677849531173,0.0007635809597559,0.0004581485991366,-0.0006108647794462
1772904282579383300,2.70638330078125,-0.0056924819946289,0.0027391016483306,0.018930435180664,0.0013744457392022,-0.0007635809597559,0.0
1772904282598368500,2.725368408203125,-0.0032329559326171,0.0002247691154479,0.0115196108818054,0.0007635809597559,-0.0007635809597559,-0.0006108647794462
1772904282617354000,2.74435400390625,0.0064077377319335,0.0001661777496337,-0.0098427385091781,0.0001527161948615,0.0010690133785828,0.0006108647794462
1772904282636339200,2.763339111328125,0.0086641311645507,-0.012024700641632,0.0159129351377487,0.0007635809597559,-0.0019853105768561,0.0006108647794462
1772904282655324700,2.78232470703125,-0.003305435180664,0.0141265094280242,-0.0055276304483413,0.0007635809597559,0.0004581485991366,0.0
1772904282674310100,2.80131005859375,0.0016260147094726,-0.0073710978031158,-0.0197288691997528,0.0001527161948615,-0.0007635809597559,0.0
1772904282693295400,2.82029541015625,-0.0031757354736328,-0.0093395113945007,0.0086830556392669,0.0007635809597559,0.0004581485991366,0.0
1772904282712280800,2.83928076171875,-0.005385398864746,-0.0090880692005157,0.0062648653984069,0.0007635809597559,-0.0001527161948615,0.0006108647794462
1772904282731266300,2.858266357421875,0.0135755538940429,-0.0065085291862487,0.00579334795475,0.0007635809597559,0.0004581485991366,0.0006108647794462
1772904282750251500,2.87725146484375,0.0059919357299804,0.0028102397918701,-0.0013920813798904,0.0007635809597559,-0.0001527161948615,0.0
1772904282769237000,2.896237060546875,0.0152854919433593,-0.0042740404605865,-0.0131233185529708,0.0001527161948615,0.0004581485991366,0.0
1772904282788222500,2.915222412109375,0.0032110214233398,-0.0064254999160766,-0.005567267537117,0.0007635809597559,-0.0001527161948615,0.0
1772904282807207700,2.934207763671875,-0.005995750427246,0.0033043622970581,0.0015722513198852,0.0007635809597559,-0.0007635809597559,0.0006108647794462
1772904282826193200,2.953193115234375,-0.0082712173461914,-0.0180759727954864,-0.0057822167873382,0.0007635809597559,-0.0007635809597559,-0.0006108647794462
1772904282845178400,2.972178466796875,0.0034561157226562,0.0174911022186279,-0.0058374255895614,0.0001527161948615,0.0004581485991366,0.0006108647794462
1772904282864163800,2.991163818359375,0.0127115249633789,-0.0228070318698883,-0.0083979070186614,0.0007635809597559,-0.0007635809597559,0.0
1772904282883149300,3.0101494140625,0.0029973983764648,0.0175387859344482,-0.0060136914253234,0.0001527161948615,0.0004581485991366,0.0
1772904282902134500,3.029134521484375,-0.0040035247802734,0.0124156177043914,-0.0083764940500259,0.0007635809597559,0.0004581485991366,0.0
1772904282921120000,3.0481201171875,0.0100526809692382,-0.0018704831600189,-0.0059372335672378,0.0001527161948615,0.0004581485991366,0.0
1772904282940105200,3.067105224609375,-0.0277690887451171,-0.0066421031951904,-0.0247509181499481,0.0013744457392022,-0.0007635809597559,0.0
1772904282959090700,3.086090576171875,-0.0085353851318359,0.0002899765968322,-0.0003751963376998,0.0007635809597559,0.0004581485991366,0.0
1772904282978076200,3.105076171875,0.0059051513671875,0.0120723843574523,0.0069560855627059,0.0007635809597559,-0.0007635809597559,0.0006108647794462
1772904282997061600,3.1240615234375,-0.0108003616333007,0.0091917216777801,-0.0120263844728469,0.0007635809597559,-0.0001527161948615,0.0
1772904283016046800,3.143046875,-0.010599136352539,0.0089326202869415,0.0257868915796279,0.0007635809597559,0.0004581485991366,0.0
1772904283035032300,3.1620322265625,-0.0057439804077148,-0.0031022727489471,-0.0030889213085174,0.0001527161948615,-0.0007635809597559,-0.0012217295588925
1772904283054017500,3.181017578125,0.0084047317504882,-0.002998262643814,-0.0217666178941726,0.0007635809597559,-0.0001527161948615,-0.0006108647794462
1772904283073003000,3.2000029296875,0.011026382446289,-0.0193467140197753,-0.0024663209915161,0.0007635809597559,-0.0001527161948615,-0.0006108647794462
1772904283091988500,3.218988525390625,-0.0102806091308593,0.0090238451957702,0.0094116926193237,0.0007635809597559,-0.0001527161948615,0.0
1772904283110973700,3.2379736328125,0.0204143524169921,0.0042285323143005,0.0115034282207489,-0.0004581485991366,-0.0001527161948615,0.0
1772904283129959200,3.256959228515625,0.0081710815429687,-0.0100626051425933,-0.0051256567239761,0.0007635809597559,-0.0001527161948615,0.0
1772904283148944400,3.2759443359375,-0.008528709411621,-0.0119967460632324,-0.0168089717626571,0.0007635809597559,0.0004581485991366,0.0
1772904283167929900,3.294929931640625,-0.0059747695922851,-0.0046595931053161,-0.0328943133354187,0.0007635809597559,-0.0001527161948615,0.0
1772904283186915000,3.3139150390625,-0.0058937072753906,0.0072873830795288,0.0073786377906799,0.0007635809597559,-0.0001527161948615,0.0
1772904283205900500,3.332900634765625,0.0035562515258789,0.0119147896766662,-0.0047384649515151,0.0007635809597559,-0.0001527161948615,0.0
1772904283224886000,3.351885986328125,0.003514289855957,0.0001332759857177,-0.0140779018402099,0.0001527161948615,-0.0001527161948615,-0.0006108647794462
1772904283243871200,3.370871337890625,0.0034742355346679,-0.0070801377296447,0.0117540657520294,0.0007635809597559,-0.0001527161948615,0.0
1772904283262856700,3.389856689453125,0.0082626342773437,-0.0001902878284454,0.0070799738168716,0.0001527161948615,0.0004581485991366,0.0006108647794462
1772904283281842000,3.408842041015625,-0.0084419250488281,-0.0119431912899017,-0.0142037868499755,0.0007635809597559,-0.0001527161948615,0.0
1772904283300827400,3.427827392578125,0.0035629272460937,0.005029022693634,-0.0139579176902771,0.0001527161948615,0.0004581485991366,0.0006108647794462
1772904283319812900,3.446812744140625,0.0035209655761718,0.0027125477790832,0.0075955837965011,0.0007635809597559,-0.0001527161948615,0.0
1772904283338798000,3.465798095703125,-0.0034980773925781,0.0070978701114654,-0.0113154351711273,0.0007635809597559,-0.0007635809597559,0.0
1772904283357783600,3.484783447265625,0.0080690383911132,-0.0094655454158782,-0.0043084323406219,0.0001527161948615,0.0004581485991366,-0.0006108647794462
1772904283376769000,3.50376904296875,0.0032911300659179,-0.0116013586521148,0.0005247890949249,0.0013744457392022,-0.0001527161948615,-0.0006108647794462
1772904283395754200,3.522754150390625,-0.0039920806884765,0.0096884667873382,0.0027844011783599,0.0013744457392022,0.0004581485991366,0.0
1772904283414739700,3.54173974609375,0.000807762145996,-0.0140555202960968,-0.0114955306053161,0.0007635809597559,-0.0007635809597559,0.0006108647794462
1772904283433725000,3.560724853515625,0.0078392028808593,0.0191991627216339,0.0095442682504653,0.0007635809597559,-0.0007635809597559,0.0006108647794462
1772904283452710400,3.57971044921875,-0.0014801025390625,0.0071760118007659,0.0049607157707214,0.0001527161948615,0.0010690133785828,0.0
1772904283471696000,3.59869580078125,0.0080947875976562,-0.0117199122905731,-6.46561384201e-05,0.0001527161948615,-0.0013744457392022,0.0006108647794462
1772904283490681000,3.61768115234375,0.010411262512207,-0.0088603794574737,0.0185765177011489,0.0007635809597559,0.0004581485991366,-0.0006108647794462
1772904283509666600,3.63666650390625,0.0031986236572265,-0.0136257708072662,-0.0004757493734359,0.0001527161948615,-0.0007635809597559,0.0
1772904283528651800,3.65565185546875,-0.0062036514282226,-0.0037974119186401,-0.0007051676511764,0.0007635809597559,-0.0007635809597559,-0.0006108647794462
1772904283547637200,3.67463720703125,0.0079202651977539,-0.0107293725013732,-0.022027775645256,0.0007635809597559,0.0004581485991366,-0.0012217295588925
1772904283566622500,3.69362255859375,0.0315370559692382,-0.0104660093784332,0.0064453184604644,0.0013744457392022,-0.0013744457392022,0.0012217295588925
1772904283585608000,3.71260791015625,-0.008793830871582,-0.0128656923770904,0.0111846327781677,0.0001527161948615,0.0022907429374754,0.0
1772904283604593400,3.731593505859375,0.0031347274780273,0.0086837708950042,-0.0200039446353912,0.0013744457392022,-0.0032070400193333,0.0006108647794462
1772904283623578600,3.75057861328125,-0.0181465148925781,-0.0082292258739471,-0.0198078006505966,0.0007635809597559,0.0004581485991366,-0.0006108647794462
1772904283642564000,3.769564208984375,0.0006484985351562,0.0065023601055145,-0.0098497718572616,0.0007635809597559,-0.0001527161948615,0.0
1772904283661549300,3.78854931640625,-0.0229015350341796,0.0251743197441101,-0.0049706548452377,0.0007635809597559,-0.0001527161948615,-0.0006108647794462
1772904283680534800,3.80753466796875,-0.0154838562011718,0.0036593377590179,0.0018571615219116,0.0007635809597559,-0.0013744457392022,-0.0006108647794462
1772904283699520300,3.826520263671875,0.0107154846191406,0.0084241330623626,0.0062311291694641,0.0007635809597559,0.0004581485991366,-0.0006108647794462
1772904283718505500,3.84550537109375,0.0081653594970703,0.0105369687080383,-0.010623961687088,0.0007635809597559,0.0004581485991366,-0.0012217295588925
1772904283737491000,3.864490966796875,0.0081663131713867,-0.0018831193447113,-0.0083930492401123,0.0007635809597559,-0.0019853105768561,0.0
1772904283756476400,3.883476318359375,-0.0034008026123046,0.0171042084693908,-0.0058527439832687,0.0007635809597559,0.0010690133785828,-0.0006108647794462
1772904283775461600,3.902461669921875,0.0062446594238281,-0.0021223425865173,-0.0055210888385772,0.0007635809597559,0.0004581485991366,0.0
1772904283794447000,3.921447021484375,0.0017642974853515,-0.0136730670928955,0.0111788362264633,0.0007635809597559,-0.0001527161948615,0.0006108647794462
1772904283813432300,3.940432373046875,0.0042552947998046,-0.0230349600315094,0.0038003474473953,0.0007635809597559,-0.0001527161948615,0.0
1772904283832417800,3.959417724609375,-0.0004329681396484,0.003064215183258,0.0060919821262359,0.0013744457392022,0.0004581485991366,0.0
1772904283851403000,3.978403076171875,0.0134620666503906,-0.0064650177955627,-0.0176698267459869,0.0007635809597559,-0.0007635809597559,-0.0006108647794462
1772904283870388500,3.997388427734375,-0.0080814361572265,-0.0062240660190582,-0.024559736251831,0.0007635809597559,0.0004581485991366,0.0006108647794462
1772904283889373700,4.016373779296875,0.0156002044677734,0.0012205839157104,0.0089181661605834,0.0001527161948615,0.0004581485991366,0.0
1772904283908359200,4.035359130859375,0.010930061340332,0.001321792602539,0.0039004385471343,0.0013744457392022,0.0004581485991366,0.0006108647794462
1772904283927344600,4.0543447265625,0.0038566589355468,-0.0082675218582153,-0.0167632102966308,0.0007635809597559,-0.0007635809597559,-0.0006108647794462
1772904283946329900,4.073329833984375,0.0083961486816406,0.0175799429416656,0.0045068860054016,0.0007635809597559,0.0004581485991366,0.0
1772904283965315300,4.0923154296875,-0.017409324645996,-0.0064466893672943,-0.0167928487062454,0.0007635809597559,-0.0001527161948615,0.0
1772904283984300800,4.11130078125,0.0019073486328125,-0.0086202323436737,-0.0260665863752365,0.0007635809597559,-0.0007635809597559,0.0
1772904284003286000,4.1302861328125,-0.000472068786621,0.0034907162189483,0.0051179230213165,0.0007635809597559,-0.0001527161948615,0.0
1772904284022271500,4.149271484375,-0.0097904205322265,0.0009483695030212,-0.0023934841156005,0.0007635809597559,-0.0001527161948615,0.0
1772904284041256700,4.168256591796875,0.0044918060302734,-0.0040175020694732,-0.0069476962089538,0.0001527161948615,-0.0001527161948615,0.0
1772904284060242200,4.1872421875,-0.0120162963867187,-0.0184880346059799,0.0165805518627166,0.0007635809597559,-0.0013744457392022,-0.0006108647794462
1772904284079227400,4.206227294921875,-0.0069494247436523,0.0029531419277191,0.014053001999855,0.0001527161948615,0.0004581485991366,-0.0006108647794462
1772904284098212900,4.225212890625,-0.0306081771850585,-0.0064300596714019,-0.0003531873226165,0.0007635809597559,-0.0025961752980947,-0.0012217295588925
1772904284117198000,4.244197998046875,-0.0256738662719726,-0.0068024396896362,0.0071311891078948,0.0013744457392022,-0.0007635809597559,0.0
1772904284136183600,4.26318359375,-0.0256519317626953,-0.0065711438655853,-0.0093491375446319,0.0007635809597559,-0.0013744457392022,-0.0006108647794462
1772904284155169000,4.2821689453125,0.0074691772460937,0.0170441269874572,-0.0066578686237335,0.0001527161948615,-0.0007635809597559,0.0
1772904284174154200,4.301154296875,0.018986701965332,0.0098948776721954,-0.0021571516990661,0.0007635809597559,-0.0001527161948615,0.0006108647794462
1772904284193139700,4.3201396484375,0.0284347534179687,-0.0237031877040863,0.0029826611280441,0.0007635809597559,-0.0007635809597559,0.0
1772904284212125000,4.339125,0.0023155212402343,0.0121818482875823,0.0051321536302566,0.0013744457392022,-0.0007635809597559,0.0006108647794462
1772904284231110400,4.3581103515625,0.0049095153808593,-0.0090803205966949,-0.0021965056657791,0.0013744457392022,0.0004581485991366,0.0
1772904284250095600,4.377095703125,0.0260419845581054,0.0218136012554168,-0.0068423599004745,0.0001527161948615,0.0004581485991366,0.0
1772904284269081000,4.3960810546875,0.0259227752685546,-0.0139462947845458,-0.0019027143716812,0.0019853105768561,-0.0001527161948615,0.0006108647794462
1772904284288066300,4.41506640625,0.0072240829467773,0.0075389146804809,-0.0017574280500411,0.0007635809597559,0.0004581485991366,0.0006108647794462
1772904284307051800,4.4340517578125,0.0097637176513671,0.0028019547462463,-0.018760398030281,0.0013744457392022,-0.0007635809597559,0.0
1772904284326037200,4.453037353515625,-0.006718635559082,0.0074155926704406,0.0122775882482528,0.0007635809597559,-0.0001527161948615,-0.0006108647794462
1772904284345022500,4.4720224609375,-0.0091676712036132,0.0073895454406738,-0.013900339603424,0.0007635809597559,-0.0001527161948615,-0.0006108647794462
1772904284364008000,4.491008056640625,0.007369041442871,-0.0231073498725891,0.0052324831485748,0.0007635809597559,-0.0007635809597559,-0.0006108647794462
1772904284382993400,4.509993408203125,-0.0093460083007812,-0.0133349299430847,0.0029108524322509,0.0007635809597559,-0.0007635809597559,0.0
1772904284401978600,4.528978515625,-0.0237445831298828,-0.0153353810310363,0.0097324550151824,0.0001527161948615,-0.0007635809597559,0.0
1772904284420963800,4.5479638671875,-0.0237064361572265,0.0110162198543548,-0.0185672342777252,0.0001527161948615,0.0004581485991366,-0.0006108647794462
1772904284439949300,4.56694921875,-0.0092802047729492,0.0274201929569244,-0.0137822926044464,0.0007635809597559,-0.0007635809597559,-0.0006108647794462
1772904284458934500,4.5859345703125,0.0189476013183593,-0.0056559741497039,0.0170179158449172,0.0007635809597559,-0.0007635809597559,0.0012217295588925
1772904284477920000,4.604919921875,0.0211467742919921,-0.0219341218471527,-0.0047337114810943,0.0007635809597559,0.0004581485991366,0.0
1772904284496905500,4.623905517578125,0.009190559387207,-0.0117764174938201,0.0024656355381011,0.0013744457392022,-0.0007635809597559,0.0
1772904284515890700,4.642890625,0.0115518569946289,0.002580314874649,0.0023224651813507,0.0007635809597559,-0.0001527161948615,0.0
1772904284534876200,4.661876220703125,0.011601448059082,0.0097339153289794,-0.0001410096883773,0.0007635809597559,0.0004581485991366,0.0
1772904284553861600,4.680861572265625,-0.0027093887329101,0.0001575648784637,-0.0119259357452392,0.0007635809597559,-0.0007635809597559,-0.0006108647794462
1772904284572846800,4.699846923828125,-0.0097599029541015,-0.0210578143596649,-0.0045204162597656,0.0007635809597559,-0.0007635809597559,0.0
1772904284591832300,4.718832275390625,-0.0004205703735351,-0.0156122297048568,-0.0090073198080062,0.0007635809597559,-0.0001527161948615,0.0
1772904284610817500,4.737817626953125,-0.0144453048706054,0.000809222459793,-0.0017644017934799,0.0007635809597559,0.0004581485991366,-0.0006108647794462
1772904284629802800,4.756802734375,-0.011932373046875,-0.0156825929880142,-0.0281231254339218,0.0007635809597559,-0.0007635809597559,0.0
1772904284648788200,4.775788330078125,-0.0069141387939453,0.0176783204078674,-0.0043583810329437,0.0007635809597559,0.0004581485991366,-0.0012217295588925
1772904284667773700,4.794773681640625,-0.0045728683471679,0.0051767826080322,0.0048182159662246,0.0007635809597559,-0.0007635809597559,0.0
1772904284686759000,4.813759033203125,-0.0187349319458007,-0.0065565109252929,0.0024101436138153,0.0007635809597559,-0.0001527161948615,-0.0006108647794462
1772904284705744400,4.832744384765625,-0.0043134689331054,-0.0134714841842651,0.0094211399555206,0.0007635809597559,-0.0001527161948615,0.0
1772904284724729900,4.851729736328125,-0.0089931488037109,0.0265076756477355,0.0090956687927246,0.0007635809597559,0.0004581485991366,0.0
1772904284743715000,4.870715087890625,0.0098915100097656,-0.0091473758220672,-0.021588921546936,0.0007635809597559,-0.0007635809597559,0.0
1772904284762700300,4.8897001953125,0.0025434494018554,0.0099067687988281,0.004861831665039,0.0007635809597559,0.0004581485991366,0.0
1772904284781685800,4.908685791015625,-0.0235795974731445,0.0002678632736206,-0.0045111179351806,0.0007635809597559,0.0010690133785828,-0.0006108647794462
1772904284800671000,4.9276708984375,0.0073528289794921,0.0120252072811126,0.0096094161272048,0.0007635809597559,-0.0001527161948615,-0.0006108647794462
1772904284819656400,4.946656494140625,-0.0186567306518554,0.002339094877243,0.0070873945951461,0.0007635809597559,-0.0007635809597559,0.0
1772904284838642000,4.965641845703125,0.0028200149536132,0.0070857107639312,0.0044484138488769,0.0001527161948615,0.0004581485991366,-0.0006108647794462
1772904284857627100,4.984627197265625,0.0076255798339843,-0.0188747942447662,-0.0005154609680175,0.0013744457392022,-0.0007635809597559,-0.0006108647794462
1772904284876612600,5.003612548828125,0.0054140090942382,0.0003832280635833,-0.0005713552236557,0.0001527161948615,0.0004581485991366,0.0
1772904284895597800,5.022597900390625,0.0172357559204101,-0.0090748965740203,-0.0010531097650527,0.0007635809597559,-0.0001527161948615,0.0
1772904284914583300,5.041583251953125,0.0097646713256835,0.0169953405857086,0.0058876574039459,0.0007635809597559,0.0004581485991366,0.0
1772904284933568500,5.060568603515625,-0.0043621063232421,-0.0234205573797225,0.0126259177923202,0.0007635809597559,-0.0007635809597559,0.0
1772904284952554000,5.079553955078125,0.0122489929199218,-0.0016832649707794,-0.0066238194704055,0.0007635809597559,-0.0001527161948615,-0.0006108647794462
1772904284971539200,5.098539306640625,-0.0022783279418945,-0.0108811855316162,-0.004004493355751,0.0007635809597559,-0.0007635809597559,-0.0012217295588925
1772904284990524700,5.117524658203125,-0.0044765472412109,-0.0036325454711914,0.0031944066286087,0.0007635809597559,-0.0001527161948615,0.0006108647794462
1772904285009510100,5.13651025390625,0.0098295211791992,0.0055138170719146,-0.0178870558738708,0.0007635809597559,-0.0001527161948615,0.0
1772904285028495400,5.155495361328125,0.0026416778564453,-0.0064690709114074,0.0083976238965988,0.0013744457392022,0.0004581485991366,0.0
1772904285047480800,5.174480712890625,0.0096511840820312,0.012786328792572,-0.0082479268312454,0.0013744457392022,-0.0001527161948615,-0.0006108647794462
1772904285066466000,5.193466064453125,-3.8146972656e-06,0.0100958347320556,0.0058610439300537,-0.0004581485991366,-0.0007635809597559,0.0
1772904285085451500,5.212451416015625,-0.0047492980957031,0.0099081695079803,-0.0037905275821685,0.0007635809597559,-0.0007635809597559,0.0006108647794462
1772904285104436700,5.231436767578125,-0.0023164749145507,0.0213497877120971,0.0077097862958908,0.0013744457392022,0.0004581485991366,0.0
1772904285123422200,5.250422119140625,0.0144643783569335,-0.0049201548099517,0.0122686475515365,0.0013744457392022,-0.0007635809597559,0.0
1772904285142407700,5.26940771484375,-0.0045251846313476,-0.0046190023422241,0.0004376471042633,0.0013744457392022,0.0016798780998215,-0.0006108647794462
1772904285161393000,5.288392822265625,9.44137573242e-05,-0.0022418498992919,-0.0042120367288589,0.0007635809597559,-0.0013744457392022,0.0006108647794462
1772904285180378400,5.30737841796875,-0.0047693252563476,0.014098048210144,0.0027803778648376,0.0001527161948615,0.0004581485991366,0.0
1772904285199363600,5.326363525390625,-0.0093183517456054,0.0139132142066955,-0.0203998237848281,0.0001527161948615,-0.0007635809597559,0.0
1772904285218348800,5.345348876953125,0.0049505233764648,-0.007500022649765,0.0197567641735076,0.0013744457392022,0.0004581485991366,0.0
1772904285237334300,5.364334228515625,-0.0021562576293945,-0.0120381414890289,0.0030867755413055,0.0013744457392022,-0.0013744457392022,0.0
1772904285256319700,5.38331982421875,-0.0188713073730468,0.0092889070510864,0.0030377805233001,0.0007635809597559,-0.0001527161948615,0.0
1772904285275305000,5.402304931640625,-0.006636619567871,-0.0076400935649871,0.0101900696754455,0.0013744457392022,0.0004581485991366,0.0
1772904285294290400,5.42129052734375,0.0005216598510742,-0.0025824308395385,-0.0088847875595092,0.0019853105768561,0.0004581485991366,-0.0006108647794462
1772904285313275600,5.440275634765625,-0.0018491744995117,0.0044922232627868,-0.0133636146783828,0.0001527161948615,-0.0013744457392022,0.0
1772904285332261000,5.45926123046875,-0.0324964523315429,0.0258581340312957,-0.0035934597253799,0.0001527161948615,0.0004581485991366,-0.0006108647794462
1772904285351246300,5.478246337890625,-0.0014591217041015,-0.0124791264533996,-0.0199000537395477,0.0007635809597559,-0.0001527161948615,0.0
1772904285370231800,5.497231689453125,-0.0014905929565429,0.0088613629341125,-0.0056840032339096,0.0007635809597559,-0.0001527161948615,0.0
1772904285389217000,5.516217041015625,-0.0086183547973632,0.0082210302352905,-0.0010957419872283,0.0007635809597559,-0.0007635809597559,0.0
1772904285408202500,5.535202392578125,0.0011157989501953,-0.0060071051120758,0.0034981071949005,0.0007635809597559,0.0004581485991366,0.0
1772904285427187700,5.554187744140625,-0.0013513565063476,-0.0079217255115509,-0.0153776556253433,0.0013744457392022,-0.0001527161948615,0.0
1772904285446173200,5.573173095703125,-0.001312255859375,0.0015395879745483,-0.0128323435783386,0.0007635809597559,-0.0007635809597559,-0.0006108647794462
1772904285465158400,5.592158447265625,-0.0154609680175781,-0.0147814154624938,-0.007918581366539,0.0013744457392022,0.0004581485991366,0.0
1772904285484143900,5.611143798828125,0.0084190368652343,-0.0119321048259735,0.0084555745124816,-0.0004581485991366,-0.0007635809597559,0.0
1772904285503129300,5.63012939453125,0.0011606216430664,0.0189230442047119,-0.0245976150035858,0.0007635809597559,-0.0001527161948615,0.0
1772904285522114600,5.649114501953125,-0.001077651977539,0.0021246671676635,-0.0078078806400299,0.0007635809597559,-0.0007635809597559,0.0
1772904285541100000,5.66810009765625,-0.005828857421875,-0.0096655488014221,0.0090693682432174,0.0007635809597559,-0.0007635809597559,0.0
1772904285560085200,5.687085205078125,0.0035772323608398,0.0047730803489685,0.0091105252504348,0.0001527161948615,-0.0001527161948615,-0.0006108647794462
1772904285579070500,5.706070556640625,-0.0083503723144531,9.8943710327e-06,-0.0145879983901977,0.0007635809597559,-0.0007635809597559,0.0
1772904285598056000,5.725055908203125,-0.0081911087036132,-0.0067526698112487,-0.021217331290245,0.0007635809597559,-0.0001527161948615,0.0
1772904285617041400,5.74404150390625,0.0060377120971679,0.0122005939483642,-0.0253689736127853,0.0001527161948615,-0.0007635809597559,-0.0006108647794462
1772904285636026600,5.763026611328125,0.0079936981201171,0.0138812363147735,0.0100897103548049,0.0007635809597559,-0.0001527161948615,0.0
1772904285655012000,5.78201220703125,0.0007839202880859,-0.0191211402416229,0.0122411549091339,0.0007635809597559,-0.0007635809597559,0.0
1772904285673997300,5.800997314453125,-0.0062980651855468,0.0213629901409149,-0.0045471787452697,0.0001527161948615,0.0004581485991366,0.0
1772904285692982800,5.819982666015625,0.0032014846801757,0.0139349400997161,-0.0093830972909927,0.0001527161948615,-0.0001527161948615,0.0
1772904285711968000,5.838968017578125,0.0030908584594726,-0.0004014372825622,0.0166292339563369,0.0001527161948615,-0.0007635809597559,0.0
1772904285730953500,5.857953369140625,0.0053014755249023,-0.0051907300949096,-0.0047972798347473,0.0007635809597559,0.0004581485991366,0.0
1772904285749938700,5.876938720703125,0.0125389099121093,0.0045169293880462,0.0092150866985321,0.0007635809597559,-0.0001527161948615,0.0
1772904285768924200,5.895924072265625,-0.0020742416381835,-0.0071975290775299,0.0017634183168411,0.0007635809597559,-0.0007635809597559,0.0006108647794462
1772904285787909400,5.914909423828125,0.0077199935913085,-0.0072460770606994,0.0040507018566131,0.0007635809597559,-0.0001527161948615,0.0006108647794462
1772904285806894800,5.933894775390625,-0.0017862319946289,0.0067523419857025,-0.0030553489923477,0.0007635809597559,-0.0007635809597559,0.0006108647794462
1772904285825880000,5.952880126953125,-0.0159263610839843,-0.0194478631019592,-0.0148058235645294,0.0007635809597559,-0.0007635809597559,-0.0006108647794462
1772904285844865500,5.971865478515625,0.0007972717285156,0.0089652240276336,-0.0074662268161773,0.0007635809597559,0.0004581485991366,0.0
1772904285863851000,5.99085107421875,-0.0086011886596679,-0.0006197690963745,0.0020838379859924,0.0007635809597559,-0.0001527161948615,0.0
1772904285882836200,6.009836181640625,-0.0058469772338867,-0.0125762820243835,0.0093574523925781,0.0007635809597559,-0.0001527161948615,-0.0006108647794462
1772904285901821400,6.028821533203125,-0.0033435821533203,-0.0027990043163299,-0.0171336084604263,0.0007635809597559,-0.0007635809597559,0.0
1772904285920807000,6.047806884765625,0.0013151168823242,-0.0005635321140289,0.0136584937572479,0.0001527161948615,0.0004581485991366,-0.0006108647794462
1772904285939792100,6.066792236328125,0.0035057067871093,-0.0004609525203704,-0.0033503323793411,0.0007635809597559,-0.0007635809597559,0.0
1772904285958777600,6.085777587890625,0.0082111358642578,0.0022264719009399,0.0037542432546615,0.0007635809597559,-0.0013744457392022,0.0
1772904285977763000,6.10476318359375,-0.005986213684082,0.0092750787734985,0.003646045923233,0.0001527161948615,-0.0007635809597559,-0.0006108647794462
1772904285996748300,6.123748291015625,0.0058536529541015,0.0067398846149444,-0.0036742985248565,0.0001527161948615,-0.0007635809597559,0.0
1772904286015733500,6.1427333984375,0.0056228637695312,-0.0193597376346588,0.0084520876407623,0.0007635809597559,0.0010690133785828,0.0
1772904286034719000,6.161718994140625,-0.0086441040039062,0.0024808347225189,-0.0035979151725769,0.0007635809597559,-0.0001527161948615,-0.0006108647794462
1772904286053704400,6.180704345703125,-0.0152997970581054,0.004777044057846,-0.0078641474246978,0.0001527161948615,0.0004581485991366,-0.0006108647794462
1772904286072689700,6.199689697265625,-0.0031452178955078,0.0022551715373992,-0.01950004696846,0.0007635809597559,-0.0001527161948615,0.0
1772904286091675100,6.218675048828125,0.0016260147094726,0.0118758380413055,-0.005060538649559,-0.0004581485991366,-0.0001527161948615,0.0
1772904286110660400,6.237660400390625,0.0062799453735351,0.0066095292568206,-0.0004125386476516,0.0007635809597559,0.0004581485991366,0.0
1772904286129645600,6.2566455078125,-0.0055751800537109,-0.01011323928833,-0.0217240154743194,0.0007635809597559,-0.0007635809597559,0.0
1772904286148631000,6.275631103515625,-0.0007658004760742,-0.0007930397987365,0.0022251009941101,0.0007635809597559,-0.0001527161948615,0.0
1772904286167616500,6.294616455078125,-0.0055246353149414,-0.0266458541154861,-0.011786550283432,0.0013744457392022,-0.0001527161948615,0.0
1772904286186601700,6.313601806640625,-0.0005998611450195,0.0093396306037902,-0.0093418508768081,0.0007635809597559,-0.0007635809597559,0.0
1772904286205587200,6.332587158203125,0.0207138061523437,0.0020167827606201,-0.023259162902832,0.0007635809597559,-0.0001527161948615,0.0
1772904286224572400,6.351572509765625,-0.0009899139404296,0.0042290389537811,0.0007722973823547,0.0007635809597559,-0.0001527161948615,0.0
1772904286243558000,6.370557861328125,-0.00103759765625,-0.0097483694553375,-0.004107728600502,0.0007635809597559,-0.0007635809597559,0.0
1772904286262543000,6.389543212890625,-0.0102577209472656,0.0139138996601104,-0.010885939002037,0.0007635809597559,-0.0001527161948615,0.0
1772904286281528600,6.408528564453125,-0.0077619552612304,-0.0144838392734527,0.0149907916784286,0.0007635809597559,0.0004581485991366,-0.0006108647794462
1772904286300513800,6.427513671875,0.004103660583496,-0.0071379542350769,0.0055565536022186,0.0013744457392022,0.0004581485991366,0.0
1772904286319499300,6.446499267578125,-0.0078773498535156,0.0121385753154754,-0.0019145160913467,0.0007635809597559,-0.0007635809597559,0.0
1772904286338484500,6.465484375,0.0038337707519531,-0.0091199278831481,0.0025501251220703,0.0007635809597559,-0.0001527161948615,0.0
1772904286357470000,6.484469970703125,-0.0033512115478515,-0.0021451711654663,-0.0023304820060729,0.0007635809597559,-0.0001527161948615,0.0
1772904286376455200,6.503455078125,0.0176992416381835,0.0050850808620452,-0.0120481848716735,0.0007635809597559,-0.0001527161948615,0.0
1772904286395440600,6.522440673828125,0.0033473968505859,0.0025087893009185,-0.0049333721399307,0.0007635809597559,-0.0001527161948615,0.0
1772904286414425900,6.54142578125,0.0010023117065429,-0.0021971762180328,0.0094499588012695,0.0013744457392022,-0.0001527161948615,0.0
1772904286433411300,6.560411376953125,0.0104999542236328,-0.0235699415206909,0.002161219716072,0.0001527161948615,0.0004581485991366,0.0
1772904286452396500,6.579396484375,0.0031728744506835,-0.0092939436435699,0.0067279040813446,0.0001527161948615,-0.0001527161948615,0.0
1772904286471382000,6.598382080078125,-0.0156774520874023,-0.00909885764122,-0.0029920637607574,0.0007635809597559,-0.0001527161948615,0.0
1772904286490367200,6.6173671875,-0.0036344528198242,-0.0016922652721405,-0.0124444067478179,0.0001527161948615,-0.0007635809597559,0.0
1772904286509352700,6.636352783203125,-0.0128097534179687,0.0148409605026245,-0.0076075047254562,0.0001527161948615,-0.0001527161948615,0.0
1772904286528338000,6.655337890625,0.0017709732055664,-0.0090960264205932,0.0088274925947189,0.0007635809597559,0.0004581485991366,0.0006108647794462
1772904286547323400,6.674323486328125,0.0159845352172851,-0.0069083869457244,-0.0102177113294601,0.0007635809597559,-0.0007635809597559,0.0006108647794462
1772904286566308600,6.69330859375,0.0087451934814453,0.0143615007400512,0.0060606300830841,0.0013744457392022,-0.0007635809597559,-0.0006108647794462
1772904286585294000,6.712294189453125,0.0016336441040039,-0.009596824645996,0.0038274973630905,0.0007635809597559,0.0010690133785828,0.0
1772904286604279300,6.731279296875,-0.0008497238159179,-0.0119581818580627,-0.0340163111686706,0.0007635809597559,-0.0007635809597559,0.0006108647794462
1772904286623264500,6.750264404296875,-0.0030984878540039,0.0074621140956878,0.0162932276725769,0.0007635809597559,0.0004581485991366,-0.0006108647794462
1772904286642250000,6.76925,0.0064992904663085,-0.0091897845268249,0.0111244618892669,0.0013744457392022,0.0010690133785828,0.0006108647794462
1772904286661235500,6.7882353515625,0.0111846923828125,0.0242959856986999,0.0016504079103469,0.0007635809597559,-0.0007635809597559,0.0
1772904286680220700,6.807220703125,0.0061845779418945,0.0029670596122741,0.0131761133670806,0.0001527161948615,0.0004581485991366,0.0
1772904286699206100,6.8262060546875,0.0014295578002929,0.000712513923645,-0.0059221386909484,0.0007635809597559,0.0004581485991366,-0.0006108647794462
1772904286718191400,6.84519140625,0.0083990097045898,0.0053396522998809,-0.008163571357727,0.0001527161948615,-0.0001527161948615,0.0
1772904286737176800,6.8641767578125,-0.0012550354003906,0.0098800063133239,-0.0104790776968002,-0.0004581485991366,-0.0013744457392022,-0.0006108647794462
1772904286756162000,6.883162109375,-0.001373291015625,-0.0258114039897918,0.0408887267112731,0.0001527161948615,-0.0001527161948615,0.0
1772904286775147500,6.9021474609375,-0.0014429092407226,-0.0085026323795318,0.0118676424026489,0.0007635809597559,0.0010690133785828,-0.0006108647794462
1772904286794132700,6.9211328125,0.0031909942626953,0.0011946856975555,-0.0051009505987167,0.0007635809597559,-0.0013744457392022,0.0
1772904286813118000,6.940117919921875,-0.0110340118408203,-0.0366834849119186,-0.000431403517723,0.0013744457392022,-0.0001527161948615,0.0
1772904286832103400,6.959103515625,0.0124692916870117,0.0156316757202148,0.0184089243412017,0.0007635809597559,0.0004581485991366,0.0
1772904286851089000,6.9780888671875,-0.0064544677734375,-0.0154151320457458,-0.0196434557437896,0.0019853105768561,0.0004581485991366,0.0006108647794462
1772904286870074000,6.99707421875,0.0243873596191406,0.0034921765327453,-0.0050075948238372,0.0001527161948615,-0.0001527161948615,0.0
1772904286889059300,7.016059326171875,-0.0087738037109375,-0.0244783461093902,0.0136839896440505,0.0013744457392022,0.0004581485991366,0.0006108647794462
1772904286908044800,7.035044921875,0.0034465789794921,0.0297800302505493,-0.0118705034255981,0.0007635809597559,0.0022907429374754,-0.0006108647794462
1772904286927030300,7.0540302734375,0.0007734298706054,-0.0156302005052566,-0.0217009484767913,0.0007635809597559,-0.0032070400193333,0.0
1772904286946015500,7.073015380859375,-0.0014829635620117,0.010498821735382,0.0120900124311447,0.0007635809597559,0.0016798780998215,0.0
1772904286965000700,7.092000732421875,-0.0087709426879882,-0.003899335861206,0.0041412711143493,0.0013744457392022,-0.0013744457392022,0.0006108647794462
1772904286983986200,7.110986083984375,-0.0107507705688476,-0.0109641551971435,-0.0142780244350433,0.0007635809597559,0.0016798780998215,-0.0006108647794462
1772904287002971400,7.129971435546875,-0.0058956146240234,-0.0248325318098068,-0.0005803555250167,0.0013744457392022,-0.0038179049734026,0.0
1772904287021956900,7.148956787109375,-0.0082111358642578,0.0201465487480163,0.0064992755651474,0.0007635809597559,0.002901607658714,-0.0012217295588925
1772904287040942000,7.167942138671875,0.0036287307739257,-0.008455067873001,-0.0147091001272201,0.0007635809597559,-0.0019853105768561,0.0006108647794462
1772904287059927600,7.186927490234375,0.0010385513305664,0.0057679712772369,-0.0121018141508102,0.0007635809597559,0.0010690133785828,-0.0006108647794462
1772904287078912800,7.205912841796875,0.0009632110595703,-0.0015720129013061,0.004348412156105,0.0013744457392022,-0.0019853105768561,0.0
1772904287097898200,7.224898193359375,-0.0061664581298828,-0.0013605654239654,-0.0097080469131469,0.0007635809597559,0.0016798780998215,-0.0006108647794462
1772904287116883700,7.2438837890625,0.0268583297729492,-0.0154111087322235,-0.0374800413846969,0.0007635809597559,-0.0007635809597559,0.0
1772904287135869000,7.262868896484375,-0.0065021514892578,-0.0035215020179748,-0.0109301656484603,0.0001527161948615,-0.0001527161948615,-0.0006108647794462
1772904287154854100,7.281854248046875,-0.0040149688720703,-0.0223644971847534,-0.0036426782608032,0.0013744457392022,-0.0001527161948615,0.0
1772904287173839600,7.300839599609375,0.0194883346557617,0.0062223672866821,-0.001452699303627,0.0013744457392022,-0.0001527161948615,0.0
1772904287192824800,7.319824951171875,0.0118999481201171,0.0081737339496612,-0.0061596035957336,0.0013744457392022,-0.0007635809597559,-0.0012217295588925
1772904287211810300,7.338810302734375,0.0024442672729492,0.0010802149772644,0.0176997333765029,0.0007635809597559,0.0004581485991366,-0.0012217295588925
1772904287230795500,7.35779541015625,-0.002425193786621,-0.008109837770462,0.0031054317951202,0.0007635809597559,-0.0013744457392022,0.0
1772904287249781000,7.376781005859375,-0.0092449188232421,-0.0035215020179748,-0.0085051506757736,0.0007635809597559,0.0010690133785828,-0.0006108647794462
1772904287268766200,7.39576611328125,0.0003538131713867,-0.015512004494667,-0.0012869089841842,0.0007635809597559,-0.0019853105768561,0.0006108647794462
1772904287287751700,7.414751708984375,-0.0067167282104492,0.0037502646446228,0.0128436237573623,0.0019853105768561,0.0010690133785828,0.0
1772904287306737000,7.43373681640625,-0.0066118240356445,0.0010209679603576,0.0031847208738327,0.0007635809597559,0.0004581485991366,0.0
1772904287325722400,7.452722412109375,-0.0065526962280273,-0.0013754367828369,-0.0252169221639633,0.0001527161948615,-0.0007635809597559,0.0006108647794462
1772904287344707600,7.47170751953125,-0.0086917877197265,-0.0039910376071929,0.0058053731918334,0.0007635809597559,-0.0001527161948615,0.0
1772904287363693000,7.490693115234375,-0.0013093948364257,0.0124003887176513,0.0103701800107955,0.0007635809597559,0.0004581485991366,-0.0006108647794462
1772904287382678300,7.50967822265625,0.010380744934082,0.0051736235618591,-0.0066521912813186,-0.0004581485991366,-0.0007635809597559,0.0
1772904287401663500,7.52866357421875,-0.0040044784545898,-0.0016965866088867,0.0101500749588012,0.0001527161948615,-0.0001527161948615,0.0
1772904287420649000,7.54764892578125,0.0006799697875976,-0.0134563446044921,0.0098969787359237,0.0007635809597559,0.0004581485991366,0.0006108647794462
1772904287439634400,7.566634521484375,0.0053586959838867,0.0197732150554656,0.0121889859437942,0.0007635809597559,-0.0007635809597559,-0.0006108647794462
1772904287458619600,7.58561962890625,-0.0042285919189453,0.0049125552177429,0.0215372890233993,0.0007635809597559,-0.0001527161948615,0.0
1772904287477604900,7.60460498046875,0.0099477767944335,0.007364809513092,0.0259753614664077,-0.0004581485991366,-0.0007635809597559,-0.0006108647794462
1772904287496590300,7.62359033203125,0.000523567199707,-0.0141454637050628,0.0023198425769805,0.0007635809597559,0.0004581485991366,0.0006108647794462
1772904287515575800,7.642575927734375,0.0099191665649414,7.49230384826e-05,-0.004689797759056,0.0007635809597559,-0.0007635809597559,0.0006108647794462
1772904287534560800,7.661560791015625,0.002608299255371,0.014314442873001,0.0188928693532943,0.0007635809597559,-0.0007635809597559,0.0
1772904287553546200,7.680546142578125,0.000288963317871,0.0069437623023986,-0.0120263546705245,0.0007635809597559,0.0004581485991366,0.0
1772904287572531700,7.69953173828125,-0.111180305480957,-0.0458139479160308,0.0118998736143112,0.0013744457392022,-0.0007635809597559,-0.002443459117785
1772904287591517000,7.718516845703125,-0.0206718444824218,0.0164795815944671,-0.0067805051803588,-0.0004581485991366,0.0016798780998215,-0.0036651887930929
1772904287610502400,7.73750244140625,-0.0399188995361328,-0.0263610631227493,0.0071271806955337,0.0007635809597559,-0.0062613640911877,0.0
1772904287629487600,7.756487548828125,-0.0325517654418945,0.025592416524887,0.0144870579242706,-0.0004581485991366,0.0047342018224298,0.0
1772904287648473000,7.77547314453125,0.0125999450683593,-0.0312138199806213,-0.0187293738126754,0.0013744457392022,-0.0032070400193333,0.0018325943965464
1772904287667458300,7.794458251953125,0.0435152053833007,0.0351115465164184,-0.0108877569437026,0.0001527161948615,0.0022907429374754,0.0
1772904287686443800,7.81344384765625,0.0530118942260742,-0.0337709188461303,-0.0039011985063552,0.0013744457392022,-0.0038179049734026,0.0012217295588925
1772904287705429000,7.832428955078125,0.0338907241821289,-0.004513680934906,0.005756065249443,0.0001527161948615,0.0041233371011912,0.0
1772904287724414200,7.851414306640625,0.0173158645629882,-0.0042400062084198,-0.0063186138868331,0.0013744457392022,-0.0025961752980947,0.0006108647794462
1772904287743399700,7.870399658203125,-0.0015745162963867,0.0383090674877166,0.0053299963474273,0.0013744457392022,0.0022907429374754,-0.0012217295588925
1772904287762385200,7.88938525390625,0.0172185897827148,-0.0257018506526947,-0.0070335119962692,0.0007635809597559,-0.0013744457392022,0.0
1772904287781370400,7.908370361328125,-0.0018243789672851,0.0242244899272918,-0.0136980265378952,0.0007635809597559,0.0010690133785828,-0.0012217295588925
1772904287800355600,7.92735546875,0.000462532043457,-0.0068100988864898,-0.027600809931755,0.0013744457392022,-0.0019853105768561,-0.0006108647794462
1772904287819341000,7.946341064453125,-0.0233211517333984,0.0313760340213775,0.0010457038879394,0.0007635809597559,0.0004581485991366,-0.0012217295588925
1772904287838326300,7.965326171875,-0.0090980529785156,-0.0299466550350189,0.0082341283559799,0.0007635809597559,-0.0013744457392022,0.0
1772904287857311700,7.984311767578125,-0.0067977905273437,0.0077556669712066,-0.0106728971004486,0.0007635809597559,-0.0001527161948615,-0.0006108647794462
1772904287876297000,8.003296875,-0.0043392181396484,-0.0154580771923065,-0.0007474869489669,0.0007635809597559,0.0004581485991366,-0.0006108647794462
1772904287895282400,8.022282470703125,-0.0021934509277343,0.0014722943305969,0.0228498578071594,0.0007635809597559,0.0004581485991366,0.0006108647794462
1772904287914267600,8.041267578125,0.0049009323120117,0.0013684034347534,0.0060173869132995,0.0001527161948615,0.0016798780998215,0.0
1772904287933252900,8.0602529296875,0.0022268295288085,0.0036805570125579,0.0038862079381942,0.0007635809597559,-0.0013744457392022,0.0
1772904287952238300,8.07923828125,0.0092487335205078,-0.0008669793605804,0.0131848156452178,0.0007635809597559,-0.0001527161948615,0.0
1772904287971223800,8.098223876953124,0.0113372802734375,0.0106739997863769,-0.003230482339859,0.0007635809597559,0.0004581485991366,0.0
1772904287990209000,8.117208984375,-0.0030813217163085,-0.0015142858028411,-0.007947415113449,0.0007635809597559,-0.0013744457392022,0.0
1772904288009194200,8.1361943359375,0.0111398696899414,-0.0109096765518188,-0.0171482264995574,0.0007635809597559,0.0004581485991366,0.0
1772904288028179700,8.1551796875,-0.0104427337646484,0.0150478184223175,0.0065092742443084,0.0007635809597559,-0.0001527161948615,0.0
1772904288047165000,8.1741650390625,-0.003157615661621,-0.0115277171134948,-0.0146482586860656,0.0007635809597559,0.0010690133785828,-0.0006108647794462
1772904288066150400,8.193150390625,-0.005563735961914,-0.0159583538770675,-0.0072254538536071,0.0007635809597559,-0.0019853105768561,0.0006108647794462
1772904288085135600,8.212135498046875,-0.0150642395019531,0.0077903866767883,0.0189398974180221,0.0007635809597559,0.0010690133785828,0.0
1772904288104121000,8.23112109375,0.0039434432983398,0.0028706192970275,-0.0027217119932174,0.0007635809597559,-0.0007635809597559,0.0
1772904288123106300,8.250106201171874,-0.0126152038574218,-0.0048440694808959,0.0114341527223587,0.0007635809597559,0.0004581485991366,0.0006108647794462
1772904288142091500,8.269091552734375,-0.0007858276367187,-0.0047176778316497,-0.0075280368328094,0.0007635809597559,0.0004581485991366,0.0
1772904288161077000,8.288076904296876,0.0014371871948242,-0.0067915022373199,-0.0141946524381637,0.0007635809597559,-0.0001527161948615,0.0
1772904288180062500,8.3070625,-0.0055570602416992,-0.0160124748945236,-0.0021982342004776,0.0007635809597559,-0.0007635809597559,0.0
1772904288199047700,8.326047607421875,-0.0170202255249023,0.0359124243259429,0.0117442458868026,0.0007635809597559,0.0004581485991366,-0.0006108647794462
1772904288218033000,8.345032958984374,0.0044822692871093,-0.0282517969608306,-0.0053054541349411,0.0013744457392022,-0.0007635809597559,0.0
1772904288237018400,8.364018310546875,0.011824607849121,0.0124120116233825,-0.0070439428091049,0.0007635809597559,-0.0001527161948615,0.0
1772904288256003600,8.383003662109376,0.021193504333496,-0.002211719751358,0.0070458203554153,0.0013744457392022,-0.0001527161948615,-0.0006108647794462
1772904288274989000,8.401989013671875,-0.0027589797973632,0.0006296932697296,-0.0020712614059448,0.0007635809597559,0.0016798780998215,0.0
1772904288293974300,8.420974365234375,0.002110481262207,0.009931206703186,-0.0115301460027694,0.0007635809597559,-0.0019853105768561,0.0
1772904288312959700,8.439959716796874,-0.007451057434082,0.0166455209255218,-0.0112173408269882,0.0007635809597559,0.0004581485991366,-0.0006108647794462
1772904288331945000,8.458945068359375,0.0042476654052734,-0.0118001997470855,0.0266102105379104,0.0013744457392022,-0.0013744457392022,0.0006108647794462
1772904288350930200,8.47793017578125,-0.0145177841186523,0.014130026102066,0.0004631131887435,0.0007635809597559,0.0004581485991366,0.0006108647794462
1772904288369915600,8.49691552734375,-0.0074110031127929,-0.0050438046455383,0.0075081586837768,0.0013744457392022,-0.0001527161948615,-0.0006108647794462
1772904288388900900,8.51590087890625,0.0092229843139648,0.0022265017032623,-0.008747398853302,0.0007635809597559,-0.0001527161948615,0.0
1772904288407886300,8.53488623046875,-0.0074748992919921,0.0020811259746551,-0.0084485113620758,0.0001527161948615,-0.0007635809597559,0.0
1772904288426871600,8.55387158203125,-0.016916275024414,0.018486350774765,0.0055308043956756,0.0013744457392022,-0.0001527161948615,0.0006108647794462
1772904288445857000,8.57285693359375,0.0067806243896484,-0.0051399767398834,0.0053329318761825,0.0013744457392022,-0.0001527161948615,0.0
1772904288464842200,8.59184228515625,-0.0076828002929687,-0.0047695934772491,0.0168165564537048,0.0007635809597559,-0.0007635809597559,0.0
1772904288483827500,8.610827392578125,0.0040225982666015,-0.0001965761184692,0.0189328491687774,0.0001527161948615,0.0004581485991366,0.0
1772904288502813000,8.62981298828125,-0.0054454803466796,-0.0025385916233062,-0.0028391629457473,0.0013744457392022,-0.0001527161948615,0.0
1772904288521798400,8.64879833984375,0.0110044479370117,-0.0049981772899627,-0.0147484838962554,0.0007635809597559,-0.0013744457392022,0.0
1772904288540783600,8.66778369140625,-0.0010871887207031,0.0091158747673034,0.0016357451677322,0.0007635809597559,-0.0007635809597559,0.0006108647794462
1772904288559768800,8.686768798828124,0.0037336349487304,-0.0219250619411468,0.0037869215011596,0.0007635809597559,-0.0001527161948615,0.0
1772904288578754300,8.70575439453125,0.0083169937133789,-0.0047634243965148,0.0062374174594879,0.0007635809597559,0.0004581485991366,0.0
1772904288597739500,8.724739501953126,-0.00592041015625,0.0044572949409484,-0.0010374188423156,0.0007635809597559,-0.0007635809597559,0.0
1772904288616724700,8.743724853515625,-0.0058012008666992,0.0043546855449676,-0.0056657642126083,0.0007635809597559,0.0004581485991366,0.0
1772904288635710200,8.762710205078125,0.0084285736083984,-0.0026693046092987,0.0203713774681091,0.0013744457392022,-0.0007635809597559,-0.0006108647794462
1772904288654695400,8.7816953125,-0.017578125,0.006774365901947,0.0128052085638046,0.0001527161948615,-0.0001527161948615,0.0
1772904288673681000,8.800680908203125,-0.0009212493896484,-0.0167988836765289,0.0056866854429244,0.0007635809597559,-0.0001527161948615,0.0
1772904288692666000,8.819666015625,-0.0103816986083984,-0.009649783372879,-0.0059813857078552,0.0007635809597559,0.0004581485991366,0.0
1772904288711651600,8.838651611328125,0.0132551193237304,-0.0070507228374481,-0.0008725374937057,0.0007635809597559,-0.0001527161948615,0.0
1772904288730636800,8.85763671875,-0.0012626647949218,0.0001465678215026,-0.0104258358478546,0.0013744457392022,-0.0001527161948615,-0.0006108647794462
1772904288749622000,8.8766220703125,-0.0084362030029296,0.000398963689804,-0.0128412842750549,0.0007635809597559,-0.0001527161948615,-0.0006108647794462
1772904288768607500,8.895607421875,-0.0107860565185546,0.0005439519882202,0.0111166387796401,0.0007635809597559,0.0004581485991366,-0.0012217295588925
1772904288787592700,8.9145927734375,-0.0082740783691406,0.0048833489418029,0.0108177661895751,0.0013744457392022,-0.0007635809597559,0.0
1772904288806578200,8.933578125,0.0012521743774414,0.011747121810913,-0.0083315223455429,0.0007635809597559,-0.0001527161948615,0.0
1772904288825563400,8.9525634765625,0.0036401748657226,-0.0026737451553344,0.0179163217544555,0.0001527161948615,0.0004581485991366,0.0
1772904288844548600,8.971548583984376,0.0010890960693359,0.006652295589447,0.0153658092021942,0.0007635809597559,0.0004581485991366,-0.0006108647794462
1772904288863534000,8.9905341796875,-0.0036544799804687,-0.0006652474403381,-0.0129420608282089,0.0007635809597559,0.0004581485991366,-0.0006108647794462
1772904288882519600,9.00951953125,0.0106630325317382,0.0110714137554168,-0.0106212347745895,0.0001527161948615,-0.0001527161948615,0.0006108647794462
1772904288901504800,9.0285048828125,0.0152502059936523,0.0060629248619079,-0.0080643445253372,0.0007635809597559,-0.0007635809597559,-0.0006108647794462
1772904288920490000,9.047489990234377,0.0129013061523437,0.0130218863487243,-0.0102426707744598,0.0007635809597559,-0.0001527161948615,0.0
1772904288939475500,9.066475341796876,-0.0017213821411132,0.0010533928871154,-0.0078285634517669,0.0001527161948615,-0.0001527161948615,0.0006108647794462
1772904288958460700,9.085460693359376,0.0077886581420898,0.0057691931724548,-0.0055039077997207,0.0007635809597559,0.0004581485991366,0.0
1772904288977446000,9.10444580078125,-0.0040006637573242,0.0033890902996063,-0.0103484243154525,0.0001527161948615,-0.0007635809597559,0.0
1772904288996431400,9.123431396484374,0.0077772140502929,0.0127335786819458,0.0084176063537597,0.0007635809597559,-0.0001527161948615,0.0
1772904289015416600,9.14241650390625,-0.011305809020996,0.0104784071445465,0.0035090446472167,0.0001527161948615,-0.0001527161948615,0.0
1772904289034402000,9.161402099609376,-0.0088205337524414,0.022345095872879,0.0103877633810043,0.0007635809597559,-0.0007635809597559,-0.0006108647794462
1772904289053387300,9.18038720703125,-0.0063714981079101,-0.0109761953353881,-0.0015594512224197,0.0007635809597559,0.0004581485991366,0.0
1772904289072372500,9.19937255859375,0.0100317001342773,-0.0108668506145477,-0.0157696157693862,0.0007635809597559,-0.0007635809597559,0.0
1772904289091358000,9.21835791015625,0.0075454711914062,-0.0058911442756652,-0.00136199593544,0.0007635809597559,0.0004581485991366,0.0
1772904289110343200,9.23734326171875,0.0028257369995117,-0.0034317970275878,0.0172252058982849,0.0007635809597559,-0.0007635809597559,0.0
1772904289129328400,9.256328369140626,0.0049676895141601,-0.0033138990402221,0.0193476229906082,0.0007635809597559,0.0004581485991366,0.0
1772904289148313900,9.27531396484375,-0.0044889450073242,0.0086257755756378,0.0140315294265747,0.0013744457392022,-0.0007635809597559,0.0006108647794462
1772904289167299000,9.294299072265623,-0.0138311386108398,-0.0010655522346496,-0.0169320404529571,0.0007635809597559,0.0004581485991366,0.0
1772904289186284500,9.313284423828126,0.0170936584472656,0.0011310279369354,0.0115001797676086,0.0007635809597559,-0.0007635809597559,0.0
1772904289205269800,9.332269775390625,0.0095434188842773,-0.0128048360347747,0.0041539371013641,0.0007635809597559,-0.0007635809597559,-0.0006108647794462
1772904289224255000,9.3512548828125,-0.0001459121704101,0.0182288587093353,-0.0122870206832885,0.0007635809597559,0.0004581485991366,0.0
1772904289243240400,9.370240478515624,0.0045633316040039,0.0039653480052948,0.0115421563386917,-0.0004581485991366,-0.0007635809597559,-0.0006108647794462
1772904289262225700,9.3892255859375,-9.6321105957e-05,-0.0099640786647796,-0.0050872564315795,0.0007635809597559,0.0004581485991366,0.0
1772904289281211000,9.4082109375,-0.0095081329345703,-0.0215155184268951,0.0019316673278808,0.0007635809597559,-0.0001527161948615,-0.0006108647794462
1772904289300196400,9.4271962890625,0.002450942993164,0.0213767886161804,0.0043480992317199,0.0007635809597559,-0.0007635809597559,-0.0006108647794462
1772904289319181600,9.446181640625,0.0019397735595703,0.0139698684215545,0.0019163638353347,0.0007635809597559,-0.0001527161948615,0.0
1772904289338167000,9.4651669921875,-0.0072307586669921,0.0067571401596069,-0.0052714049816131,0.0007635809597559,-0.0007635809597559,-0.0012217295588925
1772904289357152300,9.48415234375,-0.0047578811645507,-0.0120137333869934,0.001968115568161,0.0007635809597559,0.0010690133785828,-0.0006108647794462
1772904289376137500,9.503137451171876,-0.0068349838256835,-0.0001611113548278,-0.0074452757835388,0.0007635809597559,-0.0001527161948615,0.0
1772904289395123000,9.522123046875,0.0143699645996093,0.0017146468162536,0.0017563104629516,0.0007635809597559,-0.0007635809597559,0.0006108647794462
1772904289414108200,9.541108154296875,0.0024032592773437,-0.0170031189918518,0.001455545425415,0.0007635809597559,-0.0001527161948615,0.0
1772904289433093600,9.56009375,0.0096158981323242,-0.0001042783260345,-0.0011716187000274,0.0007635809597559,-0.0001527161948615,-0.0006108647794462
1772904289452078800,9.579078857421877,-0.0091743469238281,0.0023764371871948,-0.010768324136734,0.0001527161948615,0.0004581485991366,0.0
1772904289471064000,9.59806396484375,-0.0019702911376953,-0.0072259306907653,-0.0175787359476089,0.0007635809597559,0.0004581485991366,0.0
1772904289490049500,9.617049560546874,-0.0020217895507812,-0.0139608085155487,0.0062452554702758,0.0007635809597559,-0.0001527161948615,0.0
1772904289509034800,9.63603466796875,-0.0064640045166015,0.0119191706180572,-0.0053839832544326,0.0001527161948615,0.0004581485991366,0.0
1772904289528020000,9.65502001953125,0.0124578475952148,0.0116865038871765,0.0020513981580734,0.0013744457392022,0.0004581485991366,0.0
1772904289547005400,9.67400537109375,-0.001875877380371,-0.0142606496810913,0.002365231513977,0.0001527161948615,-0.0001527161948615,0.0
1772904289565990700,9.69299072265625,-0.0021314620971679,0.0190409719944,0.0141460299491882,0.0007635809597559,-0.0007635809597559,0.0
1772904289584976000,9.711975830078124,0.0050363540649414,0.0047483742237091,-0.0047437995672225,0.0007635809597559,-0.0001527161948615,-0.0006108647794462
1772904289603961300,9.73096142578125,-0.0115995407104492,0.0045185685157775,-0.0045220404863357,0.0007635809597559,-0.0001527161948615,0.0
1772904289622946600,9.749946533203126,0.0026664733886718,-0.0120543539524078,-0.0042427480220794,0.0001527161948615,-0.0001527161948615,0.0
1772904289641932000,9.76893212890625,0.004852294921875,-0.0047864615917205,0.00767382979393,0.0001527161948615,0.0004581485991366,0.0
1772904289660917200,9.787917236328123,0.0096340179443359,-1.06692314147e-05,0.0051955431699752,0.0001527161948615,-0.0001527161948615,0.0
1772904289679902500,9.80690234375,0.0258646011352539,-8.20755958557e-05,0.0002667009830474,0.0007635809597559,-0.0001527161948615,0.0
1772904289698888000,9.825887939453125,0.0066556930541992,-0.0120129883289337,0.0027970820665359,0.0007635809597559,-0.0007635809597559,0.0
1772904289717873200,9.844873046875,0.0088233947753906,0.009285569190979,-0.0091468542814254,0.0007635809597559,-0.0007635809597559,0.0
1772904289736858400,9.8638583984375,-0.0122900009155273,0.0020087957382202,0.0120651125907897,0.0013744457392022,-0.0001527161948615,0.0
1772904289755843800,9.88284375,-0.0049810409545898,-0.0049003958702087,0.0003164410591125,0.0013744457392022,-0.0001527161948615,0.0
1772904289774829000,9.9018291015625,0.0066709518432617,0.0070243179798126,0.0145408064126968,0.0013744457392022,0.0004581485991366,-0.0012217295588925
1772904289793814300,9.920814208984376,-0.0052785873413085,-0.0096955299377441,-0.0044745653867721,0.0007635809597559,-0.0007635809597559,0.0
1772904289812799700,9.9397998046875,-0.0145587921142578,-0.0235872268676757,-0.0089831948280334,0.0007635809597559,0.0004581485991366,-0.0006108647794462
1772904289831785000,9.958784912109374,-0.0026273727416992,-0.0044706761837005,-0.0110517442226409,0.0007635809597559,0.0004581485991366,-0.0006108647794462
1772904289850770200,9.977770263671877,0.0185174942016601,-0.0044011175632476,-0.0037035197019577,0.0013744457392022,0.0004581485991366,-0.0012217295588925
1772904289869755600,9.996755615234376,0.015669822692871,-0.0067423284053802,-0.0108886957168579,0.0007635809597559,-0.0001527161948615,-0.0006108647794462
1772904289888740900,10.015740966796876,-0.0056381225585937,0.0054427087306976,0.0056206881999969,0.0013744457392022,-0.0001527161948615,-0.0012217295588925
1772904289907726000,10.03472607421875,0.0015687942504882,0.0100350081920623,0.0006355792284011,0.0013744457392022,-0.0001527161948615,0.0
1772904289926711600,10.053711669921874,-0.0010309219360351,-0.0115057229995727,-0.0090043246746063,0.0007635809597559,0.0004581485991366,0.0
1772904289945696800,10.07269677734375,0.0060987472534179,-0.0140598714351654,0.020856037735939,0.0007635809597559,-0.0001527161948615,0.0
1772904289964682200,10.09168212890625,-0.0057010650634765,-0.0086505711078643,-0.0379479229450225,0.0013744457392022,0.002901607658714,0.0
1772904289983667500,10.11066748046875,-0.0035257339477539,0.0071716606616973,-0.0070671886205673,0.0001527161948615,-0.0050396346487104,0.0006108647794462
1772904290002652700,10.129652587890623,-0.0153236389160156,-0.0139176249504089,0.0230508744716644,0.0013744457392022,0.0041233371011912,0.0
1772904290021638000,10.148637939453126,0.0132274627685546,0.000234305858612,-0.0125054568052291,0.0007635809597559,-0.0007635809597559,0.0
1772904290040623400,10.167623291015625,-0.0106687545776367,0.0048584938049316,-0.0242405384778976,0.0013744457392022,-0.0007635809597559,0.0
1772904290059608600,10.186608642578124,0.0085077285766601,0.013666421175003,0.0116268694400787,0.0007635809597559,-0.0013744457392022,0.0006108647794462
1772904290078593800,10.20559375,-0.0175352096557617,-0.0098179876804351,-0.0028305649757385,0.0013744457392022,0.0022907429374754,0.0006108647794462
1772904290097579300,10.224579345703123,0.0136375427246093,0.0164535045623779,-0.0350969582796096,-0.0004581485991366,-0.0007635809597559,-0.0006108647794462
1772904290116564500,10.243564453125,-0.0054512023925781,-0.0004160404205322,0.0122010856866836,0.0007635809597559,-0.0019853105768561,0.0006108647794462
1772904290135549700,10.2625498046875,-0.017068862915039,-0.0096361637115478,0.009840577840805,0.0013744457392022,0.0022907429374754,0.0
1772904290154535200,10.28153515625,0.0114927291870117,0.028178185224533,-0.0163929164409637,0.0007635809597559,-0.0013744457392022,0.0
1772904290173520400,10.300520263671874,0.006561279296875,-0.0125516057014465,-0.0205269902944564,0.0007635809597559,-0.0013744457392022,0.0
1772904290192505600,10.319505615234377,-0.0052709579467773,0.0116078257560729,-0.0040268450975418,0.0007635809597559,0.0004581485991366,-0.0012217295588925
1772904290211491000,10.338490966796876,-0.0004644393920898,0.0042470693588256,0.0105274319648742,0.0007635809597559,0.0010690133785828,0.0
1772904290230476300,10.357476318359376,0.0017805099487304,-0.0025163292884826,-0.0059202313423156,0.0007635809597559,-0.0013744457392022,0.0
1772904290249461500,10.37646142578125,-0.0055742263793945,-0.0168948322534561,0.0177627801895141,-0.0004581485991366,-0.0001527161948615,0.0
1772904290268446700,10.39544677734375,0.0087690353393554,0.0043359100818634,-0.0155262649059295,0.0007635809597559,0.0004581485991366,0.0
1772904290287432200,10.41443212890625,0.0132198333740234,0.0083312690258026,-0.0200992226600646,0.0013744457392022,-0.0013744457392022,0.0
1772904290306417400,10.43341748046875,0.0059919357299804,0.0130595564842224,0.0108398795127868,-0.0004581485991366,-0.0001527161948615,0.0
1772904290325403000,10.45240283203125,0.0083427429199218,-0.0106027126312255,0.0058053433895111,0.0001527161948615,0.0004581485991366,0.0
1772904290344388000,10.47138818359375,0.0083465576171875,-0.0033054947853088,-0.0153515487909317,0.0007635809597559,0.0010690133785828,0.0
1772904290363373300,10.490373291015626,0.0061817169189453,-0.0201461613178253,-0.0012095868587493,0.0001527161948615,-0.0025961752980947,0.0
1772904290382358500,10.509358642578125,0.0085268020629882,0.0039546191692352,0.0175421833992004,0.0013744457392022,0.0016798780998215,-0.0006108647794462
1772904290401344000,10.528343994140624,0.0036954879760742,0.0017344951629638,-0.0205981433391571,0.0007635809597559,-0.0007635809597559,0.0
1772904290420329200,10.5473291015625,-0.0058040618896484,-0.0052584409713745,-0.0038410574197769,0.0001527161948615,-0.0007635809597559,0.0
1772904290439314400,10.566314453125,-0.0105972290039062,-0.0031955540180206,0.0169508904218673,0.0001527161948615,-0.0013744457392022,0.0
1772904290458299600,10.585299560546876,0.0059080123901367,0.0181096792221069,0.0118700861930847,0.0007635809597559,0.0016798780998215,-0.0006108647794462
1772904290477285000,10.60428515625,0.0105743408203125,-0.0011108517646789,-0.0376915335655212,0.0007635809597559,-0.0013744457392022,0.0
1772904290496270300,10.623270263671875,0.0032024383544921,-0.0058703422546386,0.00522181391716,0.0007635809597559,-0.0007635809597559,0.0006108647794462
1772904290515255600,10.642255615234374,0.0010967254638671,0.0175459384918212,0.0072100460529327,0.0007635809597559,0.0004581485991366,-0.0006108647794462
1772904290534240800,10.66124072265625,-0.0012531280517578,0.0170674622058868,-0.0071202218532562,0.0007635809597559,-0.0001527161948615,-0.0006108647794462
1772904290553226200,10.680226318359376,0.001173973083496,-0.034767597913742,-0.0095924586057662,0.0001527161948615,-0.0013744457392022,0.0
1772904290572211500,10.69921142578125,-0.001378059387207,0.0198403298854827,-0.0025693178176879,0.0001527161948615,-0.0001527161948615,-0.0006108647794462
1772904290591196700,10.71819677734375,0.0079631805419921,0.0054220259189605,0.0162611156702041,0.0019853105768561,0.0010690133785828,0.0
1772904290610182100,10.73718212890625,0.0008764266967773,-0.0323769748210907,-0.0169358253479003,0.0007635809597559,-0.0013744457392022,0.0006108647794462
1772904290629167400,10.75616748046875,-0.0040578842163085,0.0059981644153594,0.0016277879476547,0.0007635809597559,-0.0007635809597559,0.0006108647794462
1772904290648152600,10.775152587890624,0.0029430389404296,0.0197837948799133,0.0016678422689437,0.0007635809597559,0.0010690133785828,-0.0006108647794462
1772904290667137800,10.7941376953125,0.0025653839111328,-0.0133176743984222,0.0130595415830612,0.0001527161948615,-0.0019853105768561,-0.0006108647794462
1772904290686123300,10.813123291015623,0.0191049575805664,0.0081693530082702,0.0056994557380676,0.0001527161948615,-0.0007635809597559,0.0
1772904290705108500,10.8321083984375,-0.0070571899414062,0.0102361142635345,0.0334767997264862,0.0007635809597559,0.0010690133785828,-0.0006108647794462
1772904290724093700,10.85109375,-0.002272605895996,-0.0107819139957427,0.0049599856138229,0.0007635809597559,-0.0001527161948615,0.0006108647794462
1772904290743079000,10.870078857421875,0.0046577453613281,-0.0035570263862609,7.69644975662e-05,0.0001527161948615,-0.0019853105768561,0.0006108647794462
1772904290762064400,10.889064453125,-0.0021610260009765,0.0104246735572814,-0.0114354938268661,0.0007635809597559,0.0016798780998215,-0.0006108647794462
1772904290781049600,10.908049560546877,0.0074005126953125,-0.0181290209293365,0.0003826469182968,0.0013744457392022,-0.0013744457392022,0.0006108647794462
1772904290800035000,10.92703515625,-0.0046072006225585,0.0057368278503417,-0.0064424872398376,0.0007635809597559,0.0010690133785828,0.0
1772904290819020000,10.94602001953125,0.0050792694091796,0.0126940906047821,0.00544074177742,0.0013744457392022,-0.0007635809597559,0.0006108647794462
1772904290838005500,10.965005615234375,-0.0138750076293945,0.0284380614757537,-0.0254891663789749,0.0001527161948615,0.0004581485991366,0.0
1772904290856990700,10.98399072265625,-0.0088281631469726,-0.0285520106554031,0.019424021244049,0.0001527161948615,-0.0013744457392022,0.0006108647794462
1772904290875976000,11.002975830078125,-0.0304117202758789,0.0023713111877441,0.0191006213426589,0.0007635809597559,0.0010690133785828,-0.0006108647794462
1772904290894961400,11.02196142578125,0.0267591476440429,0.0629692077636718,-0.0346230566501617,-0.0004581485991366,0.0016798780998215,-0.0018325943965464
1772904290913946600,11.040946533203124,0.0143699645996093,-0.1381779164075851,-0.0546926259994506,0.0013744457392022,-0.0050396346487104,-0.0006108647794462
1772904290932931800,11.059931884765623,0.0170230865478515,-0.0408245325088501,0.065675750374794,0.0001527161948615,-0.0038179049734026,0.0030543238390237
1772904290951917000,11.0789169921875,0.0218868255615234,0.150506854057312,0.0570271462202072,0.0025961752980947,0.0071776611730456,0.0
1772904290970902500,11.097902587890625,0.0288209915161132,-0.0154194831848144,-0.076878011226654,0.0007635809597559,0.0016798780998215,-0.0006108647794462
1772904290989887700,11.1168876953125,0.0143547058105468,-0.1478656381368637,0.0247931033372879,0.0001527161948615,-0.009315688163042,0.0030543238390237
1772904291008873000,11.135873046875,-0.0208864212036132,0.1329531669616699,0.0527402609586715,0.0019853105768561,0.0090102553367614,-0.0006108647794462
1772904291027858200,11.154858154296877,0.007455825805664,0.0178529322147369,-0.0557514131069183,0.0007635809597559,0.002901607658714,-0.002443459117785
1772904291046843600,11.17384375,-0.0141811370849609,-0.1540566980838775,-0.077539324760437,-0.0004581485991366,-0.0074830935336649,0.0
1772904291065828900,11.192828857421874,-0.0354986190795898,0.0863242149353027,0.0639534145593643,0.0001527161948615,-0.0050396346487104,-0.0012217295588925
1772904291084814000,11.21181396484375,-0.0210113525390625,0.0763811469078064,0.078801155090332,0.0013744457392022,0.0114537142217159,-0.0018325943965464
1772904291103799600,11.230799560546876,0.0289182662963867,-0.1082080900669097,-0.0608679503202438,0.0007635809597559,-0.0025961752980947,0.0048869182355701
1772904291122784500,11.249784423828125,-0.3156633377075195,-0.0252666175365448,0.1407310664653778,-0.0114537142217159,0.0163406319916248,-0.0751363709568977
1772904291141770000,11.26877001953125,-0.066781997680664,0.0270759463310241,0.0440817028284072,-0.0071776611730456,0.006566796451807,-0.006719512399286
1772904291160755200,11.287755126953124,-0.0587778091430664,-0.0381293594837188,0.1034076213836669,0.0074830935336649,0.048105601221323,-0.0219911318272352
1772904291179740400,11.306740478515623,0.0121564865112304,0.1036447584629058,0.0117421746253967,-0.0187840927392244,-0.0661261156201362,-0.0293215103447437
1772904291198726000,11.325725830078126,0.1845903396606445,0.0096420645713806,-0.1997696906328201,0.0038179049734026,-0.1015562713146209,0.0152716198936104
