time,seconds_elapsed,acc_z,acc_y,acc_x,gyro_z,gyro_y,gyro_x
1772904304725705700,0.115705810546875,-0.0335006713867187,-0.1052079498767852,-0.0272985100746154,0.0013744457392022,0.0090102553367614,-0.0012217295588925
1772904304744691000,0.13469091796875,0.0159626007080078,0.0431364178657531,-0.1627394556999206,-0.0004581485991366,0.0004581485991366,-0.0006108647794462
1772904304763676200,0.15367626953125,-0.001235008239746,0.0545041263103485,0.0064651519060134,-0.0016798780998215,-0.0154243353754282,-0.0006108647794462
1772904304782661400,0.172661376953125,-0.0282478332519531,-0.0695662498474121,0.0772000774741172,0.0019853105768561,0.0138971740379929,-0.0018325943965464
1772904304801646600,0.191646484375,0.0069751739501953,-0.0001888275146484,-0.0804992318153381,0.0007635809597559,-0.0032070400193333,0.0
1772904304820631800,0.2106318359375,0.0057945251464843,0.0606956779956817,-0.0686615109443664,-0.0004581485991366,-0.0032070400193333,-0.0006108647794462
1772904304839617000,0.229616943359375,0.0013198852539062,-0.0378184616565704,0.0607588291168212,0.0001527161948615,-0.0032070400193333,0.0012217295588925
1772904304858602200,0.248602294921875,-0.0002641677856445,-0.0311405062675476,-0.0012421607971191,0.0025961752980947,0.009621120058,0.0
1772904304877587500,0.26758740234375,0.0354127883911132,0.0787687301635742,-0.0591146945953369,-0.0004581485991366,-0.0062613640911877,0.0
1772904304896572700,0.28657275390625,-0.0212259292602539,-0.0152860581874847,0.0044995844364166,0.0007635809597559,-0.0013744457392022,-0.0006108647794462
1772904304915558000,0.305557861328125,-0.010477066040039,-0.0487964153289794,0.0415232181549072,0.0007635809597559,0.0022907429374754,0.0
1772904304934543000,0.324543212890625,-0.0056180953979492,0.0588653683662414,-0.0434864312410354,0.0007635809597559,0.0004581485991366,0.0
1772904304953528300,0.3435283203125,0.0150260925292968,-0.0045292973518371,-0.0331884026527404,-0.0004581485991366,-0.0044287694618105,-0.0006108647794462
1772904304972513500,0.362513427734375,-0.0043287277221679,-0.0378866493701934,0.0413819700479507,0.0007635809597559,-0.0007635809597559,0.0012217295588925
1772904304991498800,0.381498779296875,-0.0015726089477539,0.0355236828327178,-0.0064388066530227,0.0007635809597559,0.0041233371011912,0.0
1772904305010484000,0.40048388671875,0.0095596313476562,0.0121318399906158,-0.0613563954830169,0.0001527161948615,-0.0044287694618105,0.0006108647794462
1772904305029469200,0.41946923828125,-0.0020761489868164,-0.0391046702861785,0.0222451835870742,0.0001527161948615,-0.0007635809597559,0.0006108647794462
1772904305048454700,0.43845458984375,0.0050897598266601,0.0210258662700653,0.0280768275260925,0.0001527161948615,0.0010690133785828,0.0
1772904305067439600,0.457439697265625,0.0044794082641601,0.0360581874847412,-0.0562442243099212,0.0007635809597559,0.0016798780998215,-0.0006108647794462
1772904305086424800,0.4764248046875,0.011092185974121,-0.0438740700483322,-0.0145554393529891,0.0001527161948615,-0.0044287694618105,0.0006108647794462
1772904305105410000,0.49541015625,-0.007786750793457,-0.0094082355499267,0.0484629571437835,0.0007635809597559,0.002901607658714,0.0
1772904305124395300,0.514395263671875,-0.0052042007446289,0.0422492921352386,-0.0107542723417282,0.0013744457392022,0.0016798780998215,-0.0006108647794462
1772904305143380500,0.53338037109375,-0.0004119873046875,-0.026401549577713,-0.0197041183710098,-0.0004581485991366,-0.0038179049734026,0.0
1772904305162365700,0.55236572265625,-0.00494384765625,-0.013660728931427,0.0134420990943908,0.0001527161948615,0.0004581485991366,0.0
1772904305181351000,0.571350830078125,8.01086425781e-05,0.0124406516551971,0.0035787969827651,0.0001527161948615,0.0016798780998215,-0.0012217295588925
1772904305200336100,0.590336181640625,0.0069856643676757,-0.0042977333068847,-0.0570379942655563,0.0007635809597559,-0.0013744457392022,-0.0006108647794462
1772904305219321300,0.6093212890625,0.006814956665039,-0.0270669907331466,0.0005397945642471,-0.0004581485991366,-0.0032070400193333,0.0012217295588925
1772904305238306600,0.628306640625,0.0040283203125,0.0248494148254394,0.0142238438129425,0.0007635809597559,0.002901607658714,0.0
1772904305257291800,0.647291748046875,0.004058837890625,-0.0065069198608398,-0.0232186913490295,0.0007635809597559,0.0004581485991366,0.0
1772904305276277000,0.666277099609375,0.0159950256347656,-0.0223812460899353,0.0074043124914169,0.0007635809597559,-0.0032070400193333,0.0
1772904305295262200,0.68526220703125,-0.0077943801879882,0.0274962186813354,0.0090581327676773,0.0013744457392022,0.0004581485991366,-0.0006108647794462
1772904305314247700,0.70424755859375,0.0017614364624023,0.0147455632686614,-0.0146428793668746,0.0007635809597559,0.0016798780998215,-0.0012217295588925
1772904305333232600,0.723232666015625,0.0064048767089843,-0.0229497849941253,-0.0189442336559295,-0.0004581485991366,-0.0019853105768561,0.0
1772904305352217900,0.7422177734375,-0.0054597854614257,0.0104986131191253,0.023759126663208,0.0007635809597559,-0.0001527161948615,-0.0006108647794462
1772904305371203000,0.761203125,-0.0027647018432617,0.003090888261795,0.002120018005371,0.0019853105768561,0.002901607658714,-0.0006108647794462
1772904305390188300,0.780188232421875,0.0044574737548828,-0.0084834098815917,-0.0376842767000198,0.0001527161948615,-0.0019853105768561,-0.0006108647794462
1772904305409173500,0.799173583984375,-0.002638816833496,0.001135915517807,-0.0065688639879226,0.0007635809597559,-0.0007635809597559,0.0
1772904305428158700,0.81815869140625,0.0069818496704101,0.0243599414825439,-0.0020150691270828,0.0007635809597559,0.0010690133785828,0.0
1772904305447144000,0.83714404296875,-0.0050163269042968,-0.0159743130207061,-0.0230827033519744,0.0007635809597559,-0.0001527161948615,-0.0006108647794462
1772904305466129200,0.856129150390625,0.0022039413452148,-0.0083415508270263,-0.0110829919576644,0.0007635809597559,-0.0013744457392022,0.0
1772904305485114400,0.8751142578125,-0.0049676895141601,0.0248211622238159,-0.0013778209686279,0.0001527161948615,0.0004581485991366,-0.0006108647794462
1772904305504099600,0.894099609375,-0.0143308639526367,-0.0226615965366363,-0.0204278826713562,0.0013744457392022,0.0004581485991366,0.0
1772904305523084800,0.913084716796875,0.0046911239624023,0.0154275298118591,-0.0339389741420745,0.0001527161948615,-0.0007635809597559,0.0
1772904305542070000,0.932070068359375,-0.009505271911621,0.0152772068977355,-0.0100934654474258,0.0001527161948615,0.0004581485991366,0.0
1772904305561055200,0.95105517578125,0.005044937133789,-0.0108507573604583,-0.0006005465984344,0.0007635809597559,0.0004581485991366,-0.0006108647794462
1772904305580040400,0.97004052734375,0.0001697540283203,0.006199836730957,-0.0216840952634811,0.0007635809597559,-0.0007635809597559,-0.0006108647794462
1772904305599025700,0.989025634765625,-0.0046253204345703,0.0109779238700866,0.0001646280288696,0.0001527161948615,-0.0007635809597559,-0.0006108647794462
1772904305618011000,1.008010986328125,0.0118770599365234,0.0033833086490631,0.021156370639801,0.0007635809597559,-0.0001527161948615,0.0
1772904305636996000,1.02699609375,-8.29696655273e-05,-0.0128003060817718,-0.0006355345249176,0.0001527161948615,0.0004581485991366,0.0
1772904305655981300,1.045981201171875,0.0001897811889648,0.0253146290779113,-0.0193226039409637,0.0007635809597559,-0.0007635809597559,0.0
1772904305674966500,1.064966552734375,0.0024976730346679,0.0195979475975036,0.0163633227348327,0.0007635809597559,0.0010690133785828,0.0
1772904305693951700,1.08395166015625,-0.0021333694458007,-0.0019071102142333,-0.0006390362977981,0.0007635809597559,-0.0001527161948615,0.0
1772904305712937000,1.10293701171875,0.0168380737304687,0.0123555064201354,-0.0029641538858413,0.0013744457392022,-0.0007635809597559,0.0006108647794462
1772904305731922200,1.121922119140625,0.0046319961547851,0.0071682631969451,0.0090872198343276,0.0007635809597559,-0.0001527161948615,0.0
1772904305750907400,1.140907470703125,-0.0024213790893554,-8.48472118377e-05,0.0113548189401626,0.0013744457392022,0.0004581485991366,0.0006108647794462
1772904305769892600,1.159892578125,0.0046396255493164,-0.0066080391407012,0.0091402679681777,0.0007635809597559,0.0004581485991366,-0.0006108647794462
1772904305788877800,1.1788779296875,0.0046777725219726,0.012158840894699,-0.0051300674676895,0.0013744457392022,-0.0001527161948615,0.0
1772904305807863000,1.197863037109375,0.002049446105957,0.0048183500766754,-0.0052393972873687,0.0001527161948615,-0.0001527161948615,-0.0006108647794462
1772904305826848300,1.21684814453125,0.0020217895507812,0.0025895237922668,0.0018277019262313,-0.0004581485991366,0.0004581485991366,0.0
1772904305845833500,1.23583349609375,0.0020675659179687,0.0046219229698181,-0.010004848241806,0.0007635809597559,-0.0001527161948615,-0.0006108647794462
1772904305864818700,1.254818603515625,0.0045461654663085,-0.0025480687618255,0.0139783769845962,0.0007635809597559,0.0004581485991366,-0.0012217295588925
1772904305883804000,1.273803955078125,0.0090999603271484,0.0144766271114349,0.0043030679225921,0.0007635809597559,0.0004581485991366,-0.0006108647794462
1772904305902789000,1.2927890625,-0.0051288604736328,0.0143308043479919,-0.0075322687625885,0.0001527161948615,-0.0007635809597559,-0.0012217295588925
1772904305921774300,1.3117744140625,0.0067996978759765,0.0023671984672546,-0.0146188735961914,0.0007635809597559,-0.0007635809597559,-0.0006108647794462
1772904305940759600,1.330759521484375,0.0184535980224609,0.0096031725406646,0.002129316329956,0.0001527161948615,0.0004581485991366,-0.0012217295588925
1772904305959744800,1.349744873046875,-0.0100822448730468,0.0119310319423675,-0.0073819607496261,0.0007635809597559,0.0004581485991366,-0.0012217295588925
1772904305978730000,1.36872998046875,-0.0076780319213867,4.15742397308e-05,0.0042045265436172,0.0007635809597559,-0.0001527161948615,-0.0012217295588925
1772904305997715200,1.387715087890625,0.018218994140625,0.0001202523708343,-0.0074342489242553,0.0007635809597559,0.0004581485991366,0.0
1772904306016700400,1.406700439453125,-0.0076789855957031,0.0026481449604034,0.0044284611940383,0.0007635809597559,-0.0001527161948615,0.0
1772904306035685600,1.425685546875,-0.0122900009155273,-0.0116669237613677,0.0066089183092117,0.0001527161948615,0.0004581485991366,0.0
1772904306054670800,1.4446708984375,-0.0052614212036132,-0.0087534487247467,-0.0005783587694168,0.0007635809597559,0.0004581485991366,-0.0006108647794462
1772904306073656000,1.463656005859375,-0.002852439880371,-0.0012252032756805,0.0015081465244293,0.0001527161948615,0.0004581485991366,0.0
1772904306092641300,1.482641357421875,0.0158672332763671,0.0177403092384338,-0.0033343732357025,0.0007635809597559,-0.0007635809597559,-0.0006108647794462
1772904306111626500,1.50162646484375,-0.007918357849121,-0.0269230753183364,0.0013798922300338,0.0007635809597559,-0.0007635809597559,-0.0006108647794462
1772904306130611700,1.52061181640625,0.0135221481323242,-0.0003009736537933,-0.0032309889793395,0.0007635809597559,0.0010690133785828,0.0
1772904306149597000,1.539596923828125,-0.0029687881469726,-0.0264888405799865,0.0064171105623245,0.0013744457392022,-0.0013744457392022,0.0
1772904306168582100,1.55858203125,0.0158338546752929,0.0050547420978546,-0.0004959553480148,0.0007635809597559,0.0010690133785828,-0.0012217295588925
1772904306187567400,1.5775673828125,-0.000772476196289,0.0074204802513122,0.0062005072832107,0.0007635809597559,-0.0013744457392022,-0.0006108647794462
1772904306206552600,1.596552490234375,0.0109806060791015,0.0163798928260803,-0.0010522156953811,0.0007635809597559,0.0010690133785828,0.0
1772904306225537500,1.61553759765625,-0.0174980163574218,-0.0028216242790222,-0.0102451294660568,0.0007635809597559,-0.0001527161948615,0.0
1772904306244522800,1.634522705078125,0.0086069107055664,0.0231606662273406,-0.0125780701637268,0.0007635809597559,0.0004581485991366,0.0
1772904306263508000,1.653508056640625,0.0014963150024414,-0.0148388743400573,-0.0078192055225372,0.0013744457392022,-0.0007635809597559,0.0
1772904306282493200,1.6724931640625,-0.0149478912353515,-0.0072665214538574,-0.0075104385614395,0.0007635809597559,0.0010690133785828,-0.0006108647794462
1772904306301478400,1.691478515625,-0.0124158859252929,0.0020534396171569,-0.0123143196105957,0.0013744457392022,-0.0007635809597559,0.0
1772904306320463600,1.710463623046875,-0.0144014358520507,-0.0074240267276763,0.0113593786954879,0.0013744457392022,0.0004581485991366,0.0
1772904306339448800,1.72944873046875,0.0046291351318359,-0.0190512239933013,-0.0029336959123611,0.0007635809597559,0.0004581485991366,0.0012217295588925
1772904306358434000,1.74843408203125,-0.0071697235107421,0.0378563702106475,0.0064418613910675,0.0013744457392022,0.0004581485991366,0.0
1772904306377419300,1.767419189453125,0.0070657730102539,0.01331028342247,-0.0216896682977676,0.0013744457392022,-0.0001527161948615,0.0
1772904306396404500,1.786404541015625,-0.0025043487548828,0.0058788955211639,0.0091654062271118,0.0007635809597559,-0.0007635809597559,0.0
1772904306415389700,1.8053896484375,-0.0166149139404296,0.0009308457374572,-0.0028545707464218,0.0001527161948615,0.0004581485991366,0.0006108647794462
1772904306434375000,1.824375,-0.0188570022583007,0.0102131962776184,-0.0120445936918258,0.0001527161948615,-0.0007635809597559,-0.0012217295588925
1772904306453360000,1.843360107421875,0.0120773315429687,-0.0369642078876495,0.0022852271795272,0.0007635809597559,0.0004581485991366,-0.0006108647794462
1772904306472345300,1.862345458984375,-0.0069503784179687,0.0131259858608245,-0.0022526979446411,0.0007635809597559,-0.0007635809597559,0.0
1772904306491330600,1.88133056640625,-0.004800796508789,-0.0010899305343627,0.0071008503437042,0.0007635809597559,-0.0001527161948615,-0.0006108647794462
1772904306510315800,1.900315673828125,0.0117473602294921,0.0157164931297302,0.0208608210086822,0.0001527161948615,-0.0007635809597559,-0.0006108647794462
1772904306529301000,1.919301025390625,0.0114755630493164,0.0015544891357421,-0.0146814286708831,0.0007635809597559,0.0004581485991366,0.0006108647794462
1772904306548286200,1.9382861328125,0.004312515258789,0.0201565325260162,-0.0003302991390228,0.0013744457392022,-0.0001527161948615,0.0
1772904306567271400,1.957271484375,0.0111913681030273,-0.0110543668270111,-0.0052364021539688,0.0013744457392022,-0.0001527161948615,0.0
1772904306586256600,1.976256591796875,0.0158824920654296,0.0148482620716094,-0.0048994868993759,0.0001527161948615,0.0004581485991366,0.0
1772904306605241900,1.995241943359375,-0.0006465911865234,-0.0161901116371154,-0.0022945404052734,0.0001527161948615,0.0004581485991366,-0.0006108647794462
1772904306624227000,2.01422705078125,-0.0266704559326171,-0.0067463517189025,0.0117446631193161,0.0007635809597559,-0.0025961752980947,0.0
1772904306643212300,2.03321240234375,-0.022256851196289,0.012419044971466,0.0045878738164901,0.0007635809597559,0.0022907429374754,-0.0018325943965464
1772904306662197500,2.052197509765625,-0.0123453140258789,-0.025398850440979,-0.0285785645246505,0.0007635809597559,-0.0019853105768561,0.0
1772904306681182700,2.0711826171875,0.0091543197631835,0.0082926750183105,-0.0022559314966201,0.0001527161948615,-0.0007635809597559,0.0006108647794462
1772904306700168000,2.09016796875,-0.0002422332763671,-0.0269571244716644,0.0070738345384597,0.0007635809597559,0.0010690133785828,0.0012217295588925
1772904306719153200,2.109153076171875,0.0142011642456054,0.0299014449119567,-0.0285889655351638,0.0001527161948615,0.0004581485991366,0.0
1772904306738138400,2.128138427734375,0.011880874633789,-0.015392929315567,-0.0141818076372146,0.0007635809597559,-0.0019853105768561,0.0
1772904306757123600,2.14712353515625,0.0047054290771484,0.0039274394512176,0.0142928510904312,0.0007635809597559,0.0016798780998215,0.0006108647794462
1772904306776108800,2.16610888671875,4.4822692871e-05,-0.0106240212917327,-0.0046079605817794,0.0007635809597559,-0.0001527161948615,0.0012217295588925
1772904306795094000,2.185093994140625,0.0049057006835937,0.0010898411273956,-0.0206968337297439,0.0001527161948615,-0.0001527161948615,0.0
1772904306814079200,2.204079345703125,-0.004714012145996,-0.0205793380737304,0.0099417567253112,0.0007635809597559,-0.0025961752980947,0.0
1772904306833064400,2.223064453125,-0.011845588684082,0.0130073130130767,0.0098816156387329,0.0007635809597559,0.002901607658714,0.0
1772904306852049400,2.24204931640625,0.0024271011352539,-0.0086267292499542,-0.0281538367271423,0.0007635809597559,-0.0032070400193333,0.0
1772904306871034600,2.26103466796875,-0.0094213485717773,-0.0178654938936233,0.0053430050611495,0.0007635809597559,0.0010690133785828,0.0
1772904306890019800,2.280019775390625,-0.0022087097167968,0.0011227428913116,0.0100363940000534,0.0007635809597559,-0.0013744457392022,0.0
1772904306909005000,2.299005126953125,0.0096673965454101,0.0225647985935211,-0.0043235272169113,0.0007635809597559,0.0010690133785828,0.0
1772904306927990300,2.317990234375,0.0165224075317382,-0.0086056590080261,0.0146200954914093,0.0007635809597559,-0.0013744457392022,0.0006108647794462
1772904306946975500,2.3369755859375,-0.0050058364868164,-0.0038453042507171,0.0167737901210784,0.0013744457392022,0.0010690133785828,-0.0006108647794462
1772904306965960700,2.355960693359375,0.0116338729858398,0.0170716345310211,0.0094318985939025,0.0007635809597559,-0.0001527161948615,0.0
1772904306984946000,2.37494580078125,-0.0218496322631835,-0.0116986632347106,0.0163691192865371,0.0007635809597559,-0.0001527161948615,0.0
1772904307003931100,2.39393115234375,-0.0050086975097656,-0.006780058145523,0.0046328157186508,0.0007635809597559,0.0004581485991366,0.0
1772904307022916400,2.412916259765625,0.0069580078125,0.0171773433685302,-0.0027177184820175,0.0001527161948615,-0.0001527161948615,0.0
1772904307041901600,2.431901611328125,-0.0121393203735351,0.0143138170242309,-0.0075201541185379,0.0007635809597559,-0.0007635809597559,-0.0006108647794462
1772904307060886800,2.45088671875,0.004220962524414,-0.0069784820079803,-0.0121432840824127,0.0013744457392022,-0.0001527161948615,0.0
1772904307079872000,2.4698720703125,-0.0028572082519531,-0.0163893103599548,-0.0071888864040374,0.0007635809597559,0.0004581485991366,0.0
1772904307098857200,2.488857177734375,-0.0050773620605468,0.0143787860870361,-0.0142295509576797,0.0001527161948615,-0.0007635809597559,-0.0006108647794462
1772904307117842400,2.507842529296875,-0.0051822662353515,0.0002664625644683,-0.0042599141597747,-0.0004581485991366,-0.0001527161948615,0.0
1772904307136827600,2.52682763671875,-0.009836196899414,-0.0139492750167846,0.009818285703659,0.0001527161948615,-0.0007635809597559,0.0006108647794462
1772904307155812900,2.545812744140625,-0.0095100402832031,-0.0064619183540344,-0.0042045712471008,0.0001527161948615,-0.0001527161948615,0.0
1772904307174798000,2.564798095703125,-0.0093946456909179,0.0005199909210205,0.0191442370414733,0.0007635809597559,-0.0001527161948615,0.0
1772904307193783300,2.583783203125,-0.0092430114746093,-0.0161583423614501,-0.0049861818552017,0.0007635809597559,-0.0001527161948615,0.0
1772904307212768500,2.6027685546875,-0.0233316421508789,-0.0013266801834106,0.0043259859085083,0.0007635809597559,0.0004581485991366,-0.0006108647794462
1772904307231753700,2.621753662109375,0.0076370239257812,0.0033501684665679,0.0087968856096267,0.0007635809597559,-0.0001527161948615,0.0
1772904307250738700,2.64073876953125,-0.0159568786621093,0.0036101937294006,0.0083853155374526,0.0007635809597559,-0.0013744457392022,-0.0012217295588925
1772904307269724000,2.659723876953125,0.019744873046875,0.0129070878028869,-0.0058460235595703,0.0019853105768561,-0.0007635809597559,0.0
1772904307288709000,2.678709228515625,-0.0014533996582031,-0.0083756744861602,-0.0030807852745056,0.0001527161948615,0.0010690133785828,0.0
1772904307307694300,2.6976943359375,-0.0060720443725585,-0.0083131492137908,-0.0122489035129547,0.0013744457392022,-0.0001527161948615,0.0
1772904307326679600,2.716679443359375,0.008127212524414,0.0033811926841735,-0.0165150314569473,0.0001527161948615,-0.0001527161948615,0.0
1772904307345664800,2.735664794921875,0.0054235458374023,0.0174300670623779,-0.0113105326890945,0.0001527161948615,0.0004581485991366,-0.0006108647794462
1772904307364650000,2.75464990234375,0.0077180862426757,0.0215042233467102,0.0032588392496109,0.0019853105768561,0.0004581485991366,0.0012217295588925
1772904307383635200,2.77363525390625,-0.0017576217651367,-0.0002020895481109,-0.0062448233366012,0.0007635809597559,-0.0007635809597559,-0.0006108647794462
1772904307402620400,2.792620361328125,0.0053968429565429,-0.0167203247547149,0.0032271146774291,0.0007635809597559,-0.0001527161948615,-0.0006108647794462
1772904307421605600,2.811605712890625,0.0052986145019531,-0.0044377148151397,-0.0036614090204238,0.0007635809597559,0.0004581485991366,0.0
1772904307440590800,2.8305908203125,-0.0111522674560546,0.0124988555908203,-0.0061761736869812,0.0007635809597559,-0.0007635809597559,0.0
1772904307459576000,2.849576171875,-0.0063552856445312,0.0004071593284606,0.0079049915075302,0.0007635809597559,-0.0007635809597559,0.0
1772904307478561300,2.868561279296875,0.0031871795654296,-0.0205398499965667,-0.0017172545194625,0.0001527161948615,0.0004581485991366,-0.0006108647794462
1772904307497546500,2.88754638671875,-0.0086822509765625,-0.015360951423645,0.0100931674242019,0.0001527161948615,0.0004581485991366,0.0
1772904307516531700,2.90653173828125,-0.022709846496582,-0.0010022819042205,0.0028139948844909,0.0001527161948615,-0.0001527161948615,0.0
1772904307535517000,2.925516845703125,0.0057668685913085,-0.0034124255180358,0.0004948675632476,0.0001527161948615,-0.0001527161948615,0.0006108647794462
1772904307554502100,2.944502197265625,0.0009469985961914,-0.017370268702507,0.019258514046669,-0.0004581485991366,-0.0001527161948615,0.0
1772904307573487400,2.9634873046875,-0.0106916427612304,0.0016027390956878,-0.0072488337755203,0.0001527161948615,0.0004581485991366,0.0
1772904307592472600,2.98247265625,0.0012712478637695,-0.0032465159893035,0.0093868970870971,0.0007635809597559,0.0004581485991366,0.0006108647794462
1772904307611457800,3.001457763671875,-0.0034351348876953,0.0015755891799926,0.0162223428487777,0.0001527161948615,0.0004581485991366,0.0
1772904307630443000,3.020443115234375,0.0061292648315429,0.0155693888664245,0.0160889476537704,0.0001527161948615,-0.0001527161948615,0.0
1772904307649428200,3.03942822265625,0.0034561157226562,-0.0152752101421356,0.00660240650177,0.0007635809597559,-0.0001527161948615,-0.0006108647794462
1772904307668413400,3.058413330078125,0.0080461502075195,0.0017647743225097,-0.003133088350296,0.0001527161948615,-0.0001527161948615,-0.0006108647794462
1772904307687398400,3.0773984375,0.0077800750732421,0.0158274471759796,-0.0124351382255554,0.0007635809597559,-0.0001527161948615,0.0
1772904307706383600,3.096383544921875,0.0006589889526367,-0.0195126831531524,-0.0004448294639587,0.0007635809597559,-0.0001527161948615,0.0
1772904307725368800,3.115368896484375,0.0079278945922851,-0.0097260177135467,0.0160533338785171,0.0013744457392022,-0.0007635809597559,0.0
1772904307744354000,3.13435400390625,0.0078229904174804,-0.0074763000011444,0.0016901940107345,0.0007635809597559,-0.0001527161948615,0.0
1772904307763339300,3.15333935546875,-0.0038518905639648,-0.0050918757915496,-0.0124158710241317,0.0019853105768561,0.0004581485991366,-0.0006108647794462
1772904307782324500,3.172324462890625,-0.0085487365722656,0.0020601451396942,-0.0008785873651504,0.0013744457392022,-0.0001527161948615,0.0
1772904307801309700,3.191309814453125,-0.0155220031738281,0.0186631977558136,0.0060992985963821,0.0007635809597559,-0.0001527161948615,0.0
1772904307820295000,3.210294921875,-0.0057144165039062,0.0133470296859741,-0.0009945780038833,0.0007635809597559,-0.0007635809597559,0.0
1772904307839280000,3.229280029296875,-0.0058403015136718,-0.0175211429595947,-0.0080511569976806,0.0013744457392022,0.0004581485991366,0.0
1772904307858265300,3.248265380859375,0.0060024261474609,-0.0009518563747406,-0.0055442750453948,0.0001527161948615,0.0004581485991366,0.0
1772904307877250600,3.26725048828125,0.0105485916137695,-0.0195803940296173,0.0061006695032119,0.0001527161948615,-0.0001527161948615,0.0
1772904307896235800,3.28623583984375,0.0031023025512695,0.0066008865833282,-0.0154861211776733,0.0007635809597559,0.0004581485991366,0.0006108647794462
1772904307915221000,3.305220947265625,0.0099000930786132,0.0018630027770996,-0.029255524277687,0.0001527161948615,-0.0007635809597559,0.0
1772904307934206200,3.324206298828125,0.0005130767822265,0.0017688572406768,0.0017623454332351,0.0007635809597559,0.0004581485991366,0.0
1772904307953191400,3.34319140625,0.0099439620971679,0.0111442506313323,0.0108495503664016,0.0007635809597559,-0.0007635809597559,0.0
1772904307972176600,3.3621767578125,-0.0067777633666992,0.013292372226715,-0.0013580918312072,0.0001527161948615,-0.0001527161948615,0.0
1772904307991161900,3.381161865234375,-0.0067548751831054,0.008584052324295,-0.0155341625213623,0.0007635809597559,-0.0007635809597559,0.0
1772904308010147000,3.40014697265625,0.0122079849243164,0.0061034858226776,-0.0080666691064834,0.0013744457392022,-0.0007635809597559,-0.0006108647794462
1772904308029132000,3.419132080078125,-0.0209016799926757,0.0063386261463165,0.0085620582103729,0.0007635809597559,-0.0001527161948615,0.0
1772904308048117200,3.4381171875,0.0146131515502929,0.0062522590160369,-0.014910951256752,0.0007635809597559,-0.0001527161948615,0.0
1772904308067102500,3.4571025390625,0.0118169784545898,0.00118950009346,-0.0028213113546371,0.0001527161948615,0.0004581485991366,0.0
1772904308086087700,3.476087646484375,0.0044822692871093,-0.0033592879772186,0.0066701918840408,0.0007635809597559,-0.0001527161948615,-0.0006108647794462
1772904308105073000,3.495072998046875,0.0139789581298828,-0.0032654106616973,-0.0074235051870346,0.0007635809597559,-0.0001527161948615,0.0
1772904308124058000,3.51405810546875,0.0113201141357421,0.0107685625553131,-0.0119722783565521,0.0007635809597559,-0.0007635809597559,0.0
1772904308143043300,3.533043212890625,-0.0005865097045898,0.0105357766151428,0.0045327842235565,0.0007635809597559,-0.0007635809597559,0.0
1772904308162028500,3.552028564453125,-0.0053920745849609,0.0173695385456085,0.0116696506738662,0.0007635809597559,-0.0001527161948615,0.0
1772904308181013800,3.571013671875,0.0042333602905273,0.0004501640796661,-0.0027379542589187,-0.0004581485991366,-0.0007635809597559,0.0
1772904308199999000,3.5899990234375,-0.002964973449707,0.0100094974040985,-0.0053049474954605,0.0001527161948615,-0.0001527161948615,0.0
1772904308218984200,3.608984130859375,-0.0027532577514648,0.009857565164566,-0.019429013133049,0.0007635809597559,-0.0007635809597559,0.0
1772904308237969400,3.627969482421875,-0.0050201416015625,0.0024152398109436,-0.0004834830760955,0.0013744457392022,-0.0001527161948615,-0.0006108647794462
1772904308256954600,3.64695458984375,0.0164804458618164,0.025871455669403,-0.0030276179313659,0.0007635809597559,0.0004581485991366,0.0
1772904308275939800,3.66593994140625,-0.0048103332519531,0.0065915286540985,-0.0007992833852767,0.0007635809597559,-0.0001527161948615,0.0
1772904308294925000,3.684925048828125,-0.0021419525146484,-0.0052275955677032,-0.0053102821111679,0.0007635809597559,0.0004581485991366,0.0
1772904308313910300,3.70391015625,0.0025148391723632,0.00197035074234,0.010857805609703,0.0013744457392022,-0.0001527161948615,0.0
1772904308332895500,3.7228955078125,0.004744529724121,0.0090099871158599,0.0035674422979354,0.0001527161948615,-0.0007635809597559,0.0
1772904308351880700,3.741880615234375,0.0072154998779296,0.0133287906646728,-0.0034408569335937,0.0007635809597559,0.0004581485991366,0.0006108647794462
1772904308370865700,3.76086572265625,0.0072908401489257,-0.0101258754730224,0.0155622363090515,0.0007635809597559,0.0004581485991366,0.0
1772904308389851000,3.779850830078125,-0.018798828125,-0.0003169775009155,0.0105930417776107,0.0007635809597559,-0.0007635809597559,0.0
1772904308408836000,3.798836181640625,-0.0089607238769531,-0.0004969835281372,-0.0034961551427841,0.0007635809597559,-0.0001527161948615,0.0
1772904308427821300,3.8178212890625,-0.0064315795898437,0.0327593386173248,-0.0011346489191055,0.0001527161948615,-0.0001527161948615,-0.0006108647794462
1772904308446806500,3.836806640625,-0.0039482116699218,0.0039109885692596,-0.0105622708797454,0.0013744457392022,0.0004581485991366,-0.0006108647794462
1772904308465791700,3.855791748046875,0.0057458877563476,-0.0241754055023193,0.0060585290193557,0.0001527161948615,-0.0001527161948615,-0.0006108647794462
1772904308484777000,3.87477685546875,0.0035591125488281,0.0232186615467071,0.0155500024557113,0.0001527161948615,0.0004581485991366,0.0
1772904308503762200,3.89376220703125,0.0010900497436523,-0.0077557265758514,-0.0057202279567718,0.0007635809597559,0.0004581485991366,0.0006108647794462
1772904308522747400,3.912747314453125,0.0058794021606445,-0.0076496005058288,0.0156900286674499,0.0001527161948615,0.0004581485991366,0.0
1772904308541732600,3.931732666015625,-0.0058832168579101,-0.0190557390451431,0.0223385393619537,0.0007635809597559,-0.0013744457392022,0.0006108647794462
1772904308560717800,3.9507177734375,0.0063104629516601,-0.0020859241485595,-0.0017813444137573,0.0013744457392022,-0.0001527161948615,0.0006108647794462
1772904308579703000,3.969703125,-0.0055885314941406,-0.0067378878593444,-0.0040420591831207,0.0007635809597559,-0.0001527161948615,-0.0006108647794462
1772904308598688300,3.988688232421875,0.0109462738037109,0.0075296461582183,0.0147900581359863,0.0007635809597559,-0.0001527161948615,0.0
1772904308617673500,4.007673583984375,0.0032854080200195,0.0102790296077728,-0.0066710263490676,0.0007635809597559,-0.0007635809597559,-0.0012217295588925
1772904308636658700,4.02665869140625,-0.0034523010253906,-0.0087207555770874,0.0049534738063812,0.0007635809597559,-0.0013744457392022,0.0
1772904308655644000,4.045643798828125,-0.0225563049316406,0.0126102268695831,-0.0044735074043273,0.0007635809597559,-0.0007635809597559,-0.0006108647794462
1772904308674629000,4.064629150390625,-0.0035009384155273,0.0030018687248229,-0.004370704293251,0.0001527161948615,-0.0001527161948615,-0.0006108647794462
1772904308693614300,4.0836142578125,-0.0130329132080078,-0.0085416436195373,0.0075482279062271,0.0001527161948615,-0.0007635809597559,0.0
1772904308712599600,4.102599609375,0.0058269500732421,-0.0033909678459167,-0.0020429491996765,0.0007635809597559,-0.0007635809597559,0.0
1772904308731584500,4.12158447265625,0.007948875427246,0.0084522366523742,-0.0042800158262252,0.0007635809597559,-0.0001527161948615,0.0
1772904308750569700,4.14056982421875,0.0078439712524414,0.0058483183383941,-0.0138935446739196,0.0007635809597559,-0.0007635809597559,0.0006108647794462
1772904308769555000,4.159554931640625,0.0007219314575195,-0.0105366706848144,0.0053751468658447,0.0013744457392022,0.0004581485991366,0.0
1772904308788540200,4.1785400390625,0.0029306411743164,0.0038326382637023,-0.0112437307834625,0.0007635809597559,-0.0007635809597559,0.0
1772904308807525400,4.197525390625,0.0005569458007812,0.0226300358772277,-0.0228062123060226,0.0007635809597559,0.0004581485991366,0.0
1772904308826510600,4.216510498046875,0.0121479034423828,-0.0060340166091918,0.0176988691091537,0.0007635809597559,-0.0001527161948615,0.0
1772904308845495800,4.235495849609375,0.0002126693725585,-0.0036710202693939,-0.0085566192865371,0.0007635809597559,-0.0007635809597559,0.0
1772904308864481000,4.25448095703125,-0.0021095275878906,0.0035147368907928,-0.0082821249961853,0.0007635809597559,-0.0007635809597559,0.0
1772904308883466200,4.27346630859375,0.0052108764648437,-0.0007908642292022,0.0102035552263259,0.0007635809597559,-0.0007635809597559,0.0
1772904308902451500,4.292451416015625,-0.004256248474121,0.0158880352973938,-0.004026636481285,0.0007635809597559,-0.0001527161948615,-0.0006108647794462
1772904308921436700,4.311436767578125,0.0003919601440429,0.0041145682334899,-0.0128415524959564,0.0007635809597559,-0.0007635809597559,0.0
1772904308940422000,4.330421875,-0.011305809020996,0.0064938962459564,0.0061968564987182,0.0007635809597559,-0.0001527161948615,0.0
1772904308959407000,4.349406982421875,-0.0157556533813476,0.0016800165176391,-0.0176232010126113,0.0001527161948615,-0.0001527161948615,0.0
1772904308978392300,4.368392333984375,-0.0035076141357421,0.00157430768013,-0.0011708885431289,0.0007635809597559,0.0004581485991366,0.0
1772904308997377500,4.38737744140625,0.010685920715332,-0.0074690580368041,-0.0108267813920974,0.0007635809597559,-0.0007635809597559,0.0
1772904309016362800,4.40636279296875,-0.0059423446655273,0.0042571127414703,-0.0036144703626632,0.0007635809597559,-0.0007635809597559,0.0
1772904309035348000,4.425347900390625,0.0106821060180664,0.001842439174652,-0.0153099298477172,0.0001527161948615,0.0004581485991366,0.0
1772904309054333200,4.444333251953125,0.0034646987915039,-0.0005459785461425,-0.0125775933265686,0.0001527161948615,-0.0001527161948615,0.0
1772904309073318100,4.463318115234375,-0.0035562515258789,0.0068916082382202,0.0155810415744781,0.0007635809597559,-0.0007635809597559,0.0
1772904309092303400,4.482303466796875,0.0012636184692382,0.0211576223373413,0.0032552629709243,0.0001527161948615,-0.0007635809597559,0.0
1772904309111288600,4.50128857421875,0.0107898712158203,0.0090892314910888,-0.0199041813611984,0.0007635809597559,0.0004581485991366,-0.0012217295588925
1772904309130273800,4.520273681640625,-0.0010223388671875,0.0018457174301147,0.0155834853649139,0.0013744457392022,-0.0001527161948615,-0.0006108647794462
1772904309149259000,4.539259033203125,0.0152845382690429,-0.0003097057342529,0.015314370393753,0.0001527161948615,-0.0001527161948615,0.0
1772904309168244200,4.558244140625,0.0010919570922851,0.0066876411437988,-0.0131036788225173,0.0001527161948615,-0.0007635809597559,0.0
1772904309187229400,4.5772294921875,0.0128192901611328,0.0039067566394805,0.0104041397571563,0.0007635809597559,-0.0007635809597559,0.0006108647794462
1772904309206214700,4.596214599609375,-0.0226211547851562,-0.0102571845054626,0.0007860511541366,0.0013744457392022,0.0010690133785828,0.0
1772904309225199900,4.615199951171875,0.0082063674926757,0.0274402797222137,-0.0037828087806701,0.0013744457392022,-0.0001527161948615,0.0006108647794462
1772904309244185000,4.63418505859375,0.0008363723754882,-0.0179699063301086,0.0055685639381408,0.0007635809597559,-0.0001527161948615,0.0
1772904309263170300,4.65317041015625,0.0033979415893554,0.0084512829780578,-0.0015119910240173,0.0001527161948615,0.0004581485991366,0.0
1772904309282155500,4.672155517578125,0.0032844543457031,0.0200765430927276,-0.011530727148056,0.0007635809597559,-0.0007635809597559,0.0006108647794462
1772904309301140500,4.691140380859375,-0.0013761520385742,-0.0204638838768005,0.0027244538068771,0.0007635809597559,-0.0007635809597559,0.0
1772904309320125700,4.710125732421875,0.0103168487548828,0.0127517879009246,-0.0114499330520629,0.0007635809597559,-0.0001527161948615,0.0
1772904309339111000,4.72911083984375,-0.001474380493164,-0.0018385052680969,-0.0254927426576614,0.0007635809597559,0.0004581485991366,0.0006108647794462
1772904309358096100,4.74809619140625,-0.0040149688720703,-0.0017102360725402,-0.0086810290813446,0.0001527161948615,-0.0007635809597559,0.0
1772904309377081300,4.767081298828125,-0.0087862014770507,-0.0018441975116729,0.0007749944925308,0.0007635809597559,-0.0001527161948615,0.0
1772904309396066600,4.786066650390625,-0.0084571838378906,-0.0114639401435852,0.00346440076828,0.0001527161948615,-0.0001527161948615,0.0
1772904309415051800,4.8050517578125,0.0009565353393554,-0.0185118019580841,0.0079312771558761,0.0007635809597559,-0.0007635809597559,-0.0006108647794462
1772904309434037000,4.824037109375,-0.0037860870361328,-0.0043474435806274,0.0121540576219558,0.0007635809597559,-0.0007635809597559,-0.0006108647794462
1772904309453022200,4.843022216796875,-0.0012702941894531,-0.0255097448825836,0.0094137042760849,0.0007635809597559,-0.0007635809597559,0.0006108647794462
1772904309472007400,4.86200732421875,0.0057916641235351,-0.0225825011730194,0.0046410709619522,0.0007635809597559,-0.0001527161948615,0.0
1772904309490992600,4.88099267578125,-0.0086393356323242,-0.0035609602928161,-0.0120507329702377,0.0007635809597559,-0.0001527161948615,0.0
1772904309509977900,4.899977783203125,-0.0084362030029296,-0.001167207956314,0.0001239478588104,0.0001527161948615,0.0004581485991366,-0.0006108647794462
1772904309528963000,4.918963134765625,-0.0058832168579101,-0.0083604454994201,-0.006912350654602,0.0007635809597559,0.0004581485991366,-0.0006108647794462
1772904309547948300,4.9379482421875,0.0035629272460937,0.0107603073120117,0.0001685470342636,0.0007635809597559,-0.0001527161948615,-0.0006108647794462
1772904309566933500,4.95693359375,0.0128955841064453,0.0198622643947601,0.0001963078975677,0.0007635809597559,-0.0001527161948615,0.0
1772904309585918700,4.975918701171875,0.0008182525634765,0.0289696455001831,-0.0065703243017196,0.0013744457392022,-0.0001527161948615,-0.0006108647794462
1772904309604903700,4.994903564453125,0.0123987197875976,-0.0162011682987213,0.0029666721820831,0.0007635809597559,-0.0001527161948615,0.0
1772904309623889000,5.013888916015625,-0.0019731521606445,0.0122399926185607,-0.001905083656311,0.0007635809597559,-0.0001527161948615,0.0
1772904309642874000,5.0328740234375,-0.0090465545654296,-0.0135925710201263,0.0193217992782592,0.0007635809597559,0.0004581485991366,-0.0006108647794462
1772904309661859300,5.051859375,0.0076828002929687,0.0124702155590057,-0.0162479728460311,0.0007635809597559,0.0004581485991366,0.0
1772904309680844500,5.070844482421875,0.0050783157348632,0.002598226070404,-0.0039392113685607,0.0001527161948615,0.0004581485991366,0.0
1772904309699829800,5.089829833984375,0.0026359558105468,-0.0113263428211212,0.0101201981306076,0.0007635809597559,-0.0001527161948615,0.0
1772904309718815000,5.10881494140625,0.0002708435058593,0.0006181895732879,-0.0067125111818313,0.0001527161948615,0.0004581485991366,-0.0006108647794462
1772904309737800200,5.12780029296875,-0.0044460296630859,-0.0138269364833831,0.000600591301918,0.0001527161948615,-0.0007635809597559,0.0
1772904309756785400,5.146785400390625,-0.0044574737548828,0.0123623311519622,0.0167492181062698,0.0007635809597559,0.0004581485991366,0.0
1772904309775770600,5.1657705078125,0.0005521774291992,0.0050965249538421,-6.98268413543e-05,0.0007635809597559,-0.0001527161948615,0.0
1772904309794755800,5.184755859375,-0.0085611343383789,0.0027789771556854,0.0025276988744735,0.0001527161948615,0.0004581485991366,0.0
1772904309813741000,5.203740966796875,-0.0063972473144531,0.0051633119583129,0.0046318769454956,0.0007635809597559,-0.0007635809597559,0.0
1772904309832726300,5.222726318359375,-0.0202264785766601,-0.0063743293285369,-0.0094728767871856,0.0007635809597559,-0.0001527161948615,0.0
1772904309851711500,5.24171142578125,0.0176954269409179,-0.0112168788909912,0.0022838413715362,0.0007635809597559,-0.0001527161948615,0.0
1772904309870696700,5.26069677734375,0.0008344650268554,-0.0038796365261077,0.0138841420412063,0.0001527161948615,-0.0001527161948615,-0.0006108647794462
1772904309889682000,5.279681884765625,0.003000259399414,0.0032356977462768,0.004146933555603,0.0001527161948615,-0.0007635809597559,0.0
1772904309908667100,5.298667236328125,-0.0110988616943359,0.0032911896705627,-0.0005919188261032,0.0007635809597559,-0.0001527161948615,0.0
1772904309927652000,5.317652099609375,0.0195837020874023,-0.0039493143558502,0.001862034201622,0.0007635809597559,-0.0001527161948615,0.0
1772904309946637300,5.33663720703125,-0.0065155029296875,0.0055737197399139,-0.0074875056743621,0.0013744457392022,-0.0001527161948615,0.0
1772904309965622500,5.35562255859375,-0.0040245056152343,0.0053166151046752,0.0022149384021759,0.0007635809597559,0.0004581485991366,0.0
1772904309984607700,5.374607666015625,0.0006933212280273,-0.0017988383769989,-0.019141748547554,0.0007635809597559,-0.0001527161948615,-0.0006108647794462
1772904310003593000,5.393593017578125,-0.006509780883789,0.0075778365135192,0.004917100071907,0.0007635809597559,-0.0007635809597559,-0.0006108647794462
1772904310022578200,5.412578125,-0.0016717910766601,-0.0040385127067565,0.0047311931848526,0.0007635809597559,-0.0007635809597559,0.0
1772904310041563400,5.4315634765625,-0.0039291381835937,0.005473107099533,0.0117386877536773,0.0007635809597559,0.0004581485991366,0.0
1772904310060548600,5.450548583984375,0.0031375885009765,0.0053719580173492,0.0047148615121841,0.0007635809597559,-0.0007635809597559,-0.0012217295588925
1772904310079533800,5.469533935546875,0.0126371383666992,0.0124259293079376,-0.0047501474618911,0.0007635809597559,-0.0001527161948615,-0.0006108647794462
1772904310098519000,5.48851904296875,0.0099458694458007,0.0124935507774353,0.0071610510349273,0.0007635809597559,-0.0001527161948615,0.0
1772904310117504000,5.50750390625,-0.0066175460815429,-0.0016001760959625,-0.0022429972887039,0.0007635809597559,-0.0001527161948615,0.0
1772904310136489200,5.5264892578125,0.0076799392700195,0.0101673007011413,-0.002552792429924,0.0007635809597559,-0.0007635809597559,0.0
1772904310155474400,5.545474365234375,0.0030708312988281,0.0007573366165161,-0.0075165778398513,0.0001527161948615,-0.0001527161948615,-0.0006108647794462
1772904310174459600,5.564459716796875,-0.0015811920166015,0.0057193636894226,0.0089769065380096,0.0007635809597559,-0.0007635809597559,0.0
1772904310193444900,5.58344482421875,0.0149049758911132,-0.0107953250408172,-0.007606953382492,0.0007635809597559,0.0004581485991366,0.0006108647794462
1772904310212430000,5.60243017578125,-0.001866340637207,-0.0059849917888641,-0.0148540437221527,0.0013744457392022,-0.0007635809597559,0.0
1772904310231415300,5.621415283203125,-0.0135297775268554,-0.0034678876399993,-0.0001795291900634,0.0007635809597559,0.0004581485991366,0.0
1772904310250400500,5.640400390625,-0.0061826705932617,0.0058887004852294,-0.0025921314954757,0.0007635809597559,-0.0007635809597559,0.0006108647794462
1772904310269385700,5.6593857421875,-0.0035076141357421,-0.0108101963996887,-0.0213817805051803,0.0007635809597559,0.0004581485991366,0.0
1772904310288371000,5.678370849609375,0.0008068084716796,-0.0035998225212097,-0.0188414007425308,0.0001527161948615,0.0004581485991366,0.0006108647794462
1772904310307356200,5.697356201171875,0.0148200988769531,0.0106424391269683,-0.0091114044189453,0.0007635809597559,-0.0001527161948615,0.0
1772904310326341400,5.71634130859375,0.0075092315673828,-0.0341908037662506,-0.0065467953681945,0.0007635809597559,0.0004581485991366,0.0006108647794462
1772904310345326600,5.73532666015625,-0.009169578552246,-0.003173828125,-0.001520961523056,0.0013744457392022,0.0004581485991366,0.0
1772904310364311800,5.754311767578125,0.0003080368041992,-0.0103978216648101,-0.0015589892864227,0.0013744457392022,-0.0007635809597559,0.0
1772904310383297000,5.773297119140625,9.82284545898e-05,-0.0052322447299957,0.0056776404380798,0.0007635809597559,0.0004581485991366,0.0
1772904310402282200,5.7922822265625,-0.0069656372070312,-0.000113695859909,-0.0085198730230331,0.0013744457392022,-0.0007635809597559,0.0
1772904310421267500,5.811267333984375,0.0025177001953125,0.0048946440219879,-0.0059147477149963,0.0001527161948615,-0.0007635809597559,-0.0006108647794462
1772904310440252700,5.830252685546875,0.0095653533935546,0.0072833895683288,-0.0014288872480392,0.0007635809597559,-0.0007635809597559,-0.0006108647794462
1772904310459238000,5.84923779296875,7.15255737304e-05,0.0141047835350036,-0.0198635458946228,0.0013744457392022,-0.0007635809597559,0.0
1772904310478222800,5.868222900390625,-0.0023632049560546,0.0044675469398498,0.0064894706010818,0.0007635809597559,0.0004581485991366,0.0
1772904310497208000,5.8872080078125,0.0094776153564453,0.0135989487171173,-0.0029310137033462,0.0001527161948615,-0.0007635809597559,-0.0006108647794462
1772904310516193300,5.906193359375,-0.0097370147705078,0.0108640491962432,0.0111982524394989,0.0007635809597559,-0.0007635809597559,0.0006108647794462
1772904310535178500,5.925178466796875,0.0022735595703125,0.0037664771080017,-0.0080291628837585,0.0001527161948615,0.0004581485991366,0.0
1772904310554163700,5.944163818359375,-0.0118789672851562,0.0110996067523956,0.00379379093647,0.0007635809597559,0.0004581485991366,0.0
1772904310573149000,5.96314892578125,-7.72476196289e-05,0.0035213828086853,0.0107565373182296,0.0013744457392022,-0.0007635809597559,0.0
1772904310592134100,5.982134033203125,0.0095758438110351,-0.0015077888965606,-0.003515139222145,0.0007635809597559,0.0004581485991366,0.0006108647794462
1772904310611119400,6.001119384765625,-0.002389907836914,0.0268788337707519,-0.0148800015449523,0.0007635809597559,-0.0001527161948615,-0.0006108647794462
1772904310630104600,6.0201044921875,0.0044288635253906,0.0027989745140075,-0.0147629380226135,0.0001527161948615,-0.0007635809597559,0.0
1772904310649089800,6.03908984375,-0.0025796890258789,-0.0115965902805328,-0.0193804055452346,0.0007635809597559,-0.0001527161948615,0.0006108647794462
1772904310668074800,6.05807470703125,-0.0051221847534179,-0.001874417066574,0.0021713227033615,0.0007635809597559,-0.0001527161948615,0.0
1772904310687060000,6.07706005859375,0.0068902969360351,0.012564867734909,0.0185379087924957,0.0001527161948615,0.0004581485991366,0.0
1772904310706045200,6.096045166015625,-0.0051050186157226,0.0077175498008728,-0.0101834088563919,0.0007635809597559,-0.0001527161948615,0.0
1772904310725030400,6.115030517578125,0.0114526748657226,-0.016060322523117,0.0108356922864913,0.0007635809597559,-0.0007635809597559,0.0
1772904310744015600,6.134015625,0.0041303634643554,0.0076156258583068,-0.0081552565097808,-0.0004581485991366,-0.0007635809597559,0.0
1772904310763000800,6.153000732421875,-0.0028705596923828,0.0076831579208374,-0.024678349494934,0.0007635809597559,-0.0007635809597559,0.0
1772904310781986000,6.171986083984375,-0.0052833557128906,0.0071035027503967,-0.010072186589241,0.0007635809597559,-0.0001527161948615,0.0006108647794462
1772904310800971300,6.19097119140625,-0.0053062438964843,-0.0143589973449707,0.0203317701816558,0.0007635809597559,-0.0001527161948615,0.0006108647794462
1772904310819956500,6.20995654296875,-0.009800910949707,-0.0021727979183197,-0.0082270503044128,0.0001527161948615,-0.0001527161948615,-0.0006108647794462
1772904310838941700,6.228941650390625,0.0115413665771484,0.0025723576545715,-0.0057266801595687,0.0007635809597559,-0.0007635809597559,0.0
1772904310857927000,6.247927001953125,0.0090827941894531,0.0025331974029541,0.0036280155181884,0.0007635809597559,0.0004581485991366,0.0
1772904310876912000,6.266912109375,-0.0025920867919921,-0.0069578886032104,0.0078913122415542,0.0007635809597559,-0.0001527161948615,0.0
1772904310895897300,6.2858974609375,-0.0143909454345703,-0.0068390071392059,-0.0182994604110717,0.0007635809597559,-0.0007635809597559,-0.0006108647794462
1772904310914882600,6.304882568359375,-0.0001106262207031,-0.008958101272583,-0.0158619433641433,0.0007635809597559,-0.0001527161948615,0.0
1772904310933867800,6.32386767578125,0.0094213485717773,0.0174448788166046,-0.0017149001359939,0.0007635809597559,-0.0013744457392022,0.0006108647794462
1772904310952853000,6.34285302734375,0.0022106170654296,0.0030545890331268,-0.0157244652509689,0.0001527161948615,-0.0001527161948615,0.0006108647794462
1772904310971838000,6.361837890625,0.0089235305786132,0.0052729249000549,-0.0036547780036926,0.0007635809597559,0.0004581485991366,0.0
1772904310990823200,6.3808232421875,0.0109825134277343,0.0051042139530181,-0.0036817044019699,0.0007635809597559,-0.0001527161948615,0.0
1772904311009808400,6.399808349609375,0.0083446502685546,-0.0043138563632965,-0.0012371391057968,0.0007635809597559,-0.0001527161948615,0.0
1772904311028793600,6.418793701171875,-0.0033836364746093,-0.0043225288391113,0.008129671216011,0.0007635809597559,-0.0001527161948615,0.0
1772904311047778800,6.43777880859375,0.0037488937377929,-0.0064855813980102,0.0198679864406585,-0.0004581485991366,0.0004581485991366,0.0
1772904311066764000,6.456763916015625,-0.0059070587158203,0.0147159397602081,-0.0157542824745178,0.0001527161948615,-0.0013744457392022,0.0
1772904311085749200,6.475749267578125,-0.0102214813232421,-0.0091375112533569,-0.0014988780021667,0.0007635809597559,-0.0001527161948615,0.0
1772904311104734500,6.494734375,-0.0171012878417968,-0.0109289288520812,-0.0013219863176345,0.0007635809597559,-0.0007635809597559,-0.0006108647794462
1772904311123719700,6.5137197265625,-0.0121870040893554,0.0243977308273315,0.0009955018758773,0.0007635809597559,-0.0007635809597559,-0.0006108647794462
1772904311142704600,6.53270458984375,0.0044488906860351,-0.0019707381725311,-0.0015356242656707,0.0007635809597559,0.0004581485991366,0.0
1772904311161689900,6.55168994140625,0.0042600631713867,0.0096851885318756,0.0078968256711959,0.0007635809597559,-0.0001527161948615,0.0
1772904311180675000,6.570675048828125,-0.0076417922973632,0.004726618528366,-0.0109650343656539,0.0007635809597559,0.0004581485991366,0.0
1772904311199660300,6.589660400390625,0.0090017318725585,-0.0071876645088195,0.0123100131750106,0.0007635809597559,-0.0001527161948615,0.0
1772904311218645500,6.6086455078125,0.0018815994262695,-0.009452074766159,-0.013732761144638,0.0001527161948615,-0.0007635809597559,0.0
1772904311237630700,6.627630615234375,-0.0096359252929687,0.0073746442794799,0.0120281279087066,0.0007635809597559,-0.0007635809597559,0.0
1772904311256616000,6.646615966796875,-0.0026121139526367,-0.0114332139492034,1.06692314147e-05,0.0001527161948615,-0.0001527161948615,-0.0006108647794462
1772904311275601200,6.66560107421875,-0.0047235488891601,0.00045907497406,-0.0258840769529342,0.0007635809597559,-0.0001527161948615,-0.0006108647794462
1772904311294586400,6.68458642578125,0.0069589614868164,0.0098943710327148,-0.006704643368721,0.0007635809597559,0.0004581485991366,0.0
1772904311313571600,6.703571533203125,0.0043315887451171,0.016689509153366,-0.0207808911800384,0.0001527161948615,-0.0007635809597559,-0.0006108647794462
1772904311332556800,6.722556884765625,0.0090494155883789,0.0236862003803253,-0.0086767524480819,0.0007635809597559,0.0004581485991366,-0.0012217295588925
1772904311351542000,6.7415419921875,0.0041980743408203,0.0253816545009613,-0.0064345002174377,-0.0004581485991366,-0.0007635809597559,0.0
1772904311370527200,6.76052734375,0.0086860656738281,0.0016091167926788,0.0004956871271133,0.0001527161948615,0.0004581485991366,-0.0006108647794462
1772904311389512400,6.779512451171875,-0.0033283233642578,0.0016018152236938,-0.0017236471176147,0.0007635809597559,-0.0007635809597559,0.0
1772904311408497700,6.79849755859375,-0.0034122467041015,0.0037516057491302,0.0079466551542282,0.0007635809597559,0.0004581485991366,0.0
1772904311427483000,6.81748291015625,-0.0057716369628906,0.0155962109565734,0.0030119717121124,0.0001527161948615,-0.0007635809597559,0.0
1772904311446467800,6.8364677734375,-0.0033073425292968,0.0126962959766387,-0.0019155144691467,0.0001527161948615,-0.0001527161948615,0.0
1772904311465453000,6.855453125,0.001469612121582,0.0031482279300689,-0.0062750577926635,0.0001527161948615,0.0004581485991366,0.0
1772904311484438300,6.874438232421875,0.0061254501342773,-0.0016550421714782,-0.0087019056081771,0.0001527161948615,-0.0007635809597559,0.0
1772904311503423500,6.893423583984375,0.0081558227539062,-0.018064260482788,0.0101288259029388,0.0007635809597559,-0.0001527161948615,0.0
1772904311522408700,6.91240869140625,-0.0059976577758789,-0.0081674456596374,-0.0066065043210983,0.0007635809597559,-0.0007635809597559,0.0
1772904311541394000,6.931393798828125,-0.0081958770751953,0.006182461977005,-0.0067077726125717,0.0007635809597559,-0.0001527161948615,-0.0006108647794462
1772904311560379100,6.950379150390625,0.0085020065307617,0.0084719359874725,0.0075855255126953,0.0001527161948615,-0.0007635809597559,0.0
1772904311579364400,6.9693642578125,-0.0033464431762695,0.0037279725074768,-0.0090292394161224,0.0007635809597559,0.0004581485991366,0.0
1772904311598349300,6.988349365234375,0.0109233856201171,-0.0034866333007812,0.0123334974050521,0.0007635809597559,0.0004581485991366,0.0
1772904311617334500,7.00733447265625,-0.0084962844848632,0.0085950195789337,0.0003662705421447,0.0007635809597559,-0.0001527161948615,0.0
1772904311636319700,7.02631982421875,0.0154294967651367,-0.0077620148658752,-0.0138895362615585,0.0007635809597559,-0.0007635809597559,0.0
1772904311655305000,7.045304931640625,0.0104446411132812,0.0042245090007781,-0.0183196067810058,0.0013744457392022,-0.0007635809597559,0.0
1772904311674290200,7.064290283203125,0.0150814056396484,0.0016220808029174,-0.029472678899765,-0.0004581485991366,-0.0001527161948615,0.0
1772904311693275400,7.083275390625,-0.0038890838623046,0.0175784826278686,0.0063020139932632,-0.0004581485991366,0.0004581485991366,0.0
1772904311712260600,7.102260498046875,-0.0016040802001953,0.0172415971755981,0.0039122849702835,-0.0004581485991366,0.0004581485991366,0.0
1772904311731245800,7.121245849609375,0.0005264282226562,-0.0042617321014404,-0.0053822845220565,0.0001527161948615,-0.0007635809597559,0.0
1772904311750231000,7.14023095703125,-0.0018854141235351,-0.0018613934516906,-0.0146622359752655,0.0007635809597559,-0.0007635809597559,-0.0006108647794462
1772904311769216300,7.15921630859375,0.0006866455078125,-0.0017385482788085,-0.0003479868173599,0.0007635809597559,-0.0001527161948615,0.0
1772904311788201500,7.178201416015625,-0.0203971862792968,-0.0181047022342681,0.0115405321121215,0.0001527161948615,-0.0007635809597559,0.0
1772904311807186700,7.197186767578125,0.005645751953125,0.0035529732704162,-0.007593497633934,0.0007635809597559,-0.0001527161948615,-0.0006108647794462
1772904311826172000,7.216171875,-0.0059928894042968,0.0130108296871185,0.0089818835258483,0.0001527161948615,-0.0001527161948615,0.0
1772904311845157000,7.2351572265625,-0.0104227066040039,0.0177051424980163,0.0042621344327926,0.0001527161948615,0.0004581485991366,-0.0006108647794462
1772904311864142300,7.254142333984375,-0.0007438659667968,0.0172441899776458,-0.0005399733781814,0.0007635809597559,0.0004581485991366,0.0
1772904311883127300,7.273127197265625,0.0181398391723632,-0.0136947929859161,0.0086701214313507,0.0007635809597559,-0.0007635809597559,0.0
1772904311902112500,7.292112548828125,-0.0080671310424804,-0.0157071352005004,0.0015691071748733,0.0007635809597559,-0.0001527161948615,0.0
1772904311921097700,7.31109765625,-0.0009822845458984,0.0013473331928253,0.0181016772985458,-0.0004581485991366,-0.0007635809597559,0.0
1772904311940083000,7.3300830078125,-0.0009489059448242,-0.010164201259613,-0.007963940501213,0.0007635809597559,0.0010690133785828,0.0
1772904311959068200,7.349068115234375,0.0037870407104492,-0.0075470805168151,0.0037835985422134,0.0001527161948615,-0.0001527161948615,0.0
1772904311978053400,7.368053466796875,0.0037412643432617,0.002082735300064,-0.0080599933862686,0.0007635809597559,0.0004581485991366,0.0
1772904311997038600,7.38703857421875,-0.0155239105224609,-0.0238454341888427,0.008377581834793,0.0007635809597559,-0.0007635809597559,-0.0006108647794462
1772904312016023800,7.40602392578125,-0.0033235549926757,-0.0165396332740783,-0.0055176466703414,-0.0004581485991366,-0.0001527161948615,0.0
1772904312035009000,7.425009033203125,-0.0080757141113281,-0.008872777223587,0.0086904168128967,0.0007635809597559,-0.0001527161948615,0.0
1772904312053994200,7.443994140625,-0.012831687927246,-0.0065945386886596,0.0014736056327819,0.0001527161948615,0.0004581485991366,-0.0006108647794462
1772904312072979200,7.462979248046875,0.001749038696289,0.0030799806118011,0.0082967728376388,0.0007635809597559,-0.0001527161948615,0.0
1772904312091964400,7.48196435546875,-0.0101537704467773,0.0149250328540802,-0.0014555156230926,0.0001527161948615,-0.0001527161948615,-0.0006108647794462
1772904312110949600,7.50094970703125,-0.0052709579467773,0.0123175978660583,-0.0084366053342819,0.0007635809597559,0.0004581485991366,-0.0012217295588925
1772904312129934800,7.519934814453125,0.0043525695800781,0.0025467574596405,-0.0058076530694961,-0.0004581485991366,-0.0001527161948615,0.0
1772904312148920000,7.538920166015625,-0.005126953125,0.0051141679286956,0.0038077235221862,0.0001527161948615,0.0004581485991366,-0.0006108647794462
1772904312167905300,7.5579052734375,-0.0074262619018554,-0.0065776407718658,0.0012001991271972,0.0001527161948615,0.0004581485991366,0.0
1772904312186890500,7.576890380859375,0.009169578552246,-0.0043143630027771,-0.0032384991645812,0.0007635809597559,-0.0007635809597559,0.0
1772904312205875700,7.595875732421875,0.0091381072998046,0.0097348093986511,-0.0172559022903442,0.0001527161948615,-0.0007635809597559,-0.0006108647794462
1772904312224860700,7.614860595703125,0.0045986175537109,0.0120625495910644,-0.0098363012075424,0.0007635809597559,-0.0001527161948615,0.0
1772904312243846100,7.63384619140625,0.0044832229614257,0.0050429999828338,-0.0052425414323806,0.0001527161948615,-0.0001527161948615,0.0
1772904312262831400,7.652831298828125,-0.0004091262817382,0.0050386786460876,-0.0098278522491455,0.0007635809597559,-0.0001527161948615,0.0
1772904312281816300,7.67181640625,0.0139188766479492,0.0118188261985778,-0.0024959594011306,0.0007635809597559,0.0004581485991366,0.0
1772904312300801500,7.690801513671875,-0.0052881240844726,0.0069621205329895,-0.0003826469182968,0.0013744457392022,-0.0007635809597559,0.0006108647794462
1772904312319786800,7.709786865234375,0.0160198211669921,-0.0119735598564147,-0.0145343095064163,0.0007635809597559,-0.0001527161948615,-0.0006108647794462
1772904312338772000,7.72877197265625,-0.0032520294189453,0.0143527090549469,-0.0021630078554153,0.0001527161948615,0.0004581485991366,0.0
1772904312357757200,7.747757080078125,0.0039119720458984,-0.0116826295852661,0.0071197897195816,0.0001527161948615,-0.0001527161948615,0.0
1772904312376742400,7.766742431640625,0.0106821060180664,0.0001396238803863,-0.0021622627973556,0.0007635809597559,-0.0001527161948615,0.0
1772904312395727600,7.7857275390625,0.0034265518188476,-0.0046023428440093,0.0022360980510711,-0.0004581485991366,0.0004581485991366,0.0
1772904312414712800,7.804712890625,-0.0013904571533203,0.0330847799777984,-0.0119741559028625,0.0007635809597559,0.0004581485991366,0.0
1772904312433698000,7.823697998046875,0.0032815933227539,-0.0007462203502655,0.0002986788749694,0.0001527161948615,-0.0007635809597559,0.0
1772904312452683300,7.842683349609375,-0.0130605697631835,0.0041109025478363,-0.0138368755578994,0.0001527161948615,0.0004581485991366,0.0
1772904312471668500,7.86166845703125,-0.0032958984375,-0.0077240765094757,0.0029261708259582,0.0001527161948615,0.0004581485991366,-0.0006108647794462
1772904312490653700,7.88065380859375,-0.0055828094482421,0.0042015016078948,0.0074108242988586,0.0007635809597559,-0.0007635809597559,0.0
1772904312509639000,7.899638916015625,-0.0124158859252929,-0.0099699795246124,-0.0020051896572113,0.0007635809597559,0.0004581485991366,0.0
1772904312528623900,7.918623779296875,-0.0098857879638671,0.0018564462661743,-0.0041687339544296,0.0001527161948615,0.0004581485991366,0.0
1772904312547609000,7.937609130859375,0.002049446105957,0.0018790364265441,0.0054457336664199,0.0007635809597559,-0.0001527161948615,0.0
1772904312566594300,7.95659423828125,-0.0099382400512695,0.0113126635551452,0.011919766664505,0.0007635809597559,0.0004581485991366,0.0
1772904312585579500,7.97557958984375,0.0019588470458984,0.001588225364685,-0.0121958255767822,0.0007635809597559,0.0004581485991366,0.0
1772904312604564700,7.994564697265625,0.0111494064331054,-0.0004793405532836,-0.0117480009794235,0.0001527161948615,0.0004581485991366,-0.0006108647794462
1772904312623550000,8.013550048828124,0.017953872680664,-0.0145568251609802,-0.0092865526676177,0.0001527161948615,-0.0007635809597559,0.0
1772904312642535200,8.03253515625,0.015202522277832,-0.0048532783985137,0.0141692906618118,0.0001527161948615,0.0004581485991366,0.0
1772904312661520400,8.051520263671875,-0.0085926055908203,0.0021384060382843,-0.0047802329063415,0.0007635809597559,-0.0001527161948615,0.0
1772904312680505300,8.07050537109375,0.008000373840332,0.0066955685615539,-0.0092022567987442,0.0007635809597559,-0.0007635809597559,-0.0006108647794462
1772904312699490600,8.089490478515625,-0.0063438415527343,-0.0049546658992767,-0.0020262002944946,0.0007635809597559,-0.0001527161948615,0.0
1772904312718475800,8.108475830078126,0.0101022720336914,0.0114511251449584,0.005166009068489,0.0007635809597559,-0.0001527161948615,0.0
1772904314180335000,9.570335205078123,-0.003270149230957,-0.0027625262737274,-0.0030078887939453,0.0007635809597559,0.0004581485991366,-0.0012217295588925
1772904314199320000,9.589320068359376,-0.0032815933227539,0.0089040994644165,-0.0148359090089797,0.0001527161948615,-0.0001527161948615,0.0
1772904314218305300,9.60830517578125,-0.0007810592651367,-0.0076034665107727,-0.0074178278446197,0.0007635809597559,-0.0001527161948615,0.0
1772904314237290500,9.62729052734375,0.0014753341674804,0.0114337503910064,0.0089949369430542,0.0001527161948615,-0.0001527161948615,-0.0006108647794462
1772904314256275700,9.646275634765624,-0.0033960342407226,-0.0026642084121704,-0.0004531741142272,0.0007635809597559,-0.0001527161948615,0.0
1772904314275261000,9.665260986328123,-0.0009317398071289,0.0116647183895111,-0.0049397498369216,0.0007635809597559,-0.0007635809597559,0.0
1772904314294246100,9.68424609375,0.008432388305664,0.0092683136463165,-0.00490003824234,0.0001527161948615,-0.0001527161948615,0.0006108647794462
1772904314313231000,9.703231201171874,0.006113052368164,0.0090685784816741,0.0255683064460754,0.0007635809597559,-0.0001527161948615,0.0
1772904314332216300,9.72221630859375,0.0008955001831054,0.0016411244869232,-0.0078801214694976,0.0013744457392022,-0.0001527161948615,0.0006108647794462
1772904314351201500,9.741201416015626,0.0055704116821289,-0.0074839293956756,0.0018022209405899,0.0007635809597559,0.0004581485991366,0.0006108647794462
1772904314370186800,9.760186767578125,-0.0086526870727539,0.0092635750770568,-0.0029293596744537,0.0001527161948615,-0.0007635809597559,0.0006108647794462
1772904314389172000,9.779171875,-0.0107984542846679,-0.0093889534473419,-0.0030170232057571,0.0007635809597559,0.0004581485991366,0.0
1772904314408157200,9.7981572265625,-0.0127544403076171,0.000223308801651,0.0016831159591674,0.0001527161948615,-0.0001527161948615,0.0
1772904314427142100,9.81714208984375,-0.0055456161499023,0.0028715729713439,0.0063590854406356,0.0007635809597559,-0.0001527161948615,0.0
1772904314446127400,9.83612744140625,-0.007756233215332,0.0029565691947937,-0.0029626488685607,0.0007635809597559,-0.0001527161948615,-0.0006108647794462
1772904314465112600,9.855112548828124,-0.007582664489746,0.0193526446819305,0.001621663570404,0.0007635809597559,-0.0007635809597559,0.0
1772904314484097800,9.874097900390623,0.013686180114746,-0.0259482115507125,-0.0033020973205566,0.0007635809597559,-0.0001527161948615,0.0
1772904314503083000,9.8930830078125,0.0061769485473632,0.0145229399204254,-0.0268359929323196,0.0007635809597559,0.0004581485991366,0.0
1772904314522068200,9.912068115234376,-0.0057554244995117,0.0001846551895141,0.0042011141777038,0.0001527161948615,-0.0007635809597559,-0.0006108647794462
1772904314541053200,9.93105322265625,0.0014905929565429,-0.0091698169708251,0.0161915272474288,0.0001527161948615,0.0004581485991366,-0.0006108647794462
1772904314560038400,9.950038330078126,-0.0032253265380859,0.0076684355735778,-0.0030033737421035,0.0001527161948615,0.0004581485991366,-0.0006108647794462
1772904314579023600,9.969023681640625,-0.0007638931274414,0.0028963685035705,-0.0101860165596008,-0.0004581485991366,-0.0001527161948615,0.0
1772904314598008800,9.9880087890625,0.0062761306762695,0.0102150738239288,0.0089698284864425,0.0001527161948615,-0.0001527161948615,-0.0006108647794462
1772904314616994000,10.006994140625,-0.0080518722534179,0.003138929605484,-0.0076855421066284,0.0007635809597559,-0.0001527161948615,0.0
1772904314635979300,10.025979248046877,0.0011558532714843,0.0006093084812164,-0.0238754153251647,0.0007635809597559,0.0004581485991366,0.0
1772904314654964200,10.044964111328126,0.005742073059082,0.0148703753948211,-0.0027958750724792,0.0007635809597559,-0.0007635809597559,0.0
1772904314673949400,10.063949462890625,-0.0036296844482421,-0.0088333189487457,0.0019587874412536,0.0007635809597559,-0.0001527161948615,-0.0012217295588925
1772904314692934700,10.0829345703125,-0.001077651977539,0.0148379206657409,-0.0094904899597167,0.0001527161948615,-0.0001527161948615,0.0
1772904314711919900,10.101919921875,0.0083684921264648,0.0216027498245239,-0.0041923522949218,0.0007635809597559,0.0004581485991366,-0.0006108647794462
1772904314730905000,10.120905029296877,-0.0011272430419921,0.0025372505187988,0.0098000168800354,0.0001527161948615,-0.0001527161948615,-0.0006108647794462
1772904314749890000,10.13989013671875,0.015263557434082,0.0068925619125366,0.0027606934309005,-0.0004581485991366,0.0004581485991366,0.0
1772904314768875300,10.158875244140624,-0.001596450805664,-0.0121571421623229,-0.0020460039377212,0.0007635809597559,0.0004581485991366,0.0
1772904314787860500,10.177860595703123,0.0147676467895507,0.0042689144611358,0.0004646182060241,0.0001527161948615,0.0004581485991366,-0.0006108647794462
1772904314806845700,10.196845703125,0.0003910064697265,-0.0005765557289123,-0.0042801052331924,0.0007635809597559,-0.0007635809597559,-0.0006108647794462
1772904314825831000,10.215830810546874,-0.0090312957763671,-0.012429803609848,-0.0158932358026504,-0.0004581485991366,0.0004581485991366,0.0
1772904314844816000,10.23481591796875,-0.0043001174926757,0.0018134117126464,0.0034044682979583,0.0001527161948615,-0.0001527161948615,0.0006108647794462
1772904314863801000,10.253801025390626,0.0028619766235351,0.0085256397724151,0.0151044428348541,0.0013744457392022,0.0004581485991366,0.0
1772904314882786300,10.272786376953125,0.0170392990112304,-0.000696986913681,-0.0014867782592773,0.0007635809597559,-0.0001527161948615,-0.0006108647794462
1772904314901771500,10.291771484375,-0.0043849945068359,0.0084307491779327,0.0033521950244903,0.0007635809597559,0.0004581485991366,0.0
1772904314920756700,10.3107568359375,0.0075273513793945,-0.0014656782150268,0.0099754482507705,0.0001527161948615,0.0004581485991366,0.0
1772904314939742000,10.329741943359377,0.0073165893554687,0.0175874233245849,-0.0135809928178787,0.0001527161948615,0.0004581485991366,-0.0006108647794462
1772904314958727000,10.348726806640624,-2.67028808593e-05,-0.0013425350189208,0.0104658752679824,0.0007635809597559,-0.0007635809597559,0.0
1772904314977712000,10.367712158203124,-0.0023384094238281,0.0148642659187316,0.0054624080657958,0.0007635809597559,-0.0001527161948615,0.0
1772904314996697300,10.386697265625,0.0024013519287109,0.0217675566673278,0.0006067901849746,0.0007635809597559,-0.0007635809597559,0.0
1772904315015682600,10.4056826171875,-0.0021076202392578,-0.0021407008171081,0.0051207244396209,0.0013744457392022,-0.0001527161948615,0.0
1772904315034667800,10.424667724609376,-0.0114469528198242,0.0026860237121582,0.0212758183479309,0.0007635809597559,-0.0001527161948615,0.0012217295588925
1772904315053653000,10.443653076171875,0.0026159286499023,0.0005812346935272,-0.0024364441633224,0.0007635809597559,-0.0001527161948615,0.0
1772904315072638000,10.462637939453124,0.0190401077270507,0.0169239044189453,0.0048508197069168,-0.0004581485991366,-0.0001527161948615,0.0
1772904315091623200,10.481623046875,-0.004608154296875,-0.0023347735404968,0.0023255199193954,0.0007635809597559,-0.0001527161948615,0.0
1772904315110608400,10.5006083984375,0.0051918029785156,-0.0138207077980041,-0.002369686961174,0.0007635809597559,-0.0001527161948615,0.0
1772904315129593600,10.519593505859374,-0.011174201965332,0.0053321421146392,-0.0048523843288421,0.0013744457392022,-0.0001527161948615,0.0
1772904315148578600,10.53857861328125,0.0007200241088867,-0.0088385939598083,-0.0117757618427276,0.0007635809597559,-0.0007635809597559,0.0
1772904315167563800,10.557563720703126,-0.0109109878540039,0.0052247941493988,-0.0020841807126998,0.0007635809597559,-0.0007635809597559,-0.0006108647794462
1772904315186549000,10.576549072265625,-0.0130224227905273,0.0004922151565551,-0.0068272203207015,0.0001527161948615,0.0004581485991366,0.0006108647794462
1772904315205534200,10.5955341796875,-0.0008678436279296,-0.004146009683609,0.0169379711151123,0.0007635809597559,0.0004581485991366,0.0
1772904315224519400,10.61451953125,0.0155563354492187,-0.0017051100730895,0.0047983825206756,0.0001527161948615,0.0004581485991366,0.0
1772904315243504400,10.63350439453125,-0.0060157775878906,0.0075713396072387,-0.0115713477134704,0.0013744457392022,-0.0001527161948615,0.0
1772904315262489600,10.652489501953124,0.0130014419555664,-0.0138716101646423,-0.0042499601840972,0.0007635809597559,-0.0007635809597559,-0.0006108647794462
1772904315281474800,10.671474853515624,-0.0013084411621093,-0.0065851211547851,-0.0088912844657897,0.0007635809597559,0.0004581485991366,0.0
1772904315300460000,10.6904599609375,0.0033588409423828,0.002987802028656,-0.0250778496265411,0.0013744457392022,-0.0007635809597559,-0.0006108647794462
1772904315319445000,10.709445068359376,-0.003737449645996,0.0029905140399932,0.0246848762035369,0.0007635809597559,-0.0001527161948615,-0.0006108647794462
1772904315338430200,10.72843017578125,0.0126638412475585,0.0121346414089202,0.0005003362894058,0.0007635809597559,0.0004581485991366,0.0006108647794462
1772904315357415400,10.74741552734375,0.0052223205566406,0.0189126729965209,-0.0043284893035888,-0.0004581485991366,-0.0007635809597559,-0.0006108647794462
1772904315376400600,10.766400634765626,-0.0017757415771484,-0.0142560005187988,-0.0041928589344024,0.0007635809597559,-0.0001527161948615,0.0
1772904315395385600,10.785385498046876,-0.0062637329101562,0.0070812404155731,0.005554512143135,0.0019853105768561,0.0004581485991366,0.0
1772904315414370800,10.804370849609375,-0.0179433822631835,0.0024173259735107,0.000870794057846,0.0001527161948615,-0.0007635809597559,-0.0006108647794462
1772904315433356000,10.82335595703125,0.0085697174072265,0.011929303407669,-0.0105591118335723,0.0007635809597559,-0.0001527161948615,0.0
1772904315452341200,10.84234130859375,0.0035953521728515,-0.0121320188045501,-0.0097423642873764,-0.0004581485991366,0.002901607658714,0.0036651887930929
1772904315471326200,10.861326171875,-0.0818777084350586,0.0483419001102447,-0.0292964726686477,0.0074830935336649,0.0468838736414909,0.0036651887930929
1772904315490311400,10.8803115234375,-0.0051593780517578,0.0030324459075927,-0.0129285603761672,0.0032070400193333,0.0334448479115963,-0.002443459117785
1772904315509296600,10.899296630859377,0.0523939132690429,-0.0330613255500793,-0.0646776407957077,-0.0035124723799526,-0.1149952933192253,-0.0054977829568088
1772904315528281900,10.91828173828125,-0.1797952651977539,0.0295908451080322,0.0457400232553482,0.0032070400193333,0.0352774411439895,-0.0085521070286631
